time,accel_x,accel_y,accel_z,gyro_x,gyro_y,gyro_z,quat_w,quat_x,quat_y,quat_z
1697352690.75,-0.16,0.74,1.04,2.2,4.8,70,0.83,0.03,-0.01,-0.55
1697352690.76,-0.16,0.74,1.04,2.2,4.8,70,0.83,0.03,-0.01,-0.55
1697352690.77,-0.16,0.74,1.04,2.2,4.8,70,0.83,0.03,-0.01,-0.55
1697352690.78,-0.16,0.74,1.04,2.2,4.8,70,0.83,0.03,-0.01,-0.55
1697352690.79,-0.16,0.74,1.04,2.2,4.8,70,0.83,0.03,-0.01,-0.55
1697352690.8,-0.16,0.74,1.04,2.2,4.8,70,0.83,0.03,-0.01,-0.55
1697352690.81,-0.16,0.74,1.04,2.2,4.8,70,0.83,0.03,-0.01,-0.55
1697352690.82,-0.16,0.74,1.04,2.2,4.8,70,0.83,0.03,-0.01,-0.55
1697352690.83,-0.16,0.74,1.04,2.2,4.8,70,0.83,0.03,-0.01,-0.55
1697352690.84,-0.16,0.74,1.04,2.2,4.8,70,0.83,0.03,-0.01,-0.55
1697352690.85,-0.16,0.74,1.04,2.2,4.8,70,0.83,0.03,-0.01,-0.55
1697352690.86,-0.16,0.74,1.04,2.2,4.8,70,0.83,0.03,-0.01,-0.55
1697352690.87,-0.16,0.74,1.04,2.2,4.8,70,0.83,0.03,-0.01,-0.55
1697352690.88,-0.16,0.74,1.04,2.2,4.8,70,0.83,0.03,-0.01,-0.55
1697352690.89,-0.16,0.74,1.04,2.2,4.8,70,0.83,0.03,-0.01,-0.55
1697352690.9,-0.04,0.55,1.02,-3.5,2.9,69.8,0.92,0.02,-0.02,-0.39
1697352690.91,0.01,0.48,1.02,-3.8,3.2,69.3,0.92,0.02,-0.02,-0.38
1697352690.92,0.16,0.45,0.74,-3.7,3.5,68.2,0.93,0.02,-0.02,-0.38
1697352690.93,0.12,0.32,0.93,-4,3,66,0.93,0.02,-0.02,-0.37
1697352690.94,0.14,0.22,0.98,-3.7,2.4,62.9,0.93,0.02,-0.02,-0.37
1697352690.95,0.1,-0.05,0.82,-4,1.9,59,0.93,0.02,-0.02,-0.36
1697352690.96,0.01,-0.02,0.87,-3.5,1,53.3,0.93,0.02,-0.01,-0.36
1697352690.97,-0.05,-0.04,0.77,-3.5,0.6,49.1,0.94,0.02,-0.01,-0.35
1697352690.98,-0.09,-0.1,0.87,-2.9,0.9,44.6,0.94,0.02,-0.01,-0.35
1697352690.99,-0.09,-0.14,1.09,-2.6,0.8,39.6,0.94,0.02,-0.01,-0.34
1697352691,-0.1,-0.04,1.13,-2.6,1,35.6,0.94,0.02,-0.01,-0.34
1697352691.01,-0.06,-0.05,0.81,-1.8,1.1,31.8,0.94,0.02,-0.01,-0.34
1697352691.02,-0.08,0.13,0.97,-1.3,1.7,29.2,0.94,0.02,-0.01,-0.34
1697352691.03,-0.16,0.17,1.35,-1.1,2,27.8,0.94,0.02,-0.01,-0.33
1697352691.04,-0.06,0.16,0.59,-1.7,2.1,27.3,0.94,0.02,-0.01,-0.33
1697352691.05,-0.47,0.16,1.14,-2.5,2.5,27.3,0.94,0.02,-0.01,-0.33
1697352691.06,-0.42,0.2,0.51,-2.9,4.1,27,0.94,0.02,-0.01,-0.33
1697352691.07,-0.42,0.2,0.51,-2.9,4.1,27,0.94,0.02,-0.01,-0.33
1697352691.08,-0.51,0.12,0.87,-0.3,4,26.1,0.95,0.02,-0.01,-0.32
1697352691.09,-0.51,0.12,0.87,-0.3,4,26.1,0.95,0.02,-0.01,-0.32
1697352691.1,-0.1,0.2,0.97,-0.6,0.9,26.3,0.95,0.02,-0.01,-0.32
1697352691.11,-0.1,0.2,0.97,-0.6,0.9,26.3,0.95,0.02,-0.01,-0.32
1697352691.12,0.07,0.35,1.02,0.3,-0.4,26.7,0.95,0.02,-0.01,-0.32
1697352691.13,0.07,0.35,1.02,0.3,-1,28.2,0.95,0.02,-0.01,-0.31
1697352691.14,-0.24,0.31,1.52,1,-1.4,29.4,0.95,0.02,-0.01,-0.31
1697352691.15,-0.24,0.31,1.52,1.7,-2,29.8,0.95,0.02,-0.01,-0.31
1697352691.16,-0.09,0.41,1.13,1.5,-1.8,30.3,0.95,0.02,-0.01,-0.31
1697352691.17,-0.06,0.36,0.97,1.2,-1.6,30.3,0.95,0.02,-0.01,-0.3
1697352691.18,-0.15,0.38,1.14,0.9,-1.4,30.2,0.95,0.02,-0.01,-0.3
1697352691.19,-0.14,0.39,1.05,0.6,-1.7,30.1,0.95,0.02,-0.01,-0.3
1697352691.2,-0.1,0.4,0.98,0.8,-1.4,29.8,0.95,0.02,-0.01,-0.3
1697352691.21,-0.13,0.38,1.09,0.7,-0.8,29.6,0.96,0.02,-0.01,-0.29
1697352691.22,-0.14,0.33,0.91,-0.1,-0.4,29.5,0.96,0.02,-0.01,-0.29
1697352691.23,-0.12,0.35,0.97,-1.5,0,29.4,0.96,0.02,-0.01,-0.29
1697352691.24,-0.07,0.4,0.9,-1.7,0.1,29.4,0.96,0.02,-0.01,-0.29
1697352691.25,-0.08,0.4,0.9,-2.2,0.3,29.7,0.96,0.02,-0.01,-0.28
1697352691.26,-0.14,0.37,1,-2.1,0.1,30,0.96,0.02,-0.01,-0.28
1697352691.27,-0.06,0.33,0.94,-1.7,-0.4,30.3,0.96,0.02,-0.01,-0.28
1697352691.28,-0.17,0.35,1.16,-1.8,-1.1,30.6,0.96,0.02,-0.01,-0.27
1697352691.29,-0.18,0.3,0.86,-1.5,-2,31,0.96,0.02,-0.01,-0.27
1697352691.3,-0.18,0.3,0.86,-1.5,-2,31,0.96,0.02,-0.01,-0.27
1697352691.31,-0.18,0.3,0.86,-1.5,-2,31,0.96,0.02,-0.01,-0.27
1697352691.32,-0.18,0.3,0.86,-1.5,-2,31,0.96,0.02,-0.01,-0.27
1697352691.33,-0.18,0.3,0.86,-1.5,-2,31,0.96,0.02,-0.01,-0.27
1697352691.34,-0.18,0.3,0.86,-1.5,-2,31,0.96,0.02,-0.01,-0.27
1697352691.35,-0.18,0.3,0.86,-1.5,-2,31,0.96,0.02,-0.01,-0.27
1697352691.36,-0.18,0.3,0.86,-1.5,-2,31,0.96,0.02,-0.01,-0.27
1697352691.37,-0.18,0.3,0.86,-1.5,-2,31,0.96,0.02,-0.01,-0.27
1697352691.38,-0.18,0.3,0.86,-1.5,-2,31,0.96,0.02,-0.01,-0.27
1697352691.39,-0.18,0.3,0.86,-1.5,-2,31,0.96,0.02,-0.01,-0.27
1697352691.4,-0.18,0.3,0.86,-1.5,-2,31,0.96,0.02,-0.01,-0.27
1697352691.41,-0.18,0.3,0.86,-1.5,-2,31,0.96,0.02,-0.01,-0.27
1697352691.42,-0.06,0.39,0.84,-1.5,-2,31,0.96,0.02,-0.01,-0.27
1697352691.43,-0.03,0.36,0.76,2.4,0.8,33,0.97,0.02,-0.01,-0.24
1697352691.44,-0.08,0.28,0.93,3.1,0.9,32.5,0.97,0.02,-0.01,-0.23
1697352691.45,-0.07,0.26,1.1,2.5,0.8,32.1,0.97,0.02,-0.02,-0.23
1697352691.46,-0.1,0.32,0.91,-0.1,0.4,32,0.97,0.02,-0.02,-0.23
1697352691.47,-0.1,0.32,0.91,-0.1,0.4,32,0.97,0.02,-0.02,-0.22
1697352691.48,-0.17,0.49,1.01,-3.2,0.5,33,0.97,0.02,-0.02,-0.22
1697352691.49,-0.17,0.49,1.01,-3.2,0.5,33,0.98,0.02,-0.01,-0.22
1697352691.5,-0.16,0.39,1.16,0.1,2,35.7,0.98,0.02,-0.01,-0.22
1697352691.51,-0.16,0.39,1.16,0.1,2,35.7,0.98,0.02,-0.01,-0.21
1697352691.52,-0.05,0.26,0.77,-0.1,2.3,36.1,0.98,0.02,-0.01,-0.21
1697352691.53,-0.07,0.21,0.95,-1.1,3,36.4,0.98,0.02,-0.01,-0.21
1697352691.54,-0.04,0.29,0.82,-2.4,3.5,36.4,0.98,0.02,-0.01,-0.2
1697352691.55,-0.04,0.29,0.82,-3,4,36.3,0.98,0.02,-0.01,-0.2
1697352691.56,-0.1,0.33,1.06,-0.3,3.6,36.4,0.98,0.02,-0.01,-0.2
1697352691.57,-0.1,0.33,1.06,-0.3,3.6,36.4,0.98,0.02,-0.01,-0.19
1697352691.58,-0.12,0.33,0.97,0.2,3.7,36.3,0.98,0.02,-0.01,-0.19
1697352691.59,-0.09,0.3,1.07,-0.3,3.5,36.7,0.98,0.02,-0.01,-0.19
1697352691.6,-0.09,0.35,1,-1.3,3.4,37,0.98,0.02,-0.01,-0.18
1697352691.61,-0.14,0.34,0.96,-1.4,3.1,37.1,0.98,0.02,-0.01,-0.18
1697352691.62,-0.18,0.37,0.97,-1.9,3.3,37.1,0.98,0.02,-0.01,-0.18
1697352691.63,-0.22,0.36,1,-0.9,3.4,36.9,0.98,0.03,-0.01,-0.17
1697352691.64,-0.2,0.29,0.82,-0.9,3.4,36.9,0.98,0.03,-0.01,-0.17
1697352691.65,-0.16,0.32,0.84,-0.9,3.5,36.3,0.99,0.03,-0.01,-0.17
1697352691.66,-0.03,0.29,1.01,-0.6,3.5,36,0.99,0.03,-0.01,-0.16
1697352691.67,-0.09,0.25,0.98,-0.6,3.4,36,0.99,0.03,-0.01,-0.16
1697352691.68,-0.12,0.27,0.97,-1,3.1,35.9,0.99,0.03,-0.01,-0.16
1697352691.69,-0.1,0.29,1.12,-1,2.9,36.3,0.99,0.03,-0.01,-0.15
1697352691.7,-0.03,0.26,0.78,-0.9,2.7,36.5,0.99,0.03,-0.01,-0.15
1697352691.71,-0.15,0.28,1.17,-0.7,2.6,36.5,0.99,0.03,-0.01,-0.15
1697352691.72,-0.09,0.27,0.91,-0.5,2.7,36.9,0.99,0.03,-0.01,-0.15
1697352691.73,-0.07,0.3,0.8,-0.9,3.4,37,0.99,0.03,-0.01,-0.15
1697352691.74,-0.05,0.28,0.8,-0.7,3.8,37.1,0.99,0.03,-0,-0.14
1697352691.75,-0.09,0.3,1,-0.8,3.9,37.1,0.99,0.04,-0,-0.13
1697352691.76,-0.1,0.31,0.95,-0.4,4,37.2,0.99,0.04,-0,-0.13
1697352691.77,-0.12,0.27,0.98,-0.5,3.9,37.1,0.99,0.04,-0,-0.13
1697352691.78,-0.14,0.26,1.07,-0.5,4.1,37,0.99,0.04,-0,-0.13
1697352691.79,-0.17,0.25,1.12,-1,4.2,36.8,0.99,0.04,-0,-0.12
1697352691.8,-0.08,0.29,0.97,-1.9,4.6,36.7,0.99,0.04,-0,-0.12
1697352691.81,-0.14,0.31,1.04,-2.1,4.7,36.5,0.99,0.04,-0,-0.12
1697352691.82,-0.14,0.31,1.04,-2.1,4.7,36.5,0.99,0.04,-0,-0.12
1697352691.83,-0.14,0.31,1.04,-2.1,4.7,36.5,0.99,0.04,-0,-0.12
1697352691.84,-0.14,0.31,1.04,-2.1,4.7,36.5,0.99,0.04,-0,-0.12
1697352691.85,-0.14,0.31,1.04,-2.1,4.7,36.5,0.99,0.04,-0,-0.12
1697352691.86,-0.14,0.31,1.04,-2.1,4.7,36.5,0.99,0.04,-0,-0.12
1697352691.87,-0.14,0.31,1.04,-2.1,4.7,36.5,0.99,0.04,-0,-0.12
1697352691.88,-0.14,0.31,1.04,-2.1,4.7,36.5,0.99,0.04,-0,-0.12
1697352691.89,-0.14,0.31,1.04,-2.1,4.7,36.5,0.99,0.04,-0,-0.12
1697352691.9,-0.14,0.31,1.04,-2.1,4.7,36.5,0.99,0.04,-0,-0.12
1697352691.91,-0.14,0.31,1.04,-2.1,4.7,36.5,0.99,0.04,-0,-0.12
1697352691.92,-0.14,0.31,1.04,-2.1,4.7,36.5,0.99,0.04,-0,-0.12
1697352691.93,-0.14,0.31,1.04,-2.1,4.7,36.5,0.99,0.04,-0,-0.12
1697352691.94,-0.14,0.31,1.04,-0.7,2.6,36.2,0.99,0.04,-0,-0.12
1697352691.95,-0.18,0.22,1.14,-1.1,2.4,36.3,1,0.05,0.01,-0.07
1697352691.96,-0.1,0.24,1.06,-1.8,1.8,36,1,0.05,0.01,-0.07
1697352691.97,-0.1,0.24,1.06,-1.8,1.8,36,1,0.05,0.01,-0.07
1697352691.98,-0.1,0.25,1.08,-1.9,1.9,35.7,1,0.06,0.01,-0.06
1697352691.99,-0.1,0.27,1.03,-1.7,1.7,35.5,1,0.06,0.01,-0.06
1697352692,-0.08,0.27,1.09,-0.9,1.4,35.3,1,0.06,0.01,-0.06
1697352692.01,-0.03,0.27,0.91,-0.3,1.4,35,1,0.06,0.01,-0.05
1697352692.02,-0.11,0.21,1.1,0.1,1.1,35,1,0.06,0.01,-0.05
1697352692.03,-0.04,0.21,0.87,-0.2,0.8,34.9,1,0.06,0.01,-0.05
1697352692.04,-0.1,0.21,1.04,-0.7,1,34.9,1,0.06,0.01,-0.05
1697352692.05,-0.1,0.24,0.92,-2,1.3,35.1,1,0.06,0.01,-0.04
1697352692.06,-0.12,0.28,0.9,-2,1.3,35.1,1,0.06,0.01,-0.04
1697352692.07,-0.14,0.29,1.02,-0.4,1.9,35.5,1,0.06,0.01,-0.04
1697352692.08,-0.1,0.26,0.98,0.3,2.1,35.7,1,0.06,0.01,-0.04
1697352692.09,-0.15,0.19,1.1,1.1,2,35.8,1,0.06,0.01,-0.03
1697352692.1,-0.14,0.19,0.95,0.6,1.9,35.7,1,0.06,0.01,-0.03
1697352692.11,-0.15,0.18,1.02,-0.3,1.7,35.4,1,0.06,0.01,-0.03
1697352692.12,-0.16,0.21,1,-1.1,1.2,35.1,1,0.06,0.01,-0.02
1697352692.13,-0.13,0.27,1.17,-1.4,0.6,34.9,1,0.06,0.01,-0.02
1697352692.14,-0.09,0.26,0.95,-0.7,0.1,34.7,1,0.06,0.01,-0.02
1697352692.15,-0.06,0.21,0.92,0.2,-0.4,34.6,1,0.06,0.01,-0.01
1697352692.16,-0.07,0.17,0.95,0,-1.3,34.6,1,0.06,0.01,-0.01
1697352692.17,-0.11,0.16,1,-0.3,-2.1,34.5,1,0.06,0.01,-0.01
1697352692.18,-0.16,0.22,0.95,-1.4,-2,34.5,1,0.06,0.01,-0
1697352692.19,-0.1,0.26,1.1,-1.7,-1.9,34.4,1,0.06,0.01,-0
1697352692.2,-0.1,0.24,0.9,-1.1,-1.5,34.3,1,0.06,0.01,0
1697352692.21,-0.1,0.21,0.92,0,-0.8,34.3,1,0.06,0.01,0
1697352692.22,-0.1,0.21,0.92,0,-0.8,34.3,1,0.06,0.01,0.01
1697352692.23,-0.07,0.18,0.9,0,0.4,34.2,1,0.06,0.01,0.01
1697352692.24,-0.13,0.2,1.08,-1.1,0.8,34.1,1,0.06,0.01,0.01
1697352692.25,-0.08,0.25,1.08,-1.3,1,34.2,1,0.06,0.01,0.02
1697352692.26,-0.05,0.25,0.91,-0.4,0.8,34.3,1,0.06,0.01,0.02
1697352692.27,-0.12,0.19,1.17,-0.4,0.8,34.3,1,0.06,0.01,0.02
1697352692.28,0.05,0.16,0.85,0.9,-0.2,34.2,1,0.06,0.01,0.03
1697352692.29,-0.06,0.14,1.04,0.9,-0.2,34.2,1,0.06,0.01,0.03
1697352692.3,-0.1,0.2,1.09,-0.6,-2.3,33.8,1,0.06,0.01,0.03
1697352692.31,-0.1,0.2,1.09,-0.6,-2.3,33.8,1,0.06,0.01,0.04
1697352692.32,-0.15,0.23,1.02,-1.3,-3,33.7,1,0.06,0.01,0.04
1697352692.33,-0.17,0.22,0.98,0.2,-2.8,33.2,1,0.07,0.01,0.04
1697352692.34,-0.17,0.22,0.98,0.2,-2.8,33.2,1,0.07,0.01,0.04
1697352692.35,-0.17,0.22,0.98,0.2,-2.8,33.2,1,0.07,0.01,0.04
1697352692.36,-0.17,0.22,0.98,0.2,-2.8,33.2,1,0.07,0.01,0.04
1697352692.37,-0.17,0.22,0.98,0.2,-2.8,33.2,1,0.07,0.01,0.04
1697352692.38,-0.17,0.22,0.98,0.2,-2.8,33.2,1,0.07,0.01,0.04
1697352692.39,-0.17,0.22,0.98,0.2,-2.8,33.2,1,0.07,0.01,0.04
1697352692.4,-0.17,0.22,0.98,0.2,-2.8,33.2,1,0.07,0.01,0.04
1697352692.41,-0.17,0.22,0.98,0.2,-2.8,33.2,1,0.07,0.01,0.04
1697352692.42,-0.17,0.22,0.98,0.2,-2.8,33.2,1,0.07,0.01,0.04
1697352692.43,-0.17,0.22,0.98,0.2,-2.8,33.2,1,0.07,0.01,0.04
1697352692.44,-0.17,0.22,0.98,0.2,-2.8,33.2,1,0.07,0.01,0.04
1697352692.45,-0.17,0.22,0.98,0.2,-2.8,33.2,1,0.07,0.01,0.04
1697352692.46,-0.11,0.18,1.02,0.2,-0.9,32.8,1,0.07,0.01,0.04
1697352692.47,-0.1,0.21,0.99,0.5,-0.7,32.6,0.99,0.07,0.01,0.08
1697352692.48,-0.07,0.19,0.91,0.5,-0.7,32.6,0.99,0.07,0.01,0.08
1697352692.49,-0.09,0.21,0.97,0.9,-0.4,32.3,0.99,0.07,0.01,0.09
1697352692.5,-0.08,0.21,1,0.7,-0.3,32.4,0.99,0.07,0.01,0.09
1697352692.51,-0.1,0.18,1.11,0.1,-0.5,32.5,0.99,0.07,0.01,0.09
1697352692.52,-0.13,0.2,0.92,-0.4,-0.4,32.5,0.99,0.07,0.01,0.09
1697352692.53,-0.09,0.24,0.99,-0.8,-0.5,32.6,0.99,0.07,0.01,0.1
1697352692.54,-0.13,0.21,1.11,-0.6,-0.6,32.7,0.99,0.07,0.01,0.1
1697352692.55,-0.07,0.21,1.07,-0.3,-0.5,32.8,0.99,0.07,0.01,0.1
1697352692.56,-0.05,0.16,0.99,0.2,-0.6,32.7,0.99,0.07,0.01,0.11
1697352692.57,-0.1,0.1,1.05,0,-0.4,32.5,0.99,0.07,0.01,0.11
1697352692.58,-0.14,0.08,1.13,-0.8,-0.5,32.2,0.99,0.07,0.01,0.11
1697352692.59,-0.11,0.18,1.08,-1.6,-0.4,31.8,0.99,0.07,0.01,0.11
1697352692.6,-0.06,0.2,0.99,-1.3,-0.4,31.8,0.99,0.07,0.01,0.12
1697352692.61,-0.11,0.23,0.97,-0.2,0,31.6,0.99,0.07,0.01,0.12
1697352692.62,-0.04,0.16,0.75,1,1,31.6,0.99,0.07,0.01,0.12
1697352692.63,-0.09,0.09,1.12,2,1.6,31.4,0.99,0.07,0.01,0.12
1697352692.64,-0.06,0.12,0.89,1.8,2.2,31.3,0.99,0.07,0.01,0.13
1697352692.65,-0.02,0.13,0.94,0.9,2.4,31.4,0.99,0.07,0.01,0.13
1697352692.66,-0.05,0.18,1.02,0.3,1.9,31.5,0.99,0.07,0.01,0.13
1697352692.67,-0.03,0.2,0.83,0.8,1.3,31.7,0.99,0.07,0.01,0.14
1697352692.68,-0.03,0.2,1.09,2,0.8,31.8,0.99,0.07,0.01,0.14
1697352692.69,-0.1,0.11,1.04,2,0.8,31.8,0.99,0.07,0.01,0.14
1697352692.7,0.07,0.19,0.93,1.6,-0.2,31.7,0.99,0.07,0.01,0.14
1697352692.71,0.18,0.1,1.12,-0.3,-0.2,31.7,0.99,0.07,0.01,0.15
1697352692.72,0.28,0.16,0.92,-1.7,-0.4,31,0.99,0.07,0.01,0.15
1697352692.73,0.22,0.17,0.92,-3.1,-0.6,30.6,0.99,0.07,0.01,0.15
1697352692.74,0.06,0.27,1.21,-3.1,-0.6,30.6,0.99,0.07,0.01,0.15
1697352692.75,0.01,0.39,0.79,-1.9,0.3,29.4,0.98,0.07,0.01,0.16
1697352692.76,-0.17,0.27,1.15,0,1.1,29.9,0.98,0.07,0.01,0.16
1697352692.77,-0.17,0.27,1.15,0,1.1,29.9,0.98,0.07,0.01,0.16
1697352692.78,-0.12,0.12,0.91,1.1,3.2,32,0.98,0.07,0.01,0.17
1697352692.79,-0.12,0.12,0.91,1.1,3.2,32,0.98,0.07,0.01,0.17
1697352692.8,-0.08,0.11,1.06,-1.5,3.9,33.8,0.98,0.07,0.01,0.17
1697352692.81,-0.08,0.11,1.06,-1.5,3.9,33.8,0.98,0.07,0.01,0.17
1697352692.82,-0.02,0.14,0.95,-2.5,3.7,34.3,0.98,0.07,0.01,0.18
1697352692.83,0.01,0.13,0.93,-1.8,3.3,34.3,0.98,0.07,0.01,0.18
1697352692.84,0.09,0.13,0.99,-0.4,2.6,33.9,0.98,0.07,0.01,0.18
1697352692.85,0.09,0.13,0.99,-0.4,2.6,33.9,0.98,0.07,0.01,0.18
1697352692.86,0.09,0.13,0.99,-0.4,2.6,33.9,0.98,0.07,0.01,0.18
1697352692.87,0.09,0.13,0.99,-0.4,2.6,33.9,0.98,0.07,0.01,0.18
1697352692.88,0.09,0.13,0.99,-0.4,2.6,33.9,0.98,0.07,0.01,0.18
1697352692.89,0.09,0.13,0.99,-0.4,2.6,33.9,0.98,0.07,0.01,0.18
1697352692.9,0.09,0.13,0.99,-0.4,2.6,33.9,0.98,0.07,0.01,0.18
1697352692.91,0.09,0.13,0.99,-0.4,2.6,33.9,0.98,0.07,0.01,0.18
1697352692.92,0.09,0.13,0.99,-0.4,2.6,33.9,0.98,0.07,0.01,0.18
1697352692.93,0.09,0.13,0.99,-0.4,2.6,33.9,0.98,0.07,0.01,0.18
1697352692.94,0.09,0.13,0.99,-0.4,2.6,33.9,0.98,0.07,0.01,0.18
1697352692.95,0.09,0.13,0.99,-0.4,2.6,33.9,0.98,0.07,0.01,0.18
1697352692.96,0.09,0.13,0.99,-0.4,2.6,33.9,0.98,0.07,0.01,0.18
1697352692.97,0.09,0.13,0.99,-0.4,2.6,33.9,0.98,0.07,0.01,0.18
1697352692.98,0.09,0.13,0.99,-0.4,2.6,33.9,0.98,0.07,0.01,0.18
1697352692.99,0.09,0.13,0.99,-0.4,2.6,33.9,0.98,0.07,0.01,0.18
1697352693,0.09,0.13,0.99,-0.4,2.6,33.9,0.98,0.07,0.01,0.18
1697352693.01,0.09,0.13,0.99,-0.4,2.6,33.9,0.98,0.07,0.01,0.18
1697352693.02,0.09,0.13,0.99,-0.4,2.6,33.9,0.98,0.07,0.01,0.18
1697352693.03,0.09,0.13,0.99,-0.4,2.6,33.9,0.98,0.07,0.01,0.18
1697352693.04,0.09,0.13,0.99,-0.4,2.6,33.9,0.98,0.07,0.01,0.18
1697352693.05,0.09,0.13,0.99,-0.4,2.6,33.9,0.98,0.07,0.01,0.18
1697352693.06,0.09,0.13,0.99,-0.4,2.6,33.9,0.98,0.07,0.01,0.18
1697352693.07,0.09,0.13,0.99,-0.4,2.6,33.9,0.98,0.07,0.01,0.18
1697352693.08,0.09,0.13,0.99,-0.4,2.6,33.9,0.98,0.07,0.01,0.18
1697352693.09,0.09,0.13,0.99,-0.4,2.6,33.9,0.98,0.07,0.01,0.18
1697352693.1,0.09,0.13,0.99,-0.4,2.6,33.9,0.98,0.07,0.01,0.18
1697352693.11,0.09,0.13,0.99,-0.4,2.6,33.9,0.98,0.07,0.01,0.18
1697352693.12,0.09,0.13,0.99,-0.4,2.6,33.9,0.98,0.07,0.01,0.18
1697352693.13,0.09,0.13,0.99,-0.4,2.6,33.9,0.98,0.07,0.01,0.18
1697352693.14,0.09,0.13,0.99,-0.4,2.6,33.9,0.98,0.07,0.01,0.18
1697352693.15,0.09,0.13,0.99,-0.4,2.6,33.9,0.98,0.07,0.01,0.18
1697352693.16,0.09,0.13,0.99,-0.4,2.6,33.9,0.98,0.07,0.01,0.18
1697352693.17,0.09,0.13,0.99,-0.4,2.6,33.9,0.98,0.07,0.01,0.18
1697352693.18,0.09,0.13,0.99,-0.4,2.6,33.9,0.98,0.07,0.01,0.18
1697352693.19,0.09,0.13,0.99,-0.4,2.6,33.9,0.98,0.07,0.01,0.18
1697352693.2,0.09,0.13,0.99,-0.4,2.6,33.9,0.98,0.07,0.01,0.18
1697352693.21,0.09,0.13,0.99,-0.4,2.6,33.9,0.98,0.07,0.01,0.18
1697352693.22,0.09,0.13,0.99,-0.4,2.6,33.9,0.98,0.07,0.01,0.18
1697352693.23,0.09,0.13,0.99,-0.4,2.6,33.9,0.98,0.07,0.01,0.18
1697352693.24,0.09,0.13,0.99,-0.4,2.6,33.9,0.98,0.07,0.01,0.18
1697352693.25,0.09,0.13,0.99,-0.4,2.6,33.9,0.98,0.07,0.01,0.18
1697352693.26,0.09,0.13,0.99,-0.4,2.6,33.9,0.98,0.07,0.01,0.18
1697352693.27,0.09,0.13,0.99,-0.4,2.6,33.9,0.98,0.07,0.01,0.18
1697352693.28,0.01,0.19,0.91,0.4,-1,37.4,0.95,0.07,0,0.31
1697352693.29,0.01,0.24,0.78,0.4,-2,37,0.95,0.07,0,0.32
1697352693.3,0.01,0.26,0.93,0.5,-2.4,36.9,0.94,0.07,0,0.32
1697352693.31,-0.07,0.31,0.98,3.3,-3.7,36.1,0.94,0.08,0,0.32
1697352693.32,-0.08,0.25,0.8,3.3,-3.7,36.1,0.94,0.08,0,0.32
1697352693.33,-0.1,0.19,1.05,3.6,-2.9,35.9,0.94,0.08,-0,0.33
1697352693.34,-0.1,0.19,1.05,3.6,-2.9,35.9,0.94,0.08,-0,0.33
1697352693.35,-0.05,0.12,1.06,0.9,-1.1,36.1,0.94,0.08,-0,0.33
1697352693.36,0.29,0.15,0.78,0.9,-1.1,36.1,0.94,0.08,-0,0.33
1697352693.37,0.31,0.18,1.16,-0.2,-0.7,35.3,0.94,0.08,-0,0.34
1697352693.38,0.4,0.23,1.25,-0.2,-0.7,35.3,0.94,0.08,-0,0.34
1697352693.39,0.4,0.23,1.25,0.6,-0.5,34.8,0.94,0.08,-0,0.34
1697352693.4,0.17,0.25,1.04,1.9,0.7,34.1,0.93,0.08,-0,0.35
1697352693.41,0.07,0.26,0.86,0.8,1.8,35.5,0.93,0.08,-0,0.35
1697352693.42,0.07,0.26,0.86,0.8,1.8,35.5,0.93,0.08,-0,0.35
1697352693.43,-0.09,0.35,1.1,-1.5,3.8,39.1,0.93,0.08,-0,0.36
1697352693.44,-0.09,0.35,1.1,-1.5,3.8,39.1,0.93,0.08,-0,0.36
1697352693.45,0.06,0.26,0.89,-1.8,3.9,39.6,0.93,0.08,-0,0.36
1697352693.46,0.12,0.26,1.19,-2.9,3.7,40.8,0.93,0.08,-0,0.37
1697352693.47,0.3,0.29,1.01,-2.1,2.6,40.2,0.93,0.08,-0,0.37
1697352693.48,0.49,0.23,0.85,-1,0.9,39,0.93,0.08,-0,0.37
1697352693.49,0.33,0.33,1.18,0.1,-0.5,37.9,0.92,0.08,-0,0.38
1697352693.5,0.33,0.37,0.82,2.1,-1.6,36.3,0.92,0.08,-0,0.38
1697352693.51,0.17,0.27,0.9,1.5,-1.5,34.9,0.92,0.08,-0,0.38
1697352693.52,0.19,0.24,1.02,0.1,-1.2,34.1,0.92,0.08,-0,0.38
1697352693.53,-0.13,0.5,0.96,-2.2,-0.6,35.1,0.92,0.08,-0,0.39
1697352693.54,0.2,0.24,0.99,-2.9,0.2,35.8,0.92,0.08,-0,0.39
1697352693.55,0.14,0.47,0.56,-3.3,0.2,36.9,0.92,0.08,-0.01,0.39
1697352693.56,0.24,0.31,1.18,-2,0,38.1,0.92,0.08,-0.01,0.4
1697352693.57,0.3,0.26,1.15,-0.1,0,38.5,0.91,0.08,-0.01,0.4
1697352693.58,0.36,0.27,0.8,0.5,0.2,39.4,0.91,0.08,-0.01,0.4
1697352693.59,0.36,0.27,0.8,0.5,0.2,39.4,0.91,0.08,-0.01,0.4
1697352693.6,0.12,0.16,0.95,0.4,1,42.3,0.91,0.08,-0.01,0.41
1697352693.61,-0.03,0.22,1.15,-0.5,1.8,43.6,0.91,0.08,-0.01,0.41
1697352693.62,0.06,0.24,0.75,-1.3,2.1,44.7,0.91,0.07,-0.01,0.42
1697352693.63,0.06,0.24,0.75,-1.3,2.1,44.7,0.91,0.07,-0.01,0.42
1697352693.64,0.1,0.35,0.89,-0.5,1.1,45.2,0.9,0.07,-0.01,0.42
1697352693.65,0.1,0.35,0.89,-0.5,1.1,45.2,0.9,0.07,-0.01,0.42
1697352693.66,0.29,0.36,1.06,0.2,-0.3,44.3,0.9,0.07,-0.01,0.43
1697352693.67,0.29,0.36,1.06,0.2,-0.3,44.3,0.9,0.07,-0.01,0.43
1697352693.68,0.29,0.36,1.06,0.2,-0.3,44.3,0.9,0.07,-0.01,0.43
1697352693.69,0.29,0.36,1.06,0.2,-0.3,44.3,0.9,0.07,-0.01,0.43
1697352693.7,0.29,0.36,1.06,0.2,-0.3,44.3,0.9,0.07,-0.01,0.43
1697352693.71,0.29,0.36,1.06,0.2,-0.3,44.3,0.9,0.07,-0.01,0.43
1697352693.72,0.29,0.36,1.06,0.2,-0.3,44.3,0.9,0.07,-0.01,0.43
1697352693.73,0.29,0.36,1.06,0.2,-0.3,44.3,0.9,0.07,-0.01,0.43
1697352693.74,0.29,0.36,1.06,0.2,-0.3,44.3,0.9,0.07,-0.01,0.43
1697352693.75,0.29,0.36,1.06,0.2,-0.3,44.3,0.9,0.07,-0.01,0.43
1697352693.76,0.29,0.36,1.06,0.2,-0.3,44.3,0.9,0.07,-0.01,0.43
1697352693.77,0.29,0.36,1.06,0.2,-0.3,44.3,0.9,0.07,-0.01,0.43
1697352693.78,0.29,0.36,1.06,0.2,-0.3,44.3,0.9,0.07,-0.01,0.43
1697352693.79,0.29,0.36,1.06,0.2,-0.3,44.3,0.9,0.07,-0.01,0.43
1697352693.8,0.29,0.36,1.06,0.2,-0.3,44.3,0.9,0.07,-0.01,0.43
1697352693.81,0.24,0.35,1.05,3.7,0.9,43.8,0.87,0.07,-0.01,0.48
1697352693.82,0.21,0.38,0.94,3.7,-0.3,43.8,0.87,0.08,-0.01,0.48
1697352693.83,0.15,0.42,0.93,2.9,-0.9,44.3,0.87,0.08,-0.01,0.49
1697352693.84,0.07,0.45,0.91,1.9,-0.8,44.9,0.87,0.08,-0.01,0.49
1697352693.85,0.09,0.48,0.87,1.1,-0.8,45.4,0.87,0.08,-0.01,0.49
1697352693.86,0.11,0.42,1.1,0.7,-0.5,45.9,0.86,0.08,-0.01,0.5
1697352693.87,0.15,0.44,0.91,0.8,-0.1,46.1,0.86,0.08,-0.01,0.5
1697352693.88,0.18,0.41,0.94,0.7,0.1,46.2,0.86,0.08,-0.01,0.5
1697352693.89,0.19,0.36,1.06,1.1,0.4,46.1,0.86,0.08,-0.01,0.51
1697352693.9,0.22,0.36,0.91,1.2,0.7,45.7,0.86,0.08,-0.01,0.51
1697352693.91,0.22,0.4,0.84,0.7,1,45.7,0.85,0.08,-0.01,0.51
1697352693.92,0.03,0.42,1.11,0.4,1.2,45.9,0.85,0.08,-0.01,0.52
1697352693.93,0.01,0.42,0.97,0.2,1.4,46.3,0.85,0.08,-0.01,0.52
1697352693.94,0.09,0.43,1.14,0.4,1.1,47.1,0.85,0.08,-0.01,0.53
1697352693.95,0.14,0.41,0.86,1.1,1.1,47.8,0.85,0.08,-0.01,0.53
1697352693.96,0.08,0.34,1.04,1,0.7,48.6,0.84,0.08,-0.01,0.53
1697352693.97,0.17,0.4,0.97,0.7,0.4,49,0.84,0.08,-0.01,0.54
1697352693.98,0.16,0.42,1.11,0.6,-0.1,49,0.84,0.08,-0.01,0.54
1697352693.99,0.15,0.42,0.89,0.3,-0.4,49,0.84,0.08,-0.01,0.54
1697352694,0.15,0.47,0.85,0.2,-1,48.6,0.83,0.08,-0.02,0.55
1697352694.01,0.15,0.47,0.85,0.2,-1,48.6,0.83,0.08,-0.02,0.55
1697352694.02,0.16,0.46,0.96,1.1,-0.9,47.9,0.83,0.08,-0.02,0.55
1697352694.03,0.04,0.43,1.13,1.1,-0.9,47.9,0.83,0.08,-0.02,0.55
1697352694.04,0.07,0.45,1.1,0.8,-0.9,47.8,0.83,0.08,-0.02,0.56
1697352694.05,0.06,0.42,1.07,0.4,-0.7,48,0.82,0.08,-0.02,0.56
1697352694.06,0.04,0.45,0.97,-0.2,-0.3,48.3,0.82,0.08,-0.02,0.56
1697352694.07,0.07,0.45,1.07,-0.8,0,48.8,0.82,0.08,-0.02,0.57
1697352694.08,0.08,0.44,1.19,-1.1,0.4,49.5,0.82,0.07,-0.02,0.57
1697352694.09,0.18,0.44,1.1,-0.5,0.5,49.7,0.81,0.07,-0.02,0.58
1697352694.1,0.18,0.36,0.99,0.6,0.7,49.9,0.81,0.07,-0.02,0.58
1697352694.11,0.18,0.35,0.88,1.5,0.8,49.5,0.81,0.07,-0.02,0.58
1697352694.12,0.15,0.39,0.89,0.9,0.9,49.2,0.81,0.07,-0.02,0.59
1697352694.13,0.13,0.47,0.9,-0.2,0.7,49,0.8,0.07,-0.02,0.59
1697352694.14,0.12,0.51,0.92,-1.1,0.4,48.9,0.8,0.07,-0.02,0.59
1697352694.15,0.06,0.44,1.09,-1,0.3,49,0.8,0.07,-0.02,0.6
1697352694.16,0.12,0.45,0.92,-0.4,0,49.4,0.8,0.07,-0.02,0.6
1697352694.17,0.23,0.32,0.61,0.3,0,49.3,0.79,0.07,-0.02,0.6
1697352694.18,0.17,0.28,1.04,0.7,-0.1,49.5,0.79,0.07,-0.02,0.61
1697352694.19,0.22,0.26,1.02,0.5,0,49.2,0.79,0.07,-0.02,0.61
1697352694.2,0.22,0.26,1.02,0.5,0,49.2,0.79,0.07,-0.02,0.61
1697352694.21,0.22,0.26,1.02,0.5,0,49.2,0.79,0.07,-0.02,0.61
1697352694.22,0.22,0.26,1.02,0.5,0,49.2,0.79,0.07,-0.02,0.61
1697352694.23,0.22,0.26,1.02,0.5,0,49.2,0.79,0.07,-0.02,0.61
1697352694.24,0.22,0.26,1.02,0.5,0,49.2,0.79,0.07,-0.02,0.61
1697352694.25,0.22,0.26,1.02,0.5,0,49.2,0.79,0.07,-0.02,0.61
1697352694.26,0.22,0.26,1.02,0.5,0,49.2,0.79,0.07,-0.02,0.61
1697352694.27,0.22,0.26,1.02,0.5,0,49.2,0.79,0.07,-0.02,0.61
1697352694.28,0.22,0.26,1.02,0.5,0,49.2,0.79,0.07,-0.02,0.61
1697352694.29,0.22,0.26,1.02,0.5,0,49.2,0.79,0.07,-0.02,0.61
1697352694.3,0.22,0.26,1.02,0.5,0,49.2,0.79,0.07,-0.02,0.61
1697352694.31,0.22,0.26,1.02,0.5,0,49.2,0.79,0.07,-0.02,0.61
1697352694.32,0.22,0.26,1.02,0.5,0,49.2,0.79,0.07,-0.02,0.61
1697352694.33,0.22,0.26,1.02,0.5,0,49.2,0.79,0.07,-0.02,0.61
1697352694.34,0.22,0.26,1.02,0.5,0,49.2,0.79,0.07,-0.02,0.61
1697352694.35,0.22,0.26,1.02,0.5,0,49.2,0.79,0.07,-0.02,0.61
1697352694.36,0.22,0.26,1.02,0.5,0,49.2,0.79,0.07,-0.02,0.61
1697352694.37,0.23,0.24,0.86,0.4,0.6,38.1,0.74,0.07,-0.03,0.66
1697352694.38,0.21,0.17,0.83,0.5,0.8,37.5,0.74,0.07,-0.03,0.67
1697352694.39,0.21,0.2,0.68,0.6,0.7,37.1,0.74,0.07,-0.03,0.67
1697352694.4,0.25,0.21,0.97,-0.2,0.2,36.4,0.74,0.07,-0.03,0.67
1697352694.41,0.19,0.31,1.16,-1.3,-0.5,36,0.74,0.07,-0.03,0.67
1697352694.42,0.18,0.32,1.23,-1.6,-0.9,35.3,0.73,0.07,-0.03,0.67
1697352694.43,0.16,0.23,1.12,-1,-1.1,34.4,0.73,0.07,-0.03,0.68
1697352694.44,0.17,0.19,1.02,0,-1.1,33.5,0.73,0.07,-0.03,0.68
1697352694.45,0.19,0.17,1.16,0.1,-0.8,32.6,0.73,0.07,-0.03,0.68
1697352694.46,0.19,0.17,1.16,0,-0.7,31.7,0.73,0.07,-0.03,0.68
1697352694.47,0.12,0.15,1.32,-0.2,-0.1,30.9,0.72,0.07,-0.03,0.69
1697352694.48,0.15,0.13,1.19,-0.6,0.1,30,0.72,0.07,-0.03,0.69
1697352694.49,0.12,0.15,0.93,-2,0.7,29.5,0.72,0.07,-0.03,0.69
1697352694.5,0.09,0.26,0.88,-2.1,1,28.7,0.72,0.07,-0.03,0.69
1697352694.51,0.15,0.12,1.29,0.2,0.6,27.7,0.72,0.07,-0.03,0.69
1697352694.52,0.2,0.12,1.32,-0.1,0,25.5,0.72,0.07,-0.03,0.69
1697352694.53,0.13,0.07,0.99,-0.9,-0.5,24.5,0.71,0.07,-0.03,0.7
1697352694.54,0.21,0.07,0.63,-1.4,-0.9,23.4,0.71,0.07,-0.03,0.7
1697352694.55,0.15,0.14,1.02,-0.6,-0.8,22.6,0.71,0.07,-0.03,0.7
1697352694.56,0.2,0.19,1.27,0.5,-0.8,22,0.71,0.07,-0.03,0.7
1697352694.57,0.26,0.23,1.26,1.5,-0.6,21.5,0.71,0.07,-0.03,0.7
1697352694.58,0.26,0.23,1.26,1.5,-0.6,21.5,0.71,0.07,-0.03,0.7
1697352694.59,0.14,0.08,0.8,1.4,-0.1,21.1,0.71,0.07,-0.03,0.7
1697352694.6,0.23,0.11,1.18,0.5,0.1,20.8,0.71,0.07,-0.03,0.7
1697352694.61,0.17,0.2,1.29,-0.1,0.3,20.5,0.7,0.07,-0.03,0.71
1697352694.62,0.14,0.14,0.87,-0.1,0.6,20.3,0.7,0.07,-0.03,0.71
1697352694.63,0.24,0.17,0.95,0.8,0.7,20,0.7,0.07,-0.03,0.71
1697352694.64,0.24,0.17,0.95,0.8,0.7,20,0.7,0.07,-0.03,0.71
1697352694.65,0.17,0.14,0.97,1.6,0.5,19.6,0.7,0.07,-0.03,0.71
1697352694.66,0.17,0.14,0.97,2.1,0.2,19.4,0.7,0.07,-0.03,0.71
1697352694.67,0.2,0.25,0.89,1.8,0,19.1,0.7,0.07,-0.03,0.71
1697352694.68,0.2,0.25,0.89,1.1,0,19.1,0.7,0.07,-0.03,0.71
1697352694.69,0.08,0.22,0.94,0.6,0.2,19.3,0.69,0.07,-0.03,0.72
1697352694.7,0.2,0.27,0.71,0.3,0.3,19.5,0.69,0.07,-0.03,0.72
1697352694.71,0.15,0.25,0.82,1.7,0.3,20.1,0.69,0.07,-0.03,0.72
1697352694.72,0.14,0.27,1.3,2.2,0.3,20.2,0.69,0.07,-0.03,0.72
1697352694.73,0.14,0.22,1.18,2.1,0.2,20.3,0.69,0.07,-0.03,0.72
1697352694.74,0.12,0.13,0.99,0.2,0.3,20.2,0.69,0.07,-0.03,0.72
1697352694.75,0.12,0.13,0.99,0.2,0.3,20.2,0.69,0.07,-0.03,0.72
1697352694.76,0.12,0.13,0.99,0.2,0.3,20.2,0.69,0.07,-0.03,0.72
1697352694.77,0.12,0.13,0.99,0.2,0.3,20.2,0.69,0.07,-0.03,0.72
1697352694.78,0.12,0.13,0.99,0.2,0.3,20.2,0.69,0.07,-0.03,0.72
1697352694.79,0.12,0.13,0.99,0.2,0.3,20.2,0.69,0.07,-0.03,0.72
1697352694.8,0.12,0.13,0.99,0.2,0.3,20.2,0.69,0.07,-0.03,0.72
1697352694.81,0.12,0.13,0.99,0.2,0.3,20.2,0.69,0.07,-0.03,0.72
1697352694.82,0.12,0.13,0.99,0.2,0.3,20.2,0.69,0.07,-0.03,0.72
1697352694.83,0.12,0.13,0.99,0.2,0.3,20.2,0.69,0.07,-0.03,0.72
1697352694.84,0.12,0.13,0.99,0.2,0.3,20.2,0.69,0.07,-0.03,0.72
1697352694.85,0.12,0.13,0.99,0.2,0.3,20.2,0.69,0.07,-0.03,0.72
1697352694.86,0.12,0.13,0.99,0.2,0.3,20.2,0.69,0.07,-0.03,0.72
1697352694.87,0.12,0.13,0.99,0.2,0.3,20.2,0.69,0.07,-0.03,0.72
1697352694.88,0.14,0.3,0.95,-2.4,3,19.9,0.67,0.07,-0.03,0.74
1697352694.89,0.18,0.29,0.91,-2.4,3,20,0.67,0.07,-0.03,0.74
1697352694.9,0.09,0.3,1.28,-0.5,2.7,19.9,0.67,0.07,-0.03,0.74
1697352694.91,0.15,0.25,1.04,1.5,1.9,19.9,0.67,0.07,-0.03,0.74
1697352694.92,0.12,0.12,1.03,2.7,1,20,0.66,0.07,-0.03,0.74
1697352694.93,0.18,0.06,1.13,2.2,0,19.6,0.66,0.07,-0.03,0.75
1697352694.94,0.2,0,0.83,2.2,0,19.6,0.66,0.07,-0.03,0.75
1697352694.95,0.13,0.07,1,-2.6,-0.7,17.4,0.66,0.07,-0.03,0.75
1697352694.96,0.14,0.18,1.13,-1.2,-0.5,16.7,0.66,0.07,-0.03,0.75
1697352694.97,0.17,0.24,0.85,0.7,-0.1,16.1,0.66,0.07,-0.03,0.75
1697352694.98,0.14,0.09,1.02,1.6,0.3,15.4,0.66,0.07,-0.03,0.75
1697352694.99,0.12,0.03,0.99,1.6,0.3,15.4,0.66,0.07,-0.03,0.75
1697352695,0.12,0.03,0.99,1,0.5,14.6,0.66,0.07,-0.03,0.75
1697352695.01,0.13,-0,0.96,-1.7,1.3,13.2,0.65,0.07,-0.03,0.75
1697352695.02,0.13,0.1,0.91,-1.5,1.3,12.4,0.65,0.07,-0.03,0.75
1697352695.03,0.16,0.11,1.03,-0.2,1.3,12,0.65,0.07,-0.03,0.75
1697352695.04,0.16,0.11,1.03,-0.2,1.3,12,0.65,0.07,-0.03,0.75
1697352695.05,0.11,0.02,0.85,0.1,1.5,11.6,0.65,0.07,-0.03,0.76
1697352695.06,0.11,0.02,0.85,0,1.2,11.4,0.65,0.07,-0.03,0.76
1697352695.07,0.16,0.06,0.96,-0.2,0.7,11.3,0.65,0.07,-0.03,0.76
1697352695.08,0.22,0.15,1.07,0.5,0.3,11.1,0.65,0.07,-0.03,0.76
1697352695.09,0.17,0.06,1,1.7,-0.1,11,0.65,0.07,-0.03,0.76
1697352695.1,0.12,0.04,1.02,1.5,-0.8,11,0.65,0.07,-0.03,0.76
1697352695.11,0.07,-0.01,0.97,-0.2,-1.1,10.8,0.65,0.07,-0.03,0.76
1697352695.12,0.16,0.04,1.21,-2.2,-1.2,10.6,0.65,0.07,-0.03,0.76
1697352695.13,0.19,0.15,0.79,-1.5,-1.2,10.4,0.65,0.07,-0.03,0.76
1697352695.14,0.18,0.2,1.05,0.2,-1,10.5,0.64,0.07,-0.03,0.76
1697352695.15,0.11,0.25,1.17,1.9,-0.4,10.6,0.64,0.07,-0.03,0.76
1697352695.16,0.17,0.11,0.89,2.8,0.2,10.6,0.64,0.07,-0.03,0.76
1697352695.17,0.09,0.11,1.15,3,0.9,10.4,0.64,0.07,-0.03,0.76
1697352695.18,0.03,0,1.08,0.7,1.6,10.3,0.64,0.07,-0.03,0.76
1697352695.19,0.11,0.02,1.09,-1.8,2.4,10.1,0.64,0.07,-0.03,0.76
1697352695.2,0.17,0.03,0.99,-2.1,2.1,9.8,0.64,0.07,-0.03,0.76
1697352695.21,0.19,0.18,1,-2.1,2.1,9.8,0.64,0.07,-0.03,0.76
1697352695.22,0.17,0.12,0.95,1,1,9.4,0.64,0.07,-0.03,0.77
1697352695.23,0.16,0.06,0.78,1.5,0,9.2,0.64,0.07,-0.03,0.77
1697352695.24,0.24,0.05,1.06,0.8,-0.8,8.4,0.64,0.07,-0.03,0.77
1697352695.25,0.16,0.07,0.84,-0.6,-1.6,8.1,0.64,0.07,-0.03,0.77
1697352695.26,0.12,-0.01,0.96,-1.5,-1.5,7.2,0.64,0.07,-0.03,0.77
1697352695.27,0.12,-0.01,0.96,-1.5,-1.5,7.2,0.64,0.07,-0.03,0.77
1697352695.28,0.12,-0.01,0.96,-1.5,-1.5,7.2,0.64,0.07,-0.03,0.77
1697352695.29,0.12,-0.01,0.96,-1.5,-1.5,7.2,0.64,0.07,-0.03,0.77
1697352695.3,0.12,-0.01,0.96,-1.5,-1.5,7.2,0.64,0.07,-0.03,0.77
1697352695.31,0.12,-0.01,0.96,-1.5,-1.5,7.2,0.64,0.07,-0.03,0.77
1697352695.32,0.12,-0.01,0.96,-1.5,-1.5,7.2,0.64,0.07,-0.03,0.77
1697352695.33,0.12,-0.01,0.96,-1.5,-1.5,7.2,0.64,0.07,-0.03,0.77
1697352695.34,0.12,-0.01,0.96,-1.5,-1.5,7.2,0.64,0.07,-0.03,0.77
1697352695.35,0.12,-0.01,0.96,-1.5,-1.5,7.2,0.64,0.07,-0.03,0.77
1697352695.36,0.12,-0.01,0.96,-1.5,-1.5,7.2,0.64,0.07,-0.03,0.77
1697352695.37,0.12,-0.01,0.96,-1.5,-1.5,7.2,0.64,0.07,-0.03,0.77
1697352695.38,0.12,-0.01,0.96,-1.5,-1.5,7.2,0.64,0.07,-0.03,0.77
1697352695.39,0.12,-0.01,0.96,-1.5,-1.5,7.2,0.64,0.07,-0.03,0.77
1697352695.4,0.12,-0.01,0.96,-1.5,2.1,7.8,0.63,0.07,-0.03,0.77
1697352695.41,0.1,0.12,0.99,-3.6,2.2,7.3,0.63,0.07,-0.03,0.77
1697352695.42,0.1,0.12,0.99,-4.1,2.8,6.9,0.63,0.07,-0.03,0.77
1697352695.43,0.08,0.16,0.94,-2.6,3,6.5,0.63,0.07,-0.03,0.77
1697352695.44,0.06,0.14,0.99,-0.1,2.5,6.4,0.63,0.07,-0.03,0.78
1697352695.45,0.07,-0.11,0.75,1.7,1.6,6,0.63,0.07,-0.03,0.78
1697352695.46,0,-0.18,1.19,1.2,1,5.2,0.63,0.07,-0.03,0.78
1697352695.47,-0.02,-0.12,1.23,-1.2,-0.1,4.2,0.63,0.07,-0.03,0.78
1697352695.48,0.02,-0.03,1.18,-4,-0.9,2.9,0.63,0.07,-0.03,0.78
1697352695.49,0.07,-0.06,0.95,-4.5,-1,2.1,0.63,0.07,-0.03,0.78
1697352695.5,0.08,0.01,0.95,-3.5,-1,1.5,0.63,0.07,-0.03,0.78
1697352695.51,-0.1,-0.1,1.09,-1.6,-1.4,0.8,0.63,0.07,-0.03,0.78
1697352695.52,-0.03,-0.19,1.09,0.1,-1.6,0,0.63,0.07,-0.03,0.78
1697352695.53,0.02,-0.25,1.01,0.3,-1.7,-1.2,0.63,0.07,-0.03,0.78
1697352695.54,0.07,-0.36,1.2,-0.1,-2,-2.7,0.63,0.07,-0.03,0.78
1697352695.55,0.12,-0.42,0.71,-1.5,-2,-4.7,0.63,0.07,-0.03,0.78
1697352695.56,0.03,-0.42,0.89,-2.4,-1.5,-6.5,0.63,0.07,-0.03,0.78
1697352695.57,-0.02,-0.32,0.96,-3.1,-1.1,-8.3,0.63,0.07,-0.04,0.77
1697352695.58,0.07,-0.28,1.04,-3.8,-0.7,-9.9,0.63,0.07,-0.04,0.77
1697352695.59,0.17,-0.37,0.91,-2.6,-0.3,-11.5,0.63,0.07,-0.04,0.77
1697352695.6,0.11,-0.48,0.96,-1.7,-0.3,-13.2,0.63,0.07,-0.04,0.77
1697352695.61,0.13,-0.57,0.77,-2.6,-0.6,-14.6,0.63,0.07,-0.04,0.77
1697352695.62,0.12,-0.41,0.77,-6.1,-1.2,-16.3,0.63,0.07,-0.04,0.77
1697352695.63,0.08,-0.29,0.96,-7.3,-2.3,-18.1,0.63,0.07,-0.04,0.77
1697352695.64,0.16,-0.3,0.91,-7.3,-2.3,-18.1,0.63,0.07,-0.04,0.77
1697352695.65,0.07,-0.34,0.86,-3.1,-4,-20.8,0.64,0.07,-0.04,0.77
1697352695.66,-0.04,-0.49,1.13,-0.3,-4.5,-21.9,0.64,0.07,-0.04,0.77
1697352695.67,0.01,-0.65,0.89,-0.3,-4.5,-21.9,0.64,0.07,-0.04,0.77
1697352695.68,-0.04,-0.69,0.89,-1,-3.8,-24.5,0.64,0.07,-0.04,0.76
1697352695.69,-0.04,-0.69,0.89,-1,-3.8,-24.5,0.64,0.07,-0.04,0.76
1697352695.7,0.04,-0.43,1.09,-5.5,-1.3,-27.2,0.65,0.07,-0.04,0.76
1697352695.71,0.04,-0.43,1.09,-5.5,-1.3,-27.2,0.65,0.07,-0.04,0.76
1697352695.72,-0.01,-0.66,1.23,-1.6,0.4,-28.9,0.65,0.07,-0.04,0.76
1697352695.73,-0.01,-0.66,1.23,-1.6,0.4,-28.9,0.65,0.07,-0.04,0.76
1697352695.74,-0.04,-0.53,0.95,1.4,1.3,-29.8,0.65,0.07,-0.04,0.75
1697352695.75,-0.02,-0.75,1.03,2.8,2.1,-31.2,0.65,0.07,-0.04,0.75
1697352695.76,0.03,-0.77,1.17,0,2.9,-33.6,0.66,0.07,-0.04,0.75
1697352695.77,0.07,-0.73,0.96,-1.1,2.7,-34.7,0.66,0.07,-0.04,0.75
1697352695.78,0.01,-0.59,1.02,-1,2.1,-35.9,0.66,0.07,-0.04,0.75
1697352695.79,0,-0.61,0.98,0.1,1.3,-37,0.66,0.07,-0.04,0.74
1697352695.8,0,-0.61,0.98,0.1,1.3,-37,0.66,0.07,-0.04,0.74
1697352695.81,0,-0.61,0.98,0.1,1.3,-37,0.66,0.07,-0.04,0.74
1697352695.82,0,-0.61,0.98,0.1,1.3,-37,0.66,0.07,-0.04,0.74
1697352695.83,0,-0.61,0.98,0.1,1.3,-37,0.66,0.07,-0.04,0.74
1697352695.84,0,-0.61,0.98,0.1,1.3,-37,0.66,0.07,-0.04,0.74
1697352695.85,0,-0.61,0.98,0.1,1.3,-37,0.66,0.07,-0.04,0.74
1697352695.86,0,-0.61,0.98,0.1,1.3,-37,0.66,0.07,-0.04,0.74
1697352695.87,0,-0.61,0.98,0.1,1.3,-37,0.66,0.07,-0.04,0.74
1697352695.88,0,-0.61,0.98,0.1,1.3,-37,0.66,0.07,-0.04,0.74
1697352695.89,0,-0.61,0.98,0.1,1.3,-37,0.66,0.07,-0.04,0.74
1697352695.9,0,-0.61,0.98,0.1,1.3,-37,0.66,0.07,-0.04,0.74
1697352695.91,0,-0.61,0.98,0.1,1.3,-37,0.66,0.07,-0.04,0.74
1697352695.92,-0.25,-0.98,1.29,0.1,1.3,-37,0.66,0.07,-0.04,0.74
1697352695.93,-0.24,-0.93,0.83,-2.4,1.7,-64.3,0.71,0.07,-0.03,0.7
1697352695.94,-0.12,-1.03,0.66,-1.4,1.6,-65.6,0.71,0.07,-0.03,0.7
1697352695.95,-0.22,-1.08,0.78,-1.4,1.6,-65.6,0.71,0.07,-0.03,0.7
1697352695.96,-0.38,-1.07,1.48,-2.2,2,-67.7,0.72,0.07,-0.03,0.69
1697352695.97,-0.11,-1.24,0.45,-2.9,3,-69,0.73,0.07,-0.03,0.68
1697352695.98,-0.2,-1.08,1.05,-2.6,2.7,-70.2,0.73,0.07,-0.03,0.68
1697352695.99,-0.32,-1.18,0.97,-2.7,3.2,-71.8,0.73,0.07,-0.03,0.67
1697352696,-0.22,-0.9,0.93,-1.3,2.7,-72.8,0.74,0.07,-0.03,0.67
1697352696.01,-0.4,-1.08,0.98,-0.9,2.3,-74.8,0.74,0.07,-0.03,0.67
1697352696.02,-0.19,-1.17,0.84,-0.9,2.3,-74.8,0.75,0.07,-0.03,0.66
1697352696.03,-0.33,-1.14,1.04,-1.5,1.9,-76.4,0.75,0.07,-0.03,0.65
1697352696.04,-0.46,-0.98,1.1,-1.5,1.9,-76.4,0.75,0.07,-0.03,0.65
1697352696.05,-0.29,-1.13,0.72,-0.9,1.8,-79,0.76,0.07,-0.03,0.64
1697352696.06,-0.65,-1.13,1.04,0.9,1.9,-80,0.77,0.07,-0.03,0.64
1697352696.07,-0.52,-1.07,1.01,0.9,2.7,-81.2,0.77,0.07,-0.03,0.64
1697352696.08,-0.84,-1.35,1.66,0.1,3.1,-81,0.77,0.07,-0.03,0.63
1697352696.09,-0.84,-1.35,1.66,0.1,3.1,-81,0.78,0.07,-0.03,0.63
1697352696.1,-0.77,-1.22,1.18,-3.3,5,-82.1,0.78,0.07,-0.02,0.62
1697352696.11,-0.54,-1.06,0.75,-3.3,5,-82.1,0.79,0.07,-0.02,0.61
1697352696.12,-0.42,-1.26,1.2,-2.4,5.6,-83,0.79,0.07,-0.02,0.61
1697352696.13,-0.32,-1.13,0.9,-1.3,4.8,-84.5,0.79,0.06,-0.02,0.6
1697352696.14,-0.35,-1.15,0.68,-0.3,4.2,-86.4,0.8,0.06,-0.02,0.6
1697352696.15,-0.29,-1.14,0.72,0,3.1,-88.5,0.8,0.06,-0.02,0.59
1697352696.16,-0.42,-1.15,1.56,0.2,1.6,-90.4,0.81,0.07,-0.02,0.58
1697352696.17,-0.18,-1.19,0.56,-0.5,0.2,-92.1,0.81,0.07,-0.02,0.58
1697352696.18,-0.3,-1.04,0.79,-1.3,-0.9,-93.1,0.82,0.07,-0.02,0.57
1697352696.19,-0.34,-1.03,1.11,-1.1,-1.6,-94.1,0.82,0.07,-0.02,0.56
1697352696.2,-0.39,-1.07,1.1,-0.7,-1.9,-94.4,0.83,0.07,-0.02,0.56
1697352696.21,-0.39,-1.14,0.83,-0.3,-1.3,-93.9,0.83,0.07,-0.02,0.55
1697352696.22,-0.19,-1.18,0.84,0,-0.9,-93.6,0.84,0.07,-0.02,0.54
1697352696.23,-0.38,-1.15,0.83,-0.8,0.3,-93,0.84,0.07,-0.02,0.54
1697352696.24,-0.36,-1.07,1.23,-1.2,1.8,-92.2,0.85,0.07,-0.02,0.53
1697352696.25,-0.44,-1.11,1.42,-0.9,2.6,-91.8,0.85,0.07,-0.02,0.52
1697352696.26,-0.32,-1.09,1.02,-0.9,2.6,-91.8,0.85,0.07,-0.02,0.52
1697352696.27,-0.1,-1.05,1.23,0.1,3.1,-91.4,0.86,0.07,-0.01,0.51
1697352696.28,-0.01,-1.08,1.02,0.6,2.9,-91.5,0.86,0.07,-0.01,0.5
1697352696.29,-0.1,-0.91,1.03,0.7,2,-91.3,0.87,0.07,-0.01,0.49
1697352696.3,-0.04,-0.94,1.2,1.6,0.7,-91.9,0.87,0.07,-0.01,0.49
1697352696.31,-0.11,-0.89,0.96,1.7,-0.5,-91.7,0.87,0.07,-0.01,0.49
1697352696.32,-0.11,-0.89,0.96,1.7,-0.5,-91.7,0.88,0.07,-0.01,0.48
1697352696.33,-0.11,-0.89,0.96,1.7,-0.5,-91.7,0.88,0.07,-0.01,0.48
1697352696.34,-0.11,-0.89,0.96,1.7,-0.5,-91.7,0.88,0.07,-0.01,0.48
1697352696.35,-0.11,-0.89,0.96,1.7,-0.5,-91.7,0.88,0.07,-0.01,0.48
1697352696.36,-0.11,-0.89,0.96,1.7,-0.5,-91.7,0.88,0.07,-0.01,0.48
1697352696.37,-0.11,-0.89,0.96,1.7,-0.5,-91.7,0.88,0.07,-0.01,0.48
1697352696.38,-0.11,-0.89,0.96,1.7,-0.5,-91.7,0.88,0.07,-0.01,0.48
1697352696.39,-0.11,-0.89,0.96,1.7,-0.5,-91.7,0.88,0.07,-0.01,0.48
1697352696.4,-0.11,-0.89,0.96,1.7,-0.5,-91.7,0.88,0.07,-0.01,0.48
1697352696.41,-0.11,-0.89,0.96,1.7,-0.5,-91.7,0.88,0.07,-0.01,0.48
1697352696.42,-0.11,-0.89,0.96,1.7,-0.5,-91.7,0.88,0.07,-0.01,0.48
1697352696.43,-0.11,-0.89,0.96,1.7,-0.5,-91.7,0.88,0.07,-0.01,0.48
1697352696.44,-0.11,-0.89,0.96,1.7,-0.5,-91.7,0.88,0.07,-0.01,0.48
1697352696.45,-0.11,-0.89,0.96,1.7,-0.5,-91.7,0.88,0.07,-0.01,0.48
1697352696.46,0.04,-1,1.09,0.6,1,-85,0.92,0.07,-0,0.38
1697352696.47,0.14,-0.8,0.93,1.4,1,-84.5,0.92,0.07,-0,0.38
1697352696.48,0.01,-0.86,0.5,1.3,1.1,-83.4,0.93,0.07,-0,0.37
1697352696.49,0.02,-0.8,0.87,0.8,1.2,-81.8,0.93,0.07,-0,0.36
1697352696.5,0.13,-0.83,1.27,0.6,0.8,-79.5,0.93,0.07,-0,0.35
1697352696.51,0.09,-0.76,1.21,0.6,0.8,-79.5,0.93,0.07,-0,0.35
1697352696.52,0.12,-0.65,0.77,0.7,0.6,-74.8,0.94,0.07,0,0.34
1697352696.53,0.1,-0.69,1.18,0.7,1.1,-72.2,0.94,0.07,0,0.33
1697352696.54,0.23,-0.58,0.91,1.6,2.2,-69.8,0.94,0.07,0,0.33
1697352696.55,0.05,-0.64,0.86,2.3,3,-67.1,0.94,0.07,0,0.32
1697352696.56,0.25,-0.58,0.91,3.2,3.5,-64.5,0.95,0.07,0,0.32
1697352696.57,0.19,-0.59,0.69,3.3,3.7,-63.9,0.95,0.07,0,0.32
1697352696.58,0.24,-0.68,1.23,3.5,3.6,-61.7,0.95,0.07,0,0.31
1697352696.59,0.24,-0.59,0.88,3.2,3.3,-59.4,0.95,0.07,0,0.3
1697352696.6,0.24,-0.57,1.02,3.6,2.4,-58.1,0.95,0.07,0.01,0.3
1697352696.61,0.13,-0.5,1.14,2.9,2.1,-56.3,0.95,0.07,0.01,0.29
1697352696.62,0.21,-0.56,0.77,2.3,2.1,-55,0.96,0.07,0.01,0.29
1697352696.63,0.16,-0.39,1.19,2.4,1.9,-53.9,0.96,0.07,0.01,0.28
1697352696.64,0.15,-0.26,0.61,4.1,1.5,-53,0.96,0.07,0.01,0.28
1697352696.65,0.18,-0.35,1.14,6.2,2.1,-51.4,0.96,0.07,0.01,0.27
1697352696.66,0.21,-0.35,1.09,8.5,2.5,-51.2,0.96,0.07,0.01,0.27
1697352696.67,0.23,-0.39,0.98,6.9,2.4,-49.6,0.96,0.07,0.01,0.26
1697352696.68,0.23,-0.39,0.98,6.9,2.4,-49.6,0.96,0.07,0.01,0.26
1697352696.69,0.09,-0.3,1.16,2.2,2.1,-46.3,0.96,0.07,0.01,0.26
1697352696.7,0.19,-0.19,1.05,1.4,1.8,-44.3,0.96,0.07,0.01,0.25
1697352696.71,0.15,-0.12,1.27,1.4,1.8,-44.3,0.96,0.07,0.01,0.25
1697352696.72,0.14,-0.24,0.7,4.3,0.6,-40.6,0.97,0.07,0.01,0.25
1697352696.73,0.11,-0.23,0.96,3.5,0.6,-39.1,0.97,0.07,0.01,0.25
1697352696.74,0.11,-0.23,0.96,3.5,0.6,-39.1,0.97,0.07,0.01,0.24
1697352696.75,0.25,-0.23,0.96,-1.7,0.8,-35,0.97,0.07,0.01,0.24
1697352696.76,0.25,-0.23,0.96,-1.7,0.8,-35,0.97,0.07,0.01,0.24
1697352696.77,0.34,-0.14,0.74,-3.8,1.1,-33.2,0.97,0.07,0.01,0.23
1697352696.78,0.34,-0.14,0.74,-4.2,1.1,-30.4,0.97,0.07,0.01,0.23
1697352696.79,0.16,-0.12,1.16,-1.3,1.6,-28.8,0.97,0.07,0.01,0.23
1697352696.8,0.2,-0.29,0.87,1,2,-27.2,0.97,0.07,0.01,0.23
1697352696.81,0.04,-0.3,1.17,1.7,2.7,-26.4,0.97,0.07,0.01,0.22
1697352696.82,0.09,-0.34,0.97,1.2,3.5,-26.3,0.97,0.07,0.02,0.22
1697352696.83,0.16,-0.28,1.18,0.2,3.8,-26.2,0.97,0.07,0.02,0.22
1697352696.84,0.19,-0.23,1.04,0.1,3.8,-26.2,0.97,0.07,0.02,0.22
1697352696.85,0.14,-0.1,1.09,0,3.5,-25.7,0.97,0.07,0.02,0.22
1697352696.86,0.14,-0.1,1.09,0,3.5,-25.7,0.97,0.07,0.02,0.22
1697352696.87,0.14,-0.1,1.09,0,3.5,-25.7,0.97,0.07,0.02,0.22
1697352696.88,0.14,-0.1,1.09,0,3.5,-25.7,0.97,0.07,0.02,0.22
1697352696.89,0.14,-0.1,1.09,0,3.5,-25.7,0.97,0.07,0.02,0.22
1697352696.9,0.14,-0.1,1.09,0,3.5,-25.7,0.97,0.07,0.02,0.22
1697352696.91,0.14,-0.1,1.09,0,3.5,-25.7,0.97,0.07,0.02,0.22
1697352696.92,0.14,-0.1,1.09,0,3.5,-25.7,0.97,0.07,0.02,0.22
1697352696.93,0.14,-0.1,1.09,0,3.5,-25.7,0.97,0.07,0.02,0.22
1697352696.94,0.14,-0.1,1.09,0,3.5,-25.7,0.97,0.07,0.02,0.22
1697352696.95,0.14,-0.1,1.09,0,3.5,-25.7,0.97,0.07,0.02,0.22
1697352696.96,0.14,-0.1,1.09,0,3.5,-25.7,0.97,0.07,0.02,0.22
1697352696.97,0.14,-0.1,1.09,0,3.5,-25.7,0.97,0.07,0.02,0.22
1697352696.98,0.15,-0.23,1.26,-1.5,-1,-16.6,0.98,0.07,0.02,0.19
1697352696.99,0.12,-0.1,0.89,-2.6,-1,-15.7,0.98,0.07,0.02,0.19
1697352697,0.07,0.08,0.82,-1.3,-0.7,-14.4,0.98,0.07,0.02,0.19
1697352697.01,-0.01,0,1.15,0.9,-0.5,-13.5,0.98,0.07,0.02,0.19
1697352697.02,-0.04,0,1.21,1.7,-0.1,-12.6,0.98,0.07,0.02,0.19
1697352697.03,0.03,-0.24,0.75,0.2,0.9,-12.1,0.98,0.07,0.02,0.19
1697352697.04,-0.14,-0.17,1.19,-1,2.2,-12.2,0.98,0.07,0.02,0.19
1697352697.05,-0,-0.1,1.28,-0.8,3,-11.8,0.98,0.07,0.02,0.19
1697352697.06,-0.03,-0.16,0.92,-0.8,3,-11.8,0.98,0.07,0.02,0.19
1697352697.07,-0.02,-0.03,0.76,1.4,1.8,-10.9,0.98,0.07,0.02,0.18
1697352697.08,0.03,-0.1,1.17,2.2,0.9,-10.1,0.98,0.07,0.02,0.18
1697352697.09,0.03,-0.1,1.17,2.2,0.9,-10.1,0.98,0.07,0.02,0.18
1697352697.1,0.11,-0.02,1.38,1.5,0,-9.2,0.98,0.07,0.02,0.18
1697352697.11,0.02,0.01,0.79,1.2,0,-8.9,0.98,0.07,0.02,0.18
1697352697.12,0.14,0.19,1.08,-0.1,-1,-7.1,0.98,0.07,0.02,0.18
1697352697.13,0.13,0.36,0.74,-0.7,-2.2,-5.4,0.98,0.07,0.02,0.18
1697352697.14,-0.08,0.39,0.89,-0.3,-3.2,-3.1,0.98,0.07,0.02,0.18
1697352697.15,-0.05,0.28,1.25,1.3,-4.1,-0.5,0.98,0.07,0.02,0.18
1697352697.16,0.05,0.23,1.13,3.4,-3.8,1.8,0.98,0.07,0.02,0.18
1697352697.17,-0.03,0.22,0.92,4.1,-3,4.2,0.98,0.07,0.02,0.18
1697352697.18,-0.02,0.18,0.75,4.2,-1.7,6,0.98,0.07,0.02,0.18
1697352697.19,-0.02,0.22,1.66,3.3,-0.3,7.5,0.98,0.07,0.02,0.18
1697352697.2,0.11,0.3,1.18,2,0.7,8.4,0.98,0.07,0.02,0.18
1697352697.21,0.12,0.37,1.2,1.5,1.7,9.2,0.98,0.07,0.02,0.18
1697352697.22,0.07,0.3,1.57,2.2,1.5,9.9,0.98,0.08,0.02,0.18
1697352697.23,0.19,0.32,0.5,3,1.5,10.4,0.98,0.08,0.02,0.19
1697352697.24,0.06,0.28,1.12,3.5,0.8,10.7,0.98,0.08,0.02,0.19
1697352697.25,0.11,0.3,1.12,3.8,0.4,10.8,0.98,0.08,0.02,0.19
1697352697.26,0.1,0.29,0.83,3.1,-1.1,11.3,0.98,0.08,0.02,0.19
1697352697.27,0.03,0.28,1.32,3.1,-1.1,11.3,0.98,0.08,0.02,0.19
1697352697.28,0.12,0.31,1.1,0.8,-3.8,12.3,0.98,0.08,0.02,0.19
1697352697.29,0.1,0.31,0.88,-1,-4.5,13.1,0.98,0.08,0.02,0.19
1697352697.3,-0.08,0.41,0.75,-2.7,-4.2,13.7,0.98,0.08,0.02,0.19
1697352697.31,-0.08,0.41,0.75,-2.7,-4.2,13.7,0.98,0.08,0.02,0.19
1697352697.32,0.03,0.36,1.17,-2.2,-1.8,16.1,0.98,0.08,0.02,0.2
1697352697.33,0.03,0.36,1.17,-0.6,-0.4,16.7,0.98,0.08,0.02,0.2
1697352697.34,0.09,0.31,1.08,1.1,0.4,17.1,0.98,0.08,0.02,0.2
1697352697.35,0.18,0.15,1.1,1,1.5,17.4,0.98,0.08,0.02,0.2
1697352697.36,0.07,0.05,0.88,-0.1,2.5,17.2,0.98,0.08,0.02,0.2
1697352697.37,0.17,0.19,0.87,-0.1,2.5,17.2,0.98,0.08,0.02,0.2
1697352697.38,0.17,0.19,0.87,-0.1,2.5,17.2,0.98,0.08,0.02,0.2
1697352697.39,0.17,0.19,0.87,-0.1,2.5,17.2,0.98,0.08,0.02,0.2
1697352697.4,0.17,0.19,0.87,-0.1,2.5,17.2,0.98,0.08,0.02,0.2
1697352697.41,0.17,0.19,0.87,-0.1,2.5,17.2,0.98,0.08,0.02,0.2
1697352697.42,0.17,0.19,0.87,-0.1,2.5,17.2,0.98,0.08,0.02,0.2
1697352697.43,0.17,0.19,0.87,-0.1,2.5,17.2,0.98,0.08,0.02,0.2
1697352697.44,0.17,0.19,0.87,-0.1,2.5,17.2,0.98,0.08,0.02,0.2
1697352697.45,0.17,0.19,0.87,-0.1,2.5,17.2,0.98,0.08,0.02,0.2
1697352697.46,0.17,0.19,0.87,-0.1,2.5,17.2,0.98,0.08,0.02,0.2
1697352697.47,0.17,0.19,0.87,-0.1,2.5,17.2,0.98,0.08,0.02,0.2
1697352697.48,0.17,0.19,0.87,-0.1,2.5,17.2,0.98,0.08,0.02,0.2
1697352697.49,0.17,0.19,0.87,-0.1,2.5,17.2,0.98,0.08,0.02,0.2
1697352697.5,0.17,0.19,0.87,-0.1,2.5,17.2,0.98,0.08,0.02,0.2
1697352697.51,0.17,0.19,0.87,-0.1,2.5,17.2,0.98,0.08,0.02,0.2
1697352697.52,0.17,0.19,0.87,-0.1,2.5,17.2,0.98,0.08,0.02,0.2
1697352697.53,0.17,0.19,0.87,-0.1,2.5,17.2,0.98,0.08,0.02,0.2
1697352697.54,0.17,0.19,0.87,-0.1,2.5,17.2,0.98,0.08,0.02,0.2
1697352697.55,0.17,0.19,0.87,-0.1,2.5,17.2,0.98,0.08,0.02,0.2
1697352697.56,0.17,0.19,0.87,-0.1,2.5,17.2,0.98,0.08,0.02,0.2
1697352697.57,0.17,0.19,0.87,-0.1,2.5,17.2,0.98,0.08,0.02,0.2
1697352697.58,0.17,0.19,0.87,-2.1,-1.4,9.5,0.97,0.08,0.01,0.23
1697352697.59,0.06,0.13,1.13,-1.5,0,8.8,0.97,0.08,0.01,0.23
1697352697.6,0.1,0.28,0.65,-1.9,1,8.6,0.97,0.08,0.01,0.23
1697352697.61,-0.01,0.23,1.2,-1.9,1,8.6,0.97,0.08,0.01,0.23
1697352697.62,-0.01,0.23,1.2,-0.9,1.9,9,0.97,0.08,0.01,0.23
1697352697.63,0.08,0.17,1.33,2.3,2.7,8.8,0.97,0.08,0.01,0.23
1697352697.64,0.06,-0.1,1.17,2.5,3.2,9.5,0.97,0.08,0.01,0.23
1697352697.65,0.1,0.19,0.71,-1.8,2,9.2,0.97,0.08,0.01,0.23
1697352697.66,0.1,0.19,0.71,-1.8,2,9.2,0.97,0.08,0.01,0.23
1697352697.67,0.22,0.07,1.21,0,0.1,9.1,0.97,0.08,0.01,0.23
1697352697.68,0.11,0.06,0.38,0,0.1,9.1,0.97,0.08,0.01,0.23
1697352697.69,0.11,0.06,0.38,0,-0.3,8.5,0.97,0.08,0.01,0.23
1697352697.7,0.18,0.13,1.49,-0.4,-0.3,8.6,0.97,0.08,0.01,0.24
1697352697.71,0.18,0.09,0.65,-0.2,-0.9,8.6,0.97,0.08,0.01,0.24
1697352697.72,0.18,0.09,0.65,0.6,-1.9,8,0.97,0.08,0.01,0.24
1697352697.73,0.19,0.1,1.02,0.1,-3.5,7.8,0.97,0.08,0.01,0.24
1697352697.74,0.22,0.17,0.55,-1.1,-4.6,8,0.97,0.08,0.01,0.24
1697352697.75,0.08,0.08,1.41,-2.8,-4.6,7.9,0.97,0.08,0.01,0.24
1697352697.76,0.1,0.1,1.02,-3.7,-4,7.6,0.97,0.08,0.01,0.24
1697352697.77,0.07,0.19,0.67,-3.8,-3.4,7.8,0.97,0.08,0.01,0.24
1697352697.78,0.1,0.27,1.41,-2.6,-2.9,8,0.97,0.08,0.01,0.24
1697352697.79,0.07,0.14,0.64,-0.6,-2.5,8.1,0.97,0.07,0.01,0.24
1697352697.8,0.06,0.23,0.78,0.3,-2.7,8.7,0.97,0.08,0.01,0.24
1697352697.81,0.11,0.14,1.48,2.5,-3,9.2,0.97,0.08,0.01,0.24
1697352697.82,0.07,0.06,0.81,3.6,-3.8,9.2,0.97,0.08,0.01,0.24
1697352697.83,0.03,-0.06,1.52,2.3,-4.8,9.4,0.97,0.08,0.01,0.24
1697352697.84,0.06,-0.03,0.63,0.2,-5,9.4,0.97,0.08,0.01,0.25
1697352697.85,0.09,0.18,0.79,-0.4,-4.3,9.9,0.97,0.08,0.01,0.25
1697352697.86,0.02,0.19,1.53,0.8,-3.8,10.5,0.97,0.08,0.01,0.25
1697352697.87,0.03,0.21,0.59,1.4,-3.3,10.7,0.97,0.08,0.01,0.25
1697352697.88,0.08,0.22,1.07,1.3,-2.8,10.7,0.97,0.08,0.01,0.25
1697352697.89,-0.02,0.19,1.39,1.1,-2.4,10.6,0.97,0.08,0.01,0.25
1697352697.9,0,0.17,1.29,0.6,-1.4,10.8,0.96,0.08,0.01,0.25
1697352697.91,-0.12,0.21,1.2,0,-0.6,10.6,0.96,0.08,0.01,0.25
1697352697.92,0.01,0.23,0.36,-0.4,0.3,10.6,0.96,0.08,0.01,0.25
1697352697.93,-0,0.15,1.71,-1,1.1,10.6,0.96,0.08,0.01,0.25
1697352697.94,-0.21,0.16,0.99,-2.8,1.6,10.8,0.96,0.08,0.01,0.25
1697352697.95,0.03,0.17,0.62,-4.2,1.6,10.7,0.96,0.08,0.01,0.26
1697352697.96,-0.04,0.21,1.64,-4.2,1.6,10.7,0.96,0.08,0.01,0.26
1697352697.97,0.05,0.21,0.88,-5.9,-0.4,10.8,0.96,0.08,0.01,0.26
1697352697.98,0.05,0.21,0.88,-5.9,-0.4,10.8,0.96,0.08,0.01,0.26
1697352697.99,0.05,0.21,0.88,-5.9,-0.4,10.8,0.96,0.08,0.01,0.26
1697352698,0.05,0.21,0.88,-5.9,-0.4,10.8,0.96,0.08,0.01,0.26
1697352698.01,0.05,0.21,0.88,-5.9,-0.4,10.8,0.96,0.08,0.01,0.26
1697352698.02,0.05,0.21,0.88,-5.9,-0.4,10.8,0.96,0.08,0.01,0.26
1697352698.03,0.05,0.21,0.88,-5.9,-0.4,10.8,0.96,0.08,0.01,0.26
1697352698.04,0.05,0.21,0.88,-5.9,-0.4,10.8,0.96,0.08,0.01,0.26
1697352698.05,0.05,0.21,0.88,-5.9,-0.4,10.8,0.96,0.08,0.01,0.26
1697352698.06,0.05,0.21,0.88,-5.9,-0.4,10.8,0.96,0.08,0.01,0.26
1697352698.07,0.05,0.21,0.88,-5.9,-0.4,10.8,0.96,0.08,0.01,0.26
1697352698.08,0.05,0.21,0.88,-5.9,-0.4,10.8,0.96,0.08,0.01,0.26
1697352698.09,0.05,0.21,0.88,-5.9,-0.4,10.8,0.96,0.08,0.01,0.26
1697352698.1,0.05,0.21,0.88,-5.9,-0.4,10.8,0.96,0.08,0.01,0.26
1697352698.11,0.09,0.24,0.71,0.4,-2.3,15.5,0.96,0.08,0.01,0.27
1697352698.12,0.06,0.37,1.39,-1.2,-3.4,15.7,0.96,0.08,0.01,0.27
1697352698.13,-0.06,0.42,0.58,-1.2,-4.1,16,0.96,0.08,0.01,0.27
1697352698.14,-0.01,0.43,1.12,-0.5,-4.1,16.1,0.96,0.08,0.01,0.28
1697352698.15,-0.13,0.43,1.2,-0.5,-4.1,16.1,0.96,0.08,0.01,0.28
1697352698.16,-0.05,0.55,0.31,-0.2,-2.4,17.3,0.96,0.08,0.01,0.28
1697352698.17,0.01,0.51,1.09,1.4,-0.4,18.2,0.96,0.08,0.01,0.28
1697352698.18,-0.1,0.46,1.26,3,1.3,18.8,0.96,0.08,0.01,0.28
1697352698.19,-0.09,0.5,0.66,3.1,2.2,20.2,0.96,0.08,0.01,0.28
1697352698.2,0,0.56,1.3,2,2.7,23,0.95,0.08,0.01,0.29
1697352698.21,0.02,0.69,1.22,1.8,3.1,25,0.95,0.08,0.01,0.29
1697352698.22,-0.01,0.84,0.81,2.1,3.3,27.4,0.95,0.08,0.01,0.29
1697352698.23,0.09,0.71,0.88,3,2.6,29.9,0.95,0.08,0.01,0.29
1697352698.24,-0.03,0.52,1.39,4.3,1.9,32.9,0.95,0.08,0.01,0.3
1697352698.25,-0.19,0.65,0.75,4.8,0.7,35.4,0.95,0.08,0.01,0.3
1697352698.26,-0.12,0.7,0.98,2.8,0.9,36.8,0.95,0.08,0.01,0.3
1697352698.27,-0.1,0.76,0.7,0.1,1.3,38.6,0.95,0.08,0.01,0.31
1697352698.28,-0.11,0.81,0.78,-1.6,1.7,40.4,0.95,0.08,0.01,0.31
1697352698.29,-0.08,0.7,1.61,-0.5,2.3,40.9,0.95,0.08,0.01,0.31
1697352698.3,-0.02,0.6,0.7,0.2,2.5,41.5,0.95,0.08,0.01,0.32
1697352698.31,-0.02,0.6,0.7,0.2,2.5,41.5,0.95,0.08,0.01,0.32
1697352698.32,0.04,0.57,1.32,1.6,3.3,41,0.94,0.08,0.01,0.32
1697352698.33,0.01,0.61,0.58,-0.1,4,40,0.94,0.08,0.01,0.33
1697352698.34,0.08,0.74,1.16,-2.3,3.9,39,0.94,0.08,0.01,0.33
1697352698.35,0.13,0.55,0.68,-2.3,3.2,38.2,0.94,0.08,0.01,0.33
1697352698.36,0.13,0.55,0.68,-2.3,3.2,38.2,0.94,0.08,0.01,0.33
1697352698.37,0,0.45,0.84,-0.9,1.1,37.3,0.94,0.08,0,0.34
1697352698.38,0.1,0.43,0.68,-0.7,0.6,36.6,0.94,0.08,0,0.34
1697352698.39,0.1,0.43,0.68,-1.2,0.4,36,0.94,0.08,0,0.34
1697352698.4,-0.01,0.5,0.79,-2,0.3,35.5,0.93,0.08,0,0.35
1697352698.41,-0.01,0.5,0.79,-0.4,0,35.2,0.93,0.08,0,0.35
1697352698.42,-0.07,0.38,1.41,1.5,0,35.1,0.93,0.08,0,0.35
1697352698.43,-0.07,0.38,1.41,1.5,0,35.1,0.93,0.08,0,0.35
1697352698.44,0.03,0.39,0.51,2.9,1,34.9,0.93,0.08,0,0.36
1697352698.45,0.08,0.34,1.24,3.2,2.1,35.1,0.93,0.08,0,0.36
1697352698.46,0.05,0.59,0.53,1.3,3.5,35.6,0.93,0.08,0,0.36
1697352698.47,0.03,0.61,1.3,-0.2,3.9,36,0.93,0.08,0,0.37
1697352698.48,-0.01,0.59,0.95,1.4,3.3,36.6,0.93,0.08,0,0.37
1697352698.49,0.1,0.56,0.56,4,2.2,37.2,0.92,0.08,0,0.37
1697352698.5,0.1,0.56,0.56,4,2.2,37.2,0.92,0.08,0,0.37
1697352698.51,0.1,0.56,0.56,4,2.2,37.2,0.92,0.08,0,0.37
1697352698.52,0.1,0.56,0.56,4,2.2,37.2,0.92,0.08,0,0.37
1697352698.53,0.1,0.56,0.56,4,2.2,37.2,0.92,0.08,0,0.37
1697352698.54,0.1,0.56,0.56,4,2.2,37.2,0.92,0.08,0,0.37
1697352698.55,0.1,0.56,0.56,4,2.2,37.2,0.92,0.08,0,0.37
1697352698.56,0.1,0.56,0.56,4,2.2,37.2,0.92,0.08,0,0.37
1697352698.57,0.1,0.56,0.56,4,2.2,37.2,0.92,0.08,0,0.37
1697352698.58,0.1,0.56,0.56,4,2.2,37.2,0.92,0.08,0,0.37
1697352698.59,0.1,0.56,0.56,4,2.2,37.2,0.92,0.08,0,0.37
1697352698.6,0.1,0.56,0.56,4,2.2,37.2,0.92,0.08,0,0.37
1697352698.61,0.1,0.56,0.56,4,2.2,37.2,0.92,0.08,0,0.37
1697352698.62,-0.06,1.03,0.35,4.1,5.9,47.2,0.91,0.08,0,0.41
1697352698.63,-0.06,1.03,0.35,4.1,5.9,47.2,0.91,0.08,0,0.41
1697352698.64,-0.09,0.85,1.03,7.8,4.6,52.1,0.9,0.08,0,0.43
1697352698.65,-0.09,0.85,1.03,7.8,4.6,52.1,0.9,0.08,0,0.43
1697352698.66,-0.14,0.87,1.27,4.8,1.8,56,0.9,0.08,0,0.43
1697352698.67,-0.14,0.87,1.27,4.8,1.8,56,0.9,0.08,0,0.43
1697352698.68,-0.42,0.83,0.81,3,-0.1,58,0.89,0.08,0,0.44
1697352698.69,-0.54,0.83,0.8,3,-0.1,58,0.89,0.08,0,0.44
1697352698.7,-0.61,0.81,0.98,2.7,0.9,56.8,0.89,0.08,0,0.45
1697352698.71,-0.44,0.83,1.08,2.7,0.9,56.8,0.89,0.08,0,0.45
1697352698.72,-0.39,0.93,1.23,1.8,2.6,54.3,0.88,0.08,0,0.46
1697352698.73,-0.1,0.92,1.05,1.1,3,53.8,0.88,0.08,0,0.47
1697352698.74,-0.17,0.92,0.83,0.3,2.3,55.4,0.88,0.08,0,0.47
1697352698.75,-0.12,0.93,1.18,-0.2,1.6,56.2,0.88,0.08,0,0.47
1697352698.76,-0.12,0.93,1.18,-0.2,1.6,56.2,0.88,0.08,0,0.47
1697352698.77,-0.17,0.79,1.56,-0.9,0.2,57.4,0.87,0.08,0,0.48
1697352698.78,-0.17,0.79,1.56,-0.9,0.2,57.4,0.87,0.08,-0,0.48
1697352698.79,-0.08,0.86,0.59,-1.7,-0.5,58,0.87,0.08,-0,0.49
1697352698.8,0.01,0.88,1.11,-1.4,-1,58.1,0.87,0.08,-0,0.49
1697352698.81,-0.17,0.9,0.93,0,-1.2,58.3,0.86,0.08,-0,0.5
1697352698.82,-0.18,0.93,1.03,2.3,-1,58.3,0.86,0.08,-0,0.5
1697352698.83,-0.2,0.94,0.84,4.3,-1,58.6,0.86,0.08,-0,0.51
1697352698.84,-0.13,0.88,0.66,5.6,-0.8,58.7,0.86,0.08,-0,0.51
1697352698.85,-0.24,0.8,1.32,5.3,-0.4,58.9,0.85,0.08,-0,0.51
1697352698.86,-0.14,0.83,0.84,4.1,0,59.4,0.85,0.08,-0,0.52
1697352698.87,-0.02,0.82,0.41,2.2,0.5,60,0.85,0.08,-0,0.52
1697352698.88,-0.34,0.95,1.51,0.8,0.6,60.6,0.85,0.08,-0,0.53
1697352698.89,-0.19,1,1.17,1,1,61.4,0.84,0.08,-0,0.53
1697352698.9,-0.12,0.96,0.84,1.6,1.1,62.2,0.84,0.08,-0,0.54
1697352698.91,-0.24,1.01,0.92,1.9,0.7,62.9,0.84,0.08,-0,0.54
1697352698.92,-0.15,0.93,1.09,2,0.6,63.5,0.83,0.08,-0.01,0.55
1697352698.93,-0.12,0.86,0.86,1.4,0.1,63.3,0.83,0.08,-0.01,0.55
1697352698.94,-0.32,0.68,0.9,-1.7,-0.2,63.3,0.83,0.08,-0.01,0.56
1697352698.95,-0.33,0.84,0.91,-4.4,0.3,62.8,0.82,0.08,-0.01,0.56
1697352698.96,-0.18,0.94,1.04,-5,1.1,62.4,0.82,0.08,-0.01,0.57
1697352698.97,-0.18,1.08,0.91,-2.9,1.6,62.3,0.82,0.08,-0.01,0.57
1697352698.98,-0.15,1.11,0.87,0.8,1.8,62.5,0.81,0.08,-0.01,0.58
1697352698.99,-0.05,0.89,1.13,2.2,1.7,62.4,0.81,0.08,-0.01,0.58
1697352699,-0.07,0.82,1.12,2,1.6,62.4,0.81,0.08,-0.01,0.58
1697352699.01,-0.2,0.84,1.2,-0.6,0.8,62.7,0.81,0.08,-0.01,0.58
1697352699.02,-0.2,0.84,1.2,-0.6,0.8,62.7,0.8,0.08,-0.01,0.59
1697352699.03,-0.2,0.84,1.2,-0.6,0.8,62.7,0.8,0.08,-0.01,0.59
1697352699.04,-0.2,0.84,1.2,-0.6,0.8,62.7,0.8,0.08,-0.01,0.59
1697352699.05,-0.2,0.84,1.2,-0.6,0.8,62.7,0.8,0.08,-0.01,0.59
1697352699.06,-0.2,0.84,1.2,-0.6,0.8,62.7,0.8,0.08,-0.01,0.59
1697352699.07,-0.2,0.84,1.2,-0.6,0.8,62.7,0.8,0.08,-0.01,0.59
1697352699.08,-0.2,0.84,1.2,-0.6,0.8,62.7,0.8,0.08,-0.01,0.59
1697352699.09,-0.2,0.84,1.2,-0.6,0.8,62.7,0.8,0.08,-0.01,0.59
1697352699.1,-0.2,0.84,1.2,-0.6,0.8,62.7,0.8,0.08,-0.01,0.59
1697352699.11,-0.2,0.84,1.2,-0.6,0.8,62.7,0.8,0.08,-0.01,0.59
1697352699.12,-0.2,0.84,1.2,-0.6,0.8,62.7,0.8,0.08,-0.01,0.59
1697352699.13,-0.2,0.84,1.2,-0.6,0.8,62.7,0.8,0.08,-0.01,0.59
1697352699.14,-0.2,0.84,1.2,-1.5,4.4,65.1,0.76,0.08,-0.01,0.64
1697352699.15,0.04,0.87,0.52,0.6,2.1,66,0.76,0.08,-0.01,0.65
1697352699.16,0.04,0.87,0.52,0.6,2.1,66,0.75,0.08,-0.01,0.65
1697352699.17,-0.07,0.85,1.26,1.2,1.4,66.5,0.75,0.08,-0.01,0.66
1697352699.18,-0.07,0.85,1.26,1.5,0.9,66.8,0.75,0.08,-0.02,0.66
1697352699.19,-0.1,0.92,1.03,0.7,0.8,66.6,0.74,0.08,-0.02,0.66
1697352699.2,-0.1,0.92,1.03,0.2,0.7,66.8,0.74,0.08,-0.02,0.67
1697352699.21,-0.05,1.02,0.48,0.2,0.6,66.5,0.74,0.08,-0.02,0.67
1697352699.22,-0.04,1.02,1.01,-0.5,0.5,66,0.73,0.08,-0.02,0.68
1697352699.23,-0.04,0.98,0.85,-0.6,0.6,65.6,0.73,0.08,-0.02,0.68
1697352699.24,-0.08,1.03,0.91,-0.3,0.8,65.2,0.72,0.08,-0.02,0.69
1697352699.25,-0.14,1.04,1.6,-0.3,1.1,64.8,0.72,0.08,-0.02,0.69
1697352699.26,-0.04,0.99,0.59,0.1,1.9,64.7,0.72,0.08,-0.02,0.69
1697352699.27,-0.12,0.98,0.77,0.6,2.6,64.8,0.71,0.08,-0.02,0.7
1697352699.28,-0.25,0.91,1.61,0.3,2.8,64.8,0.71,0.08,-0.02,0.7
1697352699.29,0.01,0.9,0.79,-0.5,3.1,65.1,0.71,0.08,-0.02,0.7
1697352699.3,-0.05,0.97,0.58,-1.5,2.8,65.4,0.7,0.08,-0.02,0.71
1697352699.31,-0.16,1.01,1.43,-1.1,2.5,65.6,0.7,0.08,-0.02,0.71
1697352699.32,-0.03,0.89,1,0.4,2.1,66,0.69,0.08,-0.02,0.71
1697352699.33,-0.02,0.89,1.07,1.1,1.8,66.3,0.69,0.08,-0.02,0.72
1697352699.34,-0.09,0.83,1.21,0.1,1.2,66.2,0.69,0.08,-0.02,0.72
1697352699.35,0.02,0.85,0.49,-0.6,0.8,66.1,0.68,0.08,-0.02,0.73
1697352699.36,-0.05,0.93,1.13,-0.9,0.3,66,0.68,0.08,-0.02,0.73
1697352699.37,-0.04,0.98,1.14,-0.2,-0.1,66,0.67,0.08,-0.02,0.73
1697352699.38,-0.04,0.84,0.42,1.2,-0.2,66,0.67,0.08,-0.02,0.74
1697352699.39,-0.15,0.92,1.31,1.9,0,65.9,0.66,0.08,-0.02,0.74
1697352699.4,-0.14,0.85,0.93,0.6,0.7,65.6,0.66,0.08,-0.02,0.75
1697352699.41,-0.11,0.9,0.79,0.6,0.7,65.6,0.66,0.08,-0.02,0.75
1697352699.42,-0.16,0.9,1.65,-1.3,1.9,65.1,0.65,0.08,-0.02,0.76
1697352699.43,-0.05,0.97,0.9,-1.3,1.9,65.1,0.64,0.08,-0.02,0.76
1697352699.44,0.04,0.91,0.46,-1.4,3.1,64.1,0.64,0.08,-0.02,0.77
1697352699.45,-0.04,0.88,1.41,-0.5,3.5,63.2,0.63,0.07,-0.03,0.77
1697352699.46,0.01,0.79,1.29,-0.5,3.5,63.2,0.63,0.07,-0.03,0.77
1697352699.47,0.03,0.71,1.41,-0.7,3.3,60.1,0.63,0.07,-0.03,0.77
1697352699.48,0,0.58,1.31,-0.7,3.3,60.1,0.62,0.07,-0.03,0.78
1697352699.49,0,0.58,1.31,-2.3,2.6,58.1,0.62,0.07,-0.03,0.78
1697352699.5,0.15,0.69,1.28,-3.3,1.6,56.2,0.61,0.07,-0.03,0.79
1697352699.51,0.15,0.69,1.28,-2.8,1.2,54.1,0.61,0.07,-0.03,0.79
1697352699.52,0.15,0.67,0.68,-1.4,0.1,52.3,0.61,0.07,-0.03,0.79
1697352699.53,0.15,0.67,0.68,0.4,-0.1,50.5,0.61,0.07,-0.03,0.79
1697352699.54,0.15,0.67,0.68,0.4,-0.1,50.5,0.61,0.07,-0.03,0.79
1697352699.55,0.15,0.67,0.68,0.4,-0.1,50.5,0.61,0.07,-0.03,0.79
1697352699.56,0.15,0.67,0.68,0.4,-0.1,50.5,0.61,0.07,-0.03,0.79
1697352699.57,0.15,0.67,0.68,0.4,-0.1,50.5,0.61,0.07,-0.03,0.79
1697352699.58,0.15,0.67,0.68,0.4,-0.1,50.5,0.61,0.07,-0.03,0.79
1697352699.59,0.15,0.67,0.68,0.4,-0.1,50.5,0.61,0.07,-0.03,0.79
1697352699.6,0.15,0.67,0.68,0.4,-0.1,50.5,0.61,0.07,-0.03,0.79
1697352699.61,0.15,0.67,0.68,0.4,-0.1,50.5,0.61,0.07,-0.03,0.79
1697352699.62,0.15,0.67,0.68,0.4,-0.1,50.5,0.61,0.07,-0.03,0.79
1697352699.63,0.15,0.67,0.68,0.4,-0.1,50.5,0.61,0.07,-0.03,0.79
1697352699.64,0.15,0.67,0.68,0.4,-0.1,50.5,0.61,0.07,-0.03,0.79
1697352699.65,0.15,0.67,0.68,0.4,-0.1,50.5,0.61,0.07,-0.03,0.79
1697352699.66,0.15,0.67,0.68,0.4,-0.1,50.5,0.61,0.07,-0.03,0.79
1697352699.67,0.15,0.67,0.68,0.4,-0.1,50.5,0.61,0.07,-0.03,0.79
1697352699.68,0.15,0.67,0.68,0.4,-0.1,50.5,0.61,0.07,-0.03,0.79
1697352699.69,0.15,0.67,0.68,0.4,-0.1,50.5,0.61,0.07,-0.03,0.79
1697352699.7,0.15,0.67,0.68,0.4,-0.1,50.5,0.61,0.07,-0.03,0.79
1697352699.71,0.15,0.67,0.68,0.4,-0.1,50.5,0.61,0.07,-0.03,0.79
1697352699.72,0.15,0.67,0.68,0.4,-0.1,50.5,0.61,0.07,-0.03,0.79
1697352699.73,0.15,0.67,0.68,0.4,-0.1,50.5,0.61,0.07,-0.03,0.79
1697352699.74,0.15,0.67,0.68,0.4,-0.1,50.5,0.61,0.07,-0.03,0.79
1697352699.75,0.15,0.67,0.68,0.4,-0.1,50.5,0.61,0.07,-0.03,0.79
1697352699.76,0.15,0.67,0.68,0.4,-0.1,50.5,0.61,0.07,-0.03,0.79
1697352699.77,0.15,0.67,0.68,0.4,-0.1,50.5,0.61,0.07,-0.03,0.79
1697352699.78,0.15,0.67,0.68,0.4,-0.1,50.5,0.61,0.07,-0.03,0.79
1697352699.79,0.15,0.67,0.68,0.4,-0.1,50.5,0.61,0.07,-0.03,0.79
1697352699.8,0.15,0.67,0.68,0.4,-0.1,50.5,0.61,0.07,-0.03,0.79
1697352699.81,0.15,0.67,0.68,0.4,-0.1,50.5,0.61,0.07,-0.03,0.79
1697352699.82,-0.01,0.21,1.24,-2.9,1.7,27.6,0.51,0.07,-0.04,0.85
1697352699.83,-0.01,0.21,1.24,-2.9,1.7,27.6,0.51,0.07,-0.04,0.85
1697352699.84,0.09,0.23,1.26,-3.8,3.1,25.6,0.51,0.07,-0.04,0.86
1697352699.85,0.14,0.24,1.05,-3.4,3.1,25,0.51,0.07,-0.04,0.86
1697352699.86,0,0.11,1.39,-3.4,3.1,25,0.5,0.07,-0.04,0.86
1697352699.87,0.14,0.13,0.54,-3,2.8,23,0.5,0.07,-0.04,0.86
1697352699.88,0.03,0.06,1.54,-2.5,2.5,21,0.5,0.06,-0.04,0.86
1697352699.89,0.03,0.06,1.54,-2.5,2.5,21,0.5,0.06,-0.04,0.86
1697352699.9,0.06,-0.06,0.56,-3.3,2.5,18.8,0.5,0.06,-0.04,0.86
1697352699.91,0.06,-0.06,0.56,-4.9,2.2,16.7,0.5,0.06,-0.04,0.86
1697352699.92,-0.08,0.13,0.87,-5,2.2,14.6,0.5,0.06,-0.04,0.86
1697352699.93,-0.08,0.13,0.87,-3.7,2.2,13.3,0.5,0.06,-0.04,0.86
1697352699.94,-0.02,0.07,1.37,0,1.6,12.2,0.49,0.06,-0.04,0.87
1697352699.95,0.09,-0.01,1.01,1.7,0.9,11.6,0.49,0.06,-0.04,0.87
1697352699.96,-0.11,-0.09,1.37,1.5,-0.2,11,0.49,0.06,-0.04,0.87
1697352699.97,-0.04,0.15,0.64,-1.8,-1.3,10.6,0.49,0.06,-0.04,0.87
1697352699.98,-0.08,0.04,1.54,-4.2,-1.9,10.1,0.49,0.06,-0.04,0.87
1697352699.99,-0.06,0.1,0.86,-4.7,-2.1,9.8,0.49,0.06,-0.04,0.87
1697352700,0.1,0.01,0.6,-3.4,-1.8,9,0.49,0.06,-0.04,0.87
1697352700.01,0.1,0.01,0.6,-1.2,-1.2,7.4,0.49,0.06,-0.04,0.87
1697352700.02,-0.13,-0.23,1.47,-0.1,-0.6,5.1,0.49,0.06,-0.04,0.87
1697352700.03,-0.13,-0.36,0.58,-0.9,-0.2,2.2,0.49,0.06,-0.04,0.87
1697352700.04,-0,-0.45,1.38,-2.6,0.3,-1,0.49,0.06,-0.04,0.87
1697352700.05,-0.14,-0.37,1.64,-3.7,0.6,-4,0.49,0.06,-0.04,0.87
1697352700.06,-0.14,-0.37,1.64,-4.4,0.4,-6.9,0.49,0.06,-0.04,0.87
1697352700.07,-0.04,-0.4,0.3,-4.2,1.1,-9.4,0.49,0.06,-0.04,0.87
1697352700.08,0.09,-0.46,1.25,-4.2,1.1,-9.4,0.49,0.06,-0.04,0.87
1697352700.09,-0.21,-0.45,1.13,-4,0.4,-13.7,0.49,0.06,-0.04,0.87
1697352700.1,0.08,-0.45,0.28,-4.9,0.2,-16.2,0.49,0.06,-0.04,0.87
1697352700.11,-0.1,-0.64,0.62,-5.9,0.6,-18,0.49,0.06,-0.04,0.87
1697352700.12,-0.06,-0.55,0.79,-5.9,0.6,-18,0.5,0.06,-0.04,0.87
1697352700.13,-0.2,-0.71,1.62,-6.1,0.2,-22.1,0.5,0.06,-0.05,0.86
1697352700.14,-0.1,-0.59,0.38,-6.1,0.2,-22.1,0.5,0.06,-0.05,0.86
1697352700.15,-0.11,-0.77,1.56,-5.6,0.3,-24,0.5,0.06,-0.05,0.86
1697352700.16,-0.14,-0.7,0.65,-5,0.1,-26.3,0.5,0.06,-0.05,0.86
1697352700.17,-0.1,-0.73,1.31,-4.5,-0.5,-30.4,0.51,0.06,-0.05,0.86
1697352700.18,0.09,-0.52,0.74,-4.5,-0.5,-30.4,0.51,0.06,-0.05,0.86
1697352700.19,-0.06,-0.58,1.47,-4.3,-0.7,-31.8,0.51,0.06,-0.05,0.86
1697352700.2,0.12,-0.55,1.22,-2,-1.1,-32.4,0.51,0.06,-0.05,0.86
1697352700.21,0.12,-0.55,1.22,-0.2,-0.8,-32.4,0.51,0.06,-0.05,0.86
1697352700.22,0.12,-0.55,1.22,-0.2,-0.8,-32.4,0.51,0.06,-0.05,0.86
1697352700.23,0.12,-0.55,1.22,-0.2,-0.8,-32.4,0.51,0.06,-0.05,0.86
1697352700.24,0.12,-0.55,1.22,-0.2,-0.8,-32.4,0.51,0.06,-0.05,0.86
1697352700.25,0.12,-0.55,1.22,-0.2,-0.8,-32.4,0.51,0.06,-0.05,0.86
1697352700.26,0.12,-0.55,1.22,-0.2,-0.8,-32.4,0.51,0.06,-0.05,0.86
1697352700.27,0.12,-0.55,1.22,-0.2,-0.8,-32.4,0.51,0.06,-0.05,0.86
1697352700.28,0.12,-0.55,1.22,-0.2,-0.8,-32.4,0.51,0.06,-0.05,0.86
1697352700.29,0.12,-0.55,1.22,-0.2,-0.8,-32.4,0.51,0.06,-0.05,0.86
1697352700.3,0.12,-0.55,1.22,-0.2,-0.8,-32.4,0.51,0.06,-0.05,0.86
1697352700.31,0.12,-0.55,1.22,-0.2,-0.8,-32.4,0.51,0.06,-0.05,0.86
1697352700.32,0.12,-0.55,1.22,-0.2,-0.8,-32.4,0.51,0.06,-0.05,0.86
1697352700.33,0.12,-0.55,1.22,-0.2,-0.8,-32.4,0.51,0.06,-0.05,0.86
1697352700.34,-0.03,-0.71,0.8,0,-1.3,-44.7,0.55,0.06,-0.04,0.83
1697352700.35,-0.03,-0.71,0.8,0.9,-1.6,-45,0.55,0.06,-0.04,0.83
1697352700.36,-0.04,-0.7,1.27,0.6,-1.4,-45.2,0.56,0.06,-0.04,0.83
1697352700.37,-0.31,-0.69,0.89,0,-1,-45,0.56,0.06,-0.04,0.82
1697352700.38,-0.09,-0.76,1.01,-0.8,0,-44.7,0.56,0.06,-0.04,0.82
1697352700.39,-0.1,-0.63,1.07,-1.1,0.9,-44.2,0.57,0.06,-0.04,0.82
1697352700.4,0.03,-0.7,1.25,-1.6,2.2,-43.3,0.57,0.06,-0.04,0.82
1697352700.41,-0.19,-0.67,1.07,-1.6,2.2,-43.3,0.57,0.06,-0.04,0.82
1697352700.42,0,-0.61,0.75,-0.3,3.2,-42.9,0.58,0.06,-0.04,0.81
1697352700.43,-0.03,-0.83,1.29,-0.3,3.2,-42.9,0.58,0.06,-0.04,0.81
1697352700.44,-0.05,-0.74,0.77,-0.5,2.5,-43.1,0.58,0.06,-0.04,0.81
1697352700.45,0.22,-0.66,1.09,-0.1,1.7,-43.4,0.59,0.06,-0.04,0.81
1697352700.46,-0.16,-0.96,1.24,-0.1,1.7,-43.4,0.59,0.06,-0.04,0.81
1697352700.47,0.07,-0.74,0.91,0.4,0.9,-45.7,0.59,0.06,-0.04,0.8
1697352700.48,-0.05,-0.71,0.7,0.4,0.9,-45.7,0.6,0.06,-0.04,0.8
1697352700.49,0.14,-0.93,0.77,0,1.1,-45.9,0.6,0.06,-0.04,0.8
1697352700.5,-0.06,-0.92,1.32,0.5,0.5,-46.5,0.6,0.06,-0.04,0.79
1697352700.51,-0.08,-0.99,0.64,0.4,0,-48.3,0.61,0.06,-0.04,0.79
1697352700.52,0.04,-0.84,1.27,-1.5,-0.5,-49.6,0.61,0.06,-0.04,0.79
1697352700.53,-0.12,-0.84,0.9,-3.2,-1.5,-51.2,0.61,0.06,-0.04,0.79
1697352700.54,0.1,-0.82,1.11,-4.4,-1.6,-52.1,0.62,0.06,-0.04,0.78
1697352700.55,-0.08,-0.73,1.09,-4,-1.5,-53.1,0.62,0.06,-0.04,0.78
1697352700.56,0.09,-0.8,1,-2.6,-1.5,-53.7,0.62,0.06,-0.04,0.78
1697352700.57,-0.12,-0.81,0.88,-1.6,-0.8,-53.2,0.63,0.06,-0.04,0.77
1697352700.58,-0,-0.98,0.96,-0.3,-0.5,-53.1,0.63,0.06,-0.04,0.77
1697352700.59,-0,-0.9,0.95,-0.4,0,-53,0.64,0.06,-0.04,0.77
1697352700.6,-0.05,-0.91,0.96,-2,0.8,-53.1,0.64,0.06,-0.04,0.77
1697352700.61,-0.1,-0.71,0.91,-2.9,1.3,-53.2,0.64,0.06,-0.04,0.76
1697352700.62,0.1,-0.87,0.83,-2.9,1.6,-53.4,0.65,0.06,-0.04,0.76
1697352700.63,0.04,-0.88,0.97,-0.4,2.2,-53.6,0.65,0.06,-0.04,0.76
1697352700.64,-0.09,-0.91,0.81,3,2.1,-53.8,0.65,0.06,-0.04,0.75
1697352700.65,0.21,-0.95,0.69,2.1,1.2,-53.4,0.66,0.06,-0.04,0.75
1697352700.66,0.07,-1.03,0.91,2.4,0.8,-54,0.66,0.06,-0.04,0.75
1697352700.67,0.07,-0.88,1.17,0.9,0.2,-54.2,0.66,0.06,-0.04,0.75
1697352700.68,0.07,-0.88,1.17,-1.8,-0.5,-54.2,0.66,0.06,-0.04,0.74
1697352700.69,0.13,-0.83,0.86,-2.5,-1.6,-54.2,0.67,0.06,-0.04,0.74
1697352700.7,-0.14,-0.72,1.1,-0.7,-2,-53.7,0.67,0.06,-0.04,0.74
1697352700.71,-0.14,-0.72,1.1,1.1,-2.1,-53.6,0.68,0.07,-0.04,0.73
1697352700.72,-0.1,-0.9,1.11,2.1,-1.9,-53.5,0.68,0.07,-0.04,0.73
1697352700.73,-0.1,-0.9,1.11,2.1,-1.9,-53.5,0.68,0.07,-0.04,0.73
1697352700.74,-0.1,-0.9,1.11,2.1,-1.9,-53.5,0.68,0.07,-0.04,0.73
1697352700.75,-0.1,-0.9,1.11,2.1,-1.9,-53.5,0.68,0.07,-0.04,0.73
1697352700.76,-0.1,-0.9,1.11,2.1,-1.9,-53.5,0.68,0.07,-0.04,0.73
1697352700.77,-0.1,-0.9,1.11,2.1,-1.9,-53.5,0.68,0.07,-0.04,0.73
1697352700.78,-0.1,-0.9,1.11,2.1,-1.9,-53.5,0.68,0.07,-0.04,0.73
1697352700.79,-0.1,-0.9,1.11,2.1,-1.9,-53.5,0.68,0.07,-0.04,0.73
1697352700.8,-0.1,-0.9,1.11,2.1,-1.9,-53.5,0.68,0.07,-0.04,0.73
1697352700.81,-0.1,-0.9,1.11,2.1,-1.9,-53.5,0.68,0.07,-0.04,0.73
1697352700.82,-0.1,-0.9,1.11,2.1,-1.9,-53.5,0.68,0.07,-0.04,0.73
1697352700.83,-0.1,-0.9,1.11,2.1,-1.9,-53.5,0.68,0.07,-0.04,0.73
1697352700.84,-0.1,-0.9,1.11,2.1,-1.9,-53.5,0.68,0.07,-0.04,0.73
1697352700.85,-0.1,-0.9,1.11,2.1,-1.9,-53.5,0.68,0.07,-0.04,0.73
1697352700.86,0.12,-0.94,0.9,2.4,0.1,-54.4,0.73,0.07,-0.03,0.68
1697352700.87,-0.04,-0.88,1.03,0.6,0,-54.2,0.73,0.07,-0.03,0.68
1697352700.88,0.15,-1,0.92,0.6,0,-54.2,0.73,0.07,-0.03,0.68
1697352700.89,-0.11,-0.83,1.03,-0.7,0.7,-54,0.74,0.07,-0.03,0.67
1697352700.9,0.08,-0.78,0.91,0.5,1.5,-53.5,0.74,0.07,-0.03,0.67
1697352700.91,-0.01,-0.93,0.75,0.7,1.6,-53.6,0.74,0.07,-0.03,0.67
1697352700.92,0.14,-1.07,0.97,-0.7,1.2,-54.1,0.75,0.07,-0.03,0.66
1697352700.93,0.08,-0.86,0.94,-0.5,0.2,-54.6,0.75,0.07,-0.03,0.66
1697352700.94,0.07,-0.95,0.81,-1,-0.4,-54.4,0.75,0.07,-0.03,0.66
1697352700.95,-0,-0.79,0.97,-1.1,-0.2,-54.8,0.76,0.07,-0.03,0.65
1697352700.96,0.08,-0.87,0.95,-1.1,-0.2,-54.8,0.76,0.07,-0.03,0.65
1697352700.97,-0.02,-0.69,0.9,0,0.3,-54.4,0.76,0.07,-0.03,0.64
1697352700.98,0.03,-0.81,1.15,0,0.3,-54.4,0.76,0.07,-0.03,0.64
1697352700.99,-0.06,-0.88,0.93,1.4,0.8,-54.7,0.77,0.07,-0.03,0.64
1697352701,-0.01,-0.92,0.83,1.4,0.8,-54.7,0.77,0.07,-0.02,0.63
1697352701.01,-0.01,-0.92,0.83,1,0.7,-54.8,0.77,0.07,-0.02,0.63
1697352701.02,0.07,-0.69,0.65,-1,2,-54.3,0.78,0.07,-0.02,0.63
1697352701.03,0.16,-0.66,0.99,-1,2,-54.3,0.78,0.07,-0.02,0.62
1697352701.04,0.1,-0.67,0.77,4,1.6,-52.8,0.78,0.07,-0.02,0.62
1697352701.05,0.13,-0.77,1.1,4,1.6,-52.8,0.78,0.07,-0.02,0.62
1697352701.06,0.13,-0.77,1.1,5.4,1,-51.4,0.79,0.07,-0.02,0.61
1697352701.07,0.16,-0.79,0.66,4.1,0.1,-50,0.79,0.07,-0.02,0.61
1697352701.08,0.15,-0.5,1.05,0.9,-0.7,-48.7,0.79,0.07,-0.02,0.61
1697352701.09,0.23,-0.37,0.77,-0.8,-1.4,-46.4,0.79,0.07,-0.02,0.6
1697352701.1,0.07,-0.18,1.09,-0.8,-1.8,-43.1,0.8,0.07,-0.02,0.6
1697352701.11,0.07,-0.18,1.09,3.3,-1.1,-38.3,0.8,0.07,-0.02,0.6
1697352701.12,0.02,-0.46,1.04,5.9,0.1,-34.5,0.8,0.07,-0.02,0.59
1697352701.13,0.02,-0.46,1.04,4.2,1.5,-31.7,0.8,0.07,-0.02,0.59
1697352701.14,0.24,-0.39,0.76,0.6,2.9,-29.8,0.8,0.07,-0.02,0.59
1697352701.15,-0.02,-0.3,1.28,-1.1,4.1,-28.5,0.81,0.07,-0.02,0.59
1697352701.16,0.24,-0.21,0.83,0.3,4.5,-27.9,0.81,0.07,-0.02,0.59
1697352701.17,0.04,-0.25,1.19,3.2,4.6,-27.6,0.81,0.07,-0.02,0.58
1697352701.18,0.34,-0.31,0.89,5.4,4.1,-27.4,0.81,0.07,-0.02,0.58
1697352701.19,0.13,-0.34,1.02,5.4,3.2,-27.3,0.81,0.07,-0.02,0.58
1697352701.2,0.24,-0.24,0.82,3,2.3,-26.7,0.81,0.07,-0.02,0.58
1697352701.21,-0.04,-0.04,1.06,0.9,0.9,-25.4,0.81,0.07,-0.02,0.58
1697352701.22,0.23,-0,0.47,-0.2,0.3,-23.6,0.81,0.07,-0.02,0.58
1697352701.23,-0.08,-0.1,1.26,0.1,-0.1,-22,0.82,0.07,-0.01,0.57
1697352701.24,0.09,-0.18,0.95,0.4,0,-20.3,0.82,0.07,-0.01,0.57
1697352701.25,0.02,-0.19,0.92,0.1,0.8,-19.1,0.82,0.07,-0.01,0.57
1697352701.26,0.02,-0.19,0.92,0.1,0.8,-19.1,0.82,0.07,-0.01,0.57
1697352701.27,0.02,-0.19,0.92,0.1,0.8,-19.1,0.82,0.07,-0.01,0.57
1697352701.28,0.02,-0.19,0.92,0.1,0.8,-19.1,0.82,0.07,-0.01,0.57
1697352701.29,0.02,-0.19,0.92,0.1,0.8,-19.1,0.82,0.07,-0.01,0.57
1697352701.3,0.02,-0.19,0.92,0.1,0.8,-19.1,0.82,0.07,-0.01,0.57
1697352701.31,0.02,-0.19,0.92,0.1,0.8,-19.1,0.82,0.07,-0.01,0.57
1697352701.32,0.02,-0.19,0.92,0.1,0.8,-19.1,0.82,0.07,-0.01,0.57
1697352701.33,0.02,-0.19,0.92,0.1,0.8,-19.1,0.82,0.07,-0.01,0.57
1697352701.34,0.02,-0.19,0.92,0.1,0.8,-19.1,0.82,0.07,-0.01,0.57
1697352701.35,0.02,-0.19,0.92,0.1,0.8,-19.1,0.82,0.07,-0.01,0.57
1697352701.36,0.02,-0.19,0.92,0.1,0.8,-19.1,0.82,0.07,-0.01,0.57
1697352701.37,0.02,-0.19,0.92,0.1,0.8,-19.1,0.82,0.07,-0.01,0.57
1697352701.38,0.05,0.75,0.64,0.1,0.8,-19.1,0.82,0.07,-0.01,0.57
1697352701.39,0.06,0.71,1.01,10.2,0,23.8,0.82,0.08,-0.01,0.57
1697352701.4,0.09,0.67,1.2,8.8,-0.3,25.9,0.82,0.08,-0.01,0.57
1697352701.41,-0.09,0.73,1.09,6.9,-0.6,27.3,0.82,0.08,-0.01,0.57
1697352701.42,0.09,0.77,1.14,5.3,-1.6,28.6,0.82,0.08,-0.01,0.57
1697352701.43,0.14,0.68,0.91,4,-1.7,29.7,0.81,0.08,-0.01,0.58
1697352701.44,-0.01,0.79,1.01,3.5,-1.8,30.4,0.81,0.08,-0.01,0.58
1697352701.45,0.11,0.71,1.06,2.9,-1.8,30.8,0.81,0.08,-0.01,0.58
1697352701.46,0.11,0.71,1.06,2.9,-1.8,30.8,0.81,0.08,-0.01,0.58
1697352701.47,0.19,0.64,0.64,1.5,-0.8,30.6,0.81,0.08,-0.01,0.58
1697352701.48,0.1,0.65,1.24,1.5,-0.8,30.6,0.81,0.08,-0.01,0.59
1697352701.49,0.16,0.58,0.82,0.3,0.4,30.2,0.8,0.08,-0.01,0.59
1697352701.5,0.06,0.57,0.96,-0.7,0.8,30.1,0.8,0.08,-0.01,0.59
1697352701.51,0.06,0.57,0.96,-0.7,0.8,30.1,0.8,0.08,-0.01,0.59
1697352701.52,0.04,0.69,0.86,-1.6,2,29.9,0.8,0.08,-0.01,0.59
1697352701.53,0.12,0.65,0.97,-1.6,2,29.9,0.8,0.08,-0.01,0.6
1697352701.54,0.12,0.65,0.97,-0.6,1.6,30.5,0.8,0.08,-0.01,0.6
1697352701.55,0.1,0.61,0.89,-0.1,1.8,31.2,0.79,0.08,-0.01,0.6
1697352701.56,0.04,0.61,0.9,0.3,1.9,32,0.79,0.08,-0.01,0.6
1697352701.57,0.14,0.61,1.07,0.5,2.1,33.6,0.79,0.08,-0.01,0.61
1697352701.58,0.13,0.62,0.84,0,2.1,34.8,0.79,0.08,-0.01,0.61
1697352701.59,0.01,0.57,1.27,0,1.8,35.8,0.79,0.08,-0.01,0.61
1697352701.6,0.19,0.66,0.81,0.7,1.6,36.6,0.79,0.08,-0.01,0.61
1697352701.61,0.11,0.59,0.92,0.9,1.3,37.3,0.79,0.08,-0.01,0.61
1697352701.62,0.07,0.61,1.02,1.4,1,37.6,0.78,0.08,-0.01,0.62
1697352701.63,0.17,0.5,1.01,1.5,0.8,37.5,0.78,0.08,-0.01,0.62
1697352701.64,0.13,0.59,0.72,0.5,0.4,37.4,0.78,0.08,-0.01,0.62
1697352701.65,0.14,0.75,0.96,0.4,0,37.2,0.78,0.08,-0.01,0.62
1697352701.66,0.12,0.7,1.23,2.1,-0.6,36.9,0.77,0.08,-0.01,0.63
1697352701.67,0.17,0.55,0.74,2.9,-1.2,36.3,0.77,0.08,-0.01,0.63
1697352701.68,0.08,0.58,1.41,1.8,-1.8,35.4,0.77,0.08,-0.01,0.63
1697352701.69,0.15,0.51,0.79,0,-1.9,34.8,0.77,0.08,-0.01,0.63
1697352701.7,0.05,0.56,1.01,-1.3,-1.8,33.8,0.77,0.08,-0.01,0.64
1697352701.71,0.12,0.59,0.86,-1.7,-1.3,32.8,0.76,0.08,-0.02,0.64
1697352701.72,0.14,0.61,0.93,-1.7,-1.3,32.8,0.76,0.08,-0.02,0.64
1697352701.73,0.15,0.61,0.86,-1,-0.3,31.4,0.76,0.08,-0.02,0.64
1697352701.74,0.06,0.55,1.38,-0.6,0,30.9,0.76,0.08,-0.02,0.65
1697352701.75,0.33,0.53,0.47,-0.5,0.4,30.7,0.76,0.08,-0.02,0.65
1697352701.76,0.12,0.43,1.06,-0.5,0.4,30.7,0.76,0.08,-0.02,0.65
1697352701.77,0.12,0.43,1.06,0,0.8,30.6,0.75,0.08,-0.02,0.65
1697352701.78,0.12,0.43,1.06,0,0.8,30.6,0.75,0.08,-0.02,0.65
1697352701.79,0.12,0.43,1.06,0,0.8,30.6,0.75,0.08,-0.02,0.65
1697352701.8,0.12,0.43,1.06,0,0.8,30.6,0.75,0.08,-0.02,0.65
1697352701.81,0.12,0.43,1.06,0,0.8,30.6,0.75,0.08,-0.02,0.65
1697352701.82,0.12,0.43,1.06,0,0.8,30.6,0.75,0.08,-0.02,0.65
1697352701.83,0.12,0.43,1.06,0,0.8,30.6,0.75,0.08,-0.02,0.65
1697352701.84,0.12,0.43,1.06,0,0.8,30.6,0.75,0.08,-0.02,0.65
1697352701.85,0.12,0.43,1.06,0,0.8,30.6,0.75,0.08,-0.02,0.65
1697352701.86,0.12,0.43,1.06,0,0.8,30.6,0.75,0.08,-0.02,0.65
1697352701.87,0.12,0.43,1.06,0,0.8,30.6,0.75,0.08,-0.02,0.65
1697352701.88,0.12,0.43,1.06,0,0.8,30.6,0.75,0.08,-0.02,0.65
1697352701.89,0.12,0.43,1.06,0,0.8,30.6,0.75,0.08,-0.02,0.65
1697352701.9,0.16,0.29,1.15,-1.6,-1.9,14,0.74,0.07,-0.02,0.67
1697352701.91,0.01,0.12,1.21,1,-2.5,13.7,0.73,0.07,-0.02,0.67
1697352701.92,0.05,0.1,1.11,1,-2.5,13.7,0.73,0.08,-0.02,0.67
1697352701.93,0.05,0.1,1.11,-0.1,-1.9,13.8,0.73,0.08,-0.02,0.67
1697352701.94,0.14,0.33,0.76,-4.9,-0.4,14.5,0.73,0.07,-0.02,0.68
1697352701.95,0.14,0.33,0.76,-4.9,-0.4,14.5,0.73,0.07,-0.02,0.68
1697352701.96,-0.04,0.35,1.09,-2.9,0.4,14.9,0.73,0.07,-0.02,0.68
1697352701.97,0.14,0.33,0.97,0.2,0.8,15.3,0.73,0.07,-0.02,0.68
1697352701.98,0.05,0.12,1.09,3.5,1.7,15.7,0.73,0.07,-0.02,0.68
1697352701.99,0.05,0.15,1.18,4.1,2.1,15.4,0.73,0.07,-0.02,0.68
1697352702,0.29,0.18,0.69,2.8,1.6,15.4,0.73,0.07,-0.02,0.68
1697352702.01,0.02,0.19,1.15,2.3,0.9,15.3,0.73,0.07,-0.02,0.68
1697352702.02,0.08,0.25,1.18,1,0,14.9,0.73,0.07,-0.02,0.68
1697352702.03,0.25,0.29,0.85,0,-0.6,14.8,0.73,0.07,-0.02,0.68
1697352702.04,0.11,0.35,0.88,0,-0.4,14.2,0.72,0.07,-0.02,0.69
1697352702.05,0.02,0.39,1.27,0,-0.5,13.7,0.72,0.07,-0.02,0.69
1697352702.06,0.24,0.28,0.77,-0.3,-0.5,13.6,0.72,0.07,-0.02,0.69
1697352702.07,0.12,0.3,0.81,0,0.1,13.4,0.72,0.07,-0.02,0.69
1697352702.08,-0.04,0.19,1.23,0.6,0.7,13.1,0.72,0.07,-0.02,0.69
1697352702.09,0.14,0.17,0.78,-0.5,1.4,12.4,0.72,0.07,-0.02,0.69
1697352702.1,0.25,0.21,0.89,-2.9,2.2,12.3,0.72,0.07,-0.02,0.69
1697352702.11,0.07,0.29,0.83,-3.6,2.2,12.4,0.72,0.07,-0.02,0.69
1697352702.12,-0.06,0.21,1.36,-2.6,1.5,12.2,0.72,0.07,-0.02,0.69
1697352702.13,0.09,0.1,0.91,-1.5,0.7,12,0.72,0.07,-0.02,0.69
1697352702.14,0.28,0.15,0.5,-1.5,0.7,12,0.72,0.07,-0.02,0.69
1697352702.15,-0.06,0.22,1.3,-2.1,0.3,11.7,0.72,0.07,-0.02,0.69
1697352702.16,0.14,0.08,0.79,0,-0.8,11.2,0.71,0.07,-0.02,0.7
1697352702.17,0.23,0.1,0.78,1.2,-1.4,10.7,0.71,0.07,-0.02,0.7
1697352702.18,-0.02,0.07,1.07,1.2,-1.4,10.7,0.71,0.07,-0.02,0.7
1697352702.19,-0.08,0.13,1.26,0.3,-2,10,0.71,0.07,-0.02,0.7
1697352702.2,0.03,0.16,0.77,-0.9,-2.3,9.8,0.71,0.07,-0.02,0.7
1697352702.21,0.26,0.28,0.8,-0.4,-2,9.8,0.71,0.07,-0.02,0.7
1697352702.22,-0.08,0.29,1.02,-0.4,-2,9.8,0.71,0.07,-0.02,0.7
1697352702.23,-0.09,0.12,1.21,2.9,-1.5,11.1,0.71,0.07,-0.02,0.7
1697352702.24,0.17,0.11,0.93,2.9,-1.7,11.5,0.71,0.07,-0.02,0.7
1697352702.25,-0.01,0.13,0.58,1,-1.6,12,0.71,0.07,-0.02,0.7
1697352702.26,-0.22,0.09,1.55,-0.1,-0.9,12.1,0.71,0.07,-0.02,0.7
1697352702.27,0.18,0.19,0.73,-2.1,-0.3,12.6,0.71,0.07,-0.02,0.7
1697352702.28,-0.01,0.3,0.99,-2.7,0.7,12.4,0.71,0.07,-0.02,0.7
1697352702.29,-0.01,0.3,0.99,-2.7,0.7,12.4,0.71,0.07,-0.02,0.7
1697352702.3,-0.01,0.3,0.99,-2.7,0.7,12.4,0.71,0.07,-0.02,0.7
1697352702.31,-0.01,0.3,0.99,-2.7,0.7,12.4,0.71,0.07,-0.02,0.7
1697352702.32,-0.01,0.3,0.99,-2.7,0.7,12.4,0.71,0.07,-0.02,0.7
1697352702.33,-0.01,0.3,0.99,-2.7,0.7,12.4,0.71,0.07,-0.02,0.7
1697352702.34,-0.01,0.3,0.99,-2.7,0.7,12.4,0.71,0.07,-0.02,0.7
1697352702.35,-0.01,0.3,0.99,-2.7,0.7,12.4,0.71,0.07,-0.02,0.7
1697352702.36,-0.01,0.3,0.99,-2.7,0.7,12.4,0.71,0.07,-0.02,0.7
1697352702.37,-0.01,0.3,0.99,-2.7,0.7,12.4,0.71,0.07,-0.02,0.7
1697352702.38,-0.01,0.3,0.99,-2.7,0.7,12.4,0.71,0.07,-0.02,0.7
1697352702.39,-0.01,0.3,0.99,-2.7,0.7,12.4,0.71,0.07,-0.02,0.7
1697352702.4,-0.01,0.3,0.99,-2.7,0.7,12.4,0.71,0.07,-0.02,0.7
1697352702.41,-0.01,0.3,0.99,-2.7,0.7,12.4,0.71,0.07,-0.02,0.7
1697352702.42,-0.01,0.3,0.99,-2.7,0.7,12.4,0.71,0.07,-0.02,0.7
1697352702.43,-0.01,0.3,0.99,-2.7,0.7,12.4,0.71,0.07,-0.02,0.7
1697352702.44,-0.01,0.3,0.99,-2.7,0.7,12.4,0.71,0.07,-0.02,0.7
1697352702.45,-0.01,0.3,0.99,-2.7,0.7,12.4,0.71,0.07,-0.02,0.7
1697352702.46,-0.01,0.3,0.99,-2.7,0.7,12.4,0.71,0.07,-0.02,0.7
1697352702.47,-0.01,0.3,0.99,-2.7,0.7,12.4,0.71,0.07,-0.02,0.7
1697352702.48,-0.01,0.3,0.99,-2.7,0.7,12.4,0.71,0.07,-0.02,0.7
1697352702.49,-0.07,-0.02,1.16,-2.7,0.7,12.4,0.7,0.07,-0.03,0.71
1697352702.5,0.05,-0.05,1.04,-1,-0.6,3.4,0.7,0.07,-0.03,0.71
1697352702.51,0.11,-0.1,0.83,-1.1,-0.7,1.8,0.7,0.07,-0.03,0.71
1697352702.52,-0.02,-0.14,1.3,-0.9,-0.8,0.5,0.7,0.07,-0.03,0.71
1697352702.53,-0.09,-0.13,1.09,-1.7,-0.4,-0.4,0.7,0.07,-0.03,0.71
1697352702.54,-0.11,-0.2,1.37,-2.1,0.5,-1.5,0.7,0.07,-0.03,0.71
1697352702.55,0.18,-0.14,0.62,-1.3,1.5,-2.7,0.7,0.07,-0.03,0.71
1697352702.56,0.01,-0.23,1.09,-1.5,1.1,-3.4,0.7,0.07,-0.03,0.71
1697352702.57,-0.14,-0.1,1.31,-1.9,1.2,-4.2,0.7,0.07,-0.03,0.71
1697352702.58,0.13,-0.11,0.98,-1.9,1.2,-4.2,0.7,0.07,-0.03,0.71
1697352702.59,0.11,-0.07,0.73,-1.3,0.8,-4.2,0.7,0.07,-0.03,0.71
1697352702.6,0.11,-0.07,0.73,-1.3,0.8,-4.2,0.7,0.07,-0.03,0.71
1697352702.61,0.13,-0.01,0.8,-1,-1,-3.7,0.7,0.07,-0.03,0.71
1697352702.62,0.13,-0.01,0.8,-1,-1,-3.7,0.7,0.07,-0.03,0.71
1697352702.63,-0.01,-0.01,1.16,-0.6,-1.3,-2.8,0.7,0.07,-0.03,0.71
1697352702.64,0.13,-0.06,0.82,0.5,-2,-2.7,0.7,0.07,-0.03,0.71
1697352702.65,0.21,-0.16,0.65,2,-1.9,-2.2,0.7,0.07,-0.03,0.71
1697352702.66,0.21,-0.16,0.65,2,-1.9,-2.2,0.7,0.07,-0.03,0.71
1697352702.67,-0.02,-0.17,1.09,0.6,-1.4,-2.1,0.7,0.07,-0.03,0.71
1697352702.68,-0.26,-0.03,1.53,-1.5,-1.2,-2.2,0.7,0.07,-0.03,0.71
1697352702.69,0.04,0.14,1.14,-0.3,0.2,-1.9,0.7,0.07,-0.03,0.71
1697352702.7,-0.16,0.07,1.35,-0.3,0.2,-1.9,0.7,0.07,-0.03,0.71
1697352702.71,0.14,-0.08,1.01,3.7,1.2,-0.9,0.7,0.07,-0.03,0.71
1697352702.72,0.14,-0.08,1.01,3.7,1.2,-0.9,0.7,0.07,-0.03,0.71
1697352702.73,-0.04,0.01,1.25,1.3,1.5,-0.6,0.7,0.07,-0.03,0.71
1697352702.74,0.24,0.09,0.92,-0.3,2.3,-0.1,0.7,0.07,-0.03,0.71
1697352702.75,-0.13,0.15,1.26,-0.3,2.3,-0.1,0.7,0.07,-0.03,0.71
1697352702.76,-0.13,0.15,1.26,0,1.8,0.3,0.7,0.07,-0.03,0.71
1697352702.77,-0.06,0.16,0.8,1.1,0.7,0.5,0.7,0.07,-0.03,0.71
1697352702.78,0.42,0.02,0.6,2.8,0,0.4,0.7,0.07,-0.03,0.71
1697352702.79,-0.08,-0.05,0.98,3,-1.2,0,0.7,0.07,-0.03,0.71
1697352702.8,-0.16,-0.09,1.32,0,-2,-0.1,0.7,0.07,-0.03,0.71
1697352702.81,0.3,-0.05,0.51,-2.8,-2.5,-0.4,0.7,0.07,-0.03,0.71
1697352702.82,0.1,0.1,0.84,-4.9,-2.6,-0.6,0.7,0.07,-0.03,0.71
1697352702.83,-0.17,0.16,1.54,-4.6,-2.7,-0.3,0.7,0.07,-0.03,0.71
1697352702.84,0.04,0.16,0.81,-1.8,-2.2,0,0.7,0.07,-0.03,0.71
1697352702.85,-0.09,-0.01,1.33,1.8,-1.3,0.1,0.7,0.07,-0.03,0.71
1697352702.86,0.05,-0.22,1.2,2.9,-0.7,0.2,0.7,0.07,-0.03,0.71
1697352702.87,0.16,-0.23,1.2,0.7,0,0.4,0.7,0.07,-0.03,0.71
1697352702.88,-0.07,0.02,1.1,-2.8,0.1,0.3,0.7,0.07,-0.03,0.71
1697352702.89,-0.07,0.02,1.1,-2.8,0.1,0.3,0.7,0.07,-0.03,0.71
1697352702.9,-0.07,0.02,1.1,-2.8,0.1,0.3,0.7,0.07,-0.03,0.71
1697352702.91,-0.07,0.02,1.1,-2.8,0.1,0.3,0.7,0.07,-0.03,0.71
1697352702.92,-0.07,0.02,1.1,-2.8,0.1,0.3,0.7,0.07,-0.03,0.71
1697352702.93,-0.07,0.02,1.1,-2.8,0.1,0.3,0.7,0.07,-0.03,0.71
1697352702.94,-0.07,0.02,1.1,-2.8,0.1,0.3,0.7,0.07,-0.03,0.71
1697352702.95,-0.07,0.02,1.1,-2.8,0.1,0.3,0.7,0.07,-0.03,0.71
1697352702.96,-0.07,0.02,1.1,-2.8,0.1,0.3,0.7,0.07,-0.03,0.71
1697352702.97,-0.07,0.02,1.1,-2.8,0.1,0.3,0.7,0.07,-0.03,0.71
1697352702.98,-0.07,0.02,1.1,-2.8,0.1,0.3,0.7,0.07,-0.03,0.71
1697352702.99,-0.07,0.02,1.1,-2.8,0.1,0.3,0.7,0.07,-0.03,0.71
1697352703,-0.07,0.02,1.1,-2.8,0.1,0.3,0.7,0.07,-0.03,0.71
1697352703.01,-0.1,-0.21,1.34,-1.1,1.3,-2.9,0.7,0.07,-0.03,0.71
1697352703.02,-0.08,-0.18,1.16,-4.1,1.8,-2.7,0.7,0.07,-0.03,0.71
1697352703.03,-0.08,-0.18,1.16,-4.1,1.8,-2.7,0.7,0.07,-0.03,0.71
1697352703.04,0.16,0.08,0.75,-4,2,-2.2,0.7,0.07,-0.03,0.71
1697352703.05,-0.08,0.04,1.11,-4,2,-2.2,0.7,0.07,-0.03,0.71
1697352703.06,-0.08,0.04,1.11,-1.8,2.6,-1.2,0.7,0.07,-0.03,0.71
1697352703.07,0.25,-0.11,0.72,1.2,2.4,-0.2,0.7,0.07,-0.03,0.71
1697352703.08,0.25,-0.11,0.72,3.9,1.7,0,0.7,0.07,-0.03,0.71
1697352703.09,-0.11,-0.12,1.12,4.1,0.9,0.5,0.7,0.07,-0.03,0.71
1697352703.1,-0.11,-0.12,1.12,2.7,-0.1,0.4,0.7,0.07,-0.03,0.71
1697352703.11,0.2,-0.03,0.69,0.9,-1.2,0.2,0.7,0.07,-0.03,0.71
1697352703.12,-0.05,0.2,0.9,-0.3,-2.6,0.4,0.7,0.07,-0.03,0.71
1697352703.13,0.24,0.23,0.71,0,-4,1.2,0.7,0.07,-0.03,0.71
1697352703.14,0.06,0.26,1.08,0.9,-4.8,2.1,0.7,0.07,-0.03,0.71
1697352703.15,-0.06,0.13,1.16,1.9,-4.7,3,0.7,0.07,-0.03,0.71
1697352703.16,-0,0.12,0.79,1.5,-4.3,3.7,0.7,0.07,-0.03,0.71
1697352703.17,-0.04,0.1,0.9,0.1,-3,3.8,0.7,0.07,-0.03,0.71
1697352703.18,0.07,0.12,1,-1.1,-1.5,4,0.7,0.07,-0.03,0.71
1697352703.19,-0.04,0.14,1.15,-2.1,-0.2,4.1,0.7,0.07,-0.03,0.71
1697352703.2,-0.08,0.05,1.01,-1.9,1,4,0.7,0.07,-0.03,0.71
1697352703.21,-0.19,0.09,1.19,-0.7,2.6,3.7,0.7,0.07,-0.03,0.71
1697352703.22,0.02,0.08,0.59,0.5,3.7,3.7,0.7,0.07,-0.03,0.71
1697352703.23,0.18,0.19,1.09,1.2,4.6,3.7,0.7,0.07,-0.03,0.71
1697352703.24,-0.02,0.02,1.32,3.3,3.3,3.5,0.7,0.07,-0.03,0.71
1697352703.25,-0.05,-0.1,1.27,4.5,1.5,3.4,0.7,0.07,-0.03,0.71
1697352703.26,0.22,-0.17,0.75,2.7,0,3,0.7,0.07,-0.03,0.71
1697352703.27,0.16,0.02,0.78,-1.6,-0.3,2.8,0.7,0.07,-0.03,0.71
1697352703.28,-0.13,0.15,1.28,-4.6,-0.5,3,0.7,0.07,-0.03,0.71
1697352703.29,0.07,0.18,0.62,-4.5,-0.7,3,0.7,0.07,-0.03,0.71
1697352703.3,0.09,0.11,0.91,-1.6,-0.4,3.1,0.7,0.07,-0.03,0.71
1697352703.31,-0.04,0.05,0.71,1.5,0.7,3.6,0.7,0.07,-0.03,0.71
1697352703.32,0.1,-0.13,0.68,2.1,2.4,3.6,0.7,0.07,-0.03,0.71
1697352703.33,0.1,-0.13,0.68,2.1,2.4,3.6,0.7,0.07,-0.03,0.71
1697352703.34,-0.11,0.09,1.05,-3.2,3.6,2.8,0.7,0.07,-0.03,0.71
1697352703.35,0.09,0.08,0.87,-3.2,3.6,2.8,0.7,0.07,-0.03,0.71
1697352703.36,0.26,0.24,0.96,1.3,1.8,2.9,0.7,0.07,-0.03,0.71
1697352703.37,-0.14,0.07,1.21,1.3,1.8,2.9,0.7,0.07,-0.03,0.71
1697352703.38,-0.14,0.07,1.21,3.8,0.6,2.9,0.7,0.07,-0.03,0.71
1697352703.39,-0.1,-0.24,1.04,6,-0.5,2.1,0.7,0.07,-0.03,0.71
1697352703.4,-0.1,-0.24,1.04,3.1,-1.3,2,0.69,0.07,-0.03,0.72
1697352703.41,-0.03,-0.18,0.96,-1.9,-1.8,1.7,0.69,0.07,-0.03,0.72
1697352703.42,-0.03,-0.18,0.96,-1.9,-1.8,1.7,0.69,0.07,-0.03,0.72
1697352703.43,-0.03,-0.18,0.96,-1.9,-1.8,1.7,0.69,0.07,-0.03,0.72
1697352703.44,-0.03,-0.18,0.96,-1.9,-1.8,1.7,0.69,0.07,-0.03,0.72
1697352703.45,-0.03,-0.18,0.96,-1.9,-1.8,1.7,0.69,0.07,-0.03,0.72
1697352703.46,-0.03,-0.18,0.96,-1.9,-1.8,1.7,0.69,0.07,-0.03,0.72
1697352703.47,-0.03,-0.18,0.96,-1.9,-1.8,1.7,0.69,0.07,-0.03,0.72
1697352703.48,-0.03,-0.18,0.96,-1.9,-1.8,1.7,0.69,0.07,-0.03,0.72
1697352703.49,-0.03,-0.18,0.96,-1.9,-1.8,1.7,0.69,0.07,-0.03,0.72
1697352703.5,-0.03,-0.18,0.96,-1.9,-1.8,1.7,0.69,0.07,-0.03,0.72
1697352703.51,-0.03,-0.18,0.96,-1.9,-1.8,1.7,0.69,0.07,-0.03,0.72
1697352703.52,-0.03,-0.18,0.96,-1.9,-1.8,1.7,0.69,0.07,-0.03,0.72
1697352703.53,-0.03,-0.18,0.96,-1.9,-1.8,1.7,0.69,0.07,-0.03,0.72
1697352703.54,-0.04,0.08,0.96,2.3,0.2,3.7,0.69,0.07,-0.03,0.72
1697352703.55,-0.01,-0.03,1.02,-0.2,-0.7,3.6,0.69,0.07,-0.03,0.72
1697352703.56,0.03,0.08,1.13,-1.1,-1.3,3.2,0.69,0.07,-0.03,0.72
1697352703.57,0.07,0.12,0.83,-1.8,-0.8,3.5,0.69,0.07,-0.03,0.72
1697352703.58,0.17,0.18,1.02,-0.6,-0.9,3.2,0.69,0.07,-0.03,0.72
1697352703.59,-0.02,0.14,0.84,0,-0.6,2.8,0.69,0.07,-0.03,0.72
1697352703.6,-0.05,0.09,0.84,-1.2,0,3.1,0.69,0.07,-0.03,0.72
1697352703.61,0.02,0.1,1.02,-1,0.4,3,0.69,0.07,-0.03,0.72
1697352703.62,0.28,0,0.7,-0.6,0.7,3,0.69,0.07,-0.03,0.72
1697352703.63,-0.07,0.14,1.38,-0.2,0.8,3.2,0.69,0.07,-0.03,0.72
1697352703.64,-0.1,0.15,0.97,0.7,0.3,3.3,0.69,0.07,-0.03,0.72
1697352703.65,-0.1,0.15,0.97,0.7,0.3,3.3,0.69,0.07,-0.03,0.72
1697352703.66,0.03,0.05,0.8,0,0.2,3.2,0.69,0.07,-0.03,0.72
1697352703.67,0.03,0.05,0.8,0,0.2,3.2,0.69,0.07,-0.03,0.72
1697352703.68,-0.02,0.09,0.93,-0.8,0.2,2.7,0.69,0.07,-0.03,0.72
1697352703.69,-0.02,0.09,0.93,-0.1,0,2.6,0.69,0.07,-0.03,0.72
1697352703.7,0.24,-0.05,1.1,1.7,-0.8,2,0.69,0.07,-0.03,0.72
1697352703.71,0.24,-0.05,1.1,1.7,-0.8,2,0.69,0.07,-0.03,0.72
1697352703.72,-0.02,0.04,0.99,0.2,-1.4,2,0.69,0.07,-0.03,0.72
1697352703.73,0.02,0.06,0.89,-0.9,-1.4,2,0.69,0.07,-0.03,0.72
1697352703.74,0,0.07,1.01,-0.9,-1.3,2.1,0.69,0.07,-0.03,0.72
1697352703.75,0,0.07,1.01,-0.7,-1.3,2.1,0.69,0.07,-0.03,0.72
1697352703.76,-0.09,0.02,1.25,0.1,-0.1,2.6,0.69,0.07,-0.03,0.72
1697352703.77,-0.09,0.02,1.25,-0.3,1,3.2,0.69,0.07,-0.03,0.72
1697352703.78,-0.21,0.1,1.16,0,2.2,3.1,0.69,0.07,-0.03,0.72
1697352703.79,0.05,0.05,1.04,0.6,2.8,3.1,0.69,0.07,-0.03,0.72
1697352703.8,-0.01,0.02,1.31,2.3,2.7,3,0.69,0.07,-0.03,0.72
1697352703.81,0.17,-0.01,0.77,2.6,2,2.9,0.69,0.07,-0.02,0.72
1697352703.82,0.18,0.03,1,2.6,2,2.9,0.69,0.07,-0.02,0.72
1697352703.83,0.04,-0.01,0.91,1.2,-0.3,2.5,0.69,0.07,-0.02,0.72
1697352703.84,0.01,0.06,1.06,0.9,-1.6,1.8,0.69,0.07,-0.02,0.72
1697352703.85,-0.06,-0.02,1.01,0.5,-2.5,1.3,0.69,0.07,-0.02,0.72
1697352703.86,0.19,-0.01,0.71,0,-3.1,1.1,0.69,0.07,-0.03,0.72
1697352703.87,0.01,-0.1,0.98,-0.4,-3.2,0.8,0.69,0.07,-0.03,0.72
1697352703.88,-0.12,0.04,0.99,-1.1,-3,0,0.69,0.07,-0.03,0.72
1697352703.89,-0.1,-0.09,1.11,-2.3,-0.5,-0.5,0.69,0.07,-0.03,0.72
1697352703.9,0.09,-0.09,0.75,-3.4,0.7,-0.8,0.69,0.07,-0.03,0.72
1697352703.91,-0.02,-0,1.36,-2.8,1.4,-1.3,0.69,0.07,-0.03,0.72
1697352703.92,0.08,0.01,0.9,-0.6,2.1,-1.5,0.69,0.07,-0.03,0.72
1697352703.93,0.08,0.01,0.9,-0.6,2.1,-1.5,0.69,0.07,-0.03,0.72
1697352703.94,0.08,0.01,0.9,-0.6,2.1,-1.5,0.69,0.07,-0.03,0.72
1697352703.95,0.08,0.01,0.9,-0.6,2.1,-1.5,0.69,0.07,-0.03,0.72
1697352703.96,0.08,0.01,0.9,-0.6,2.1,-1.5,0.69,0.07,-0.03,0.72
1697352703.97,0.08,0.01,0.9,-0.6,2.1,-1.5,0.69,0.07,-0.03,0.72
1697352703.98,0.08,0.01,0.9,-0.6,2.1,-1.5,0.69,0.07,-0.03,0.72
1697352703.99,0.08,0.01,0.9,-0.6,2.1,-1.5,0.69,0.07,-0.03,0.72
1697352704,0.08,0.01,0.9,-0.6,2.1,-1.5,0.69,0.07,-0.03,0.72
1697352704.01,0.08,0.01,0.9,-0.6,2.1,-1.5,0.69,0.07,-0.03,0.72
1697352704.02,0.08,0.01,0.9,-0.6,2.1,-1.5,0.69,0.07,-0.03,0.72
1697352704.03,0.08,0.01,0.9,-0.6,2.1,-1.5,0.69,0.07,-0.03,0.72
1697352704.04,0.08,0.01,0.9,-0.6,2.1,-1.5,0.69,0.07,-0.03,0.72
1697352704.05,0.08,0.01,0.9,-0.6,2.1,-1.5,0.69,0.07,-0.03,0.72
1697352704.06,-0.17,0.03,1.08,-1.9,1.2,-3.5,0.69,0.07,-0.03,0.72
1697352704.07,-0.17,0.03,1.08,-1.9,1.2,-3.5,0.69,0.07,-0.03,0.72
1697352704.08,-0.05,0.03,0.84,-0.7,2.8,-3.7,0.69,0.07,-0.02,0.72
1697352704.09,0.09,-0.07,0.97,1,3.3,-3.2,0.69,0.07,-0.02,0.72
1697352704.1,-0.04,-0.1,1.02,1.6,3.4,-3,0.69,0.07,-0.02,0.72
1697352704.11,0.02,-0.12,0.64,1.6,3.4,-3,0.69,0.07,-0.02,0.72
1697352704.12,0.26,-0.09,0.48,0.4,2.8,-3.1,0.69,0.07,-0.02,0.72
1697352704.13,0.26,-0.09,0.48,-1.6,2.9,-3.6,0.69,0.07,-0.02,0.72
1697352704.14,0.03,0.07,1.01,-2.9,2.6,-3.8,0.69,0.07,-0.02,0.72
1697352704.15,0.08,-0.04,0.96,-2.7,0.3,-3.4,0.69,0.06,-0.02,0.72
1697352704.16,-0.01,0.12,1.23,-2.2,-0.5,-3.8,0.69,0.06,-0.02,0.72
1697352704.17,-0.01,0.12,1.23,-0.8,-0.8,-4.2,0.69,0.06,-0.02,0.72
1697352704.18,-0.05,-0.09,0.84,1.5,-1,-3.6,0.69,0.07,-0.02,0.72
1697352704.19,0.11,-0.23,0.84,3,-0.9,-3.5,0.69,0.07,-0.02,0.72
1697352704.2,-0.01,-0.23,0.88,1.5,0.4,-3.8,0.69,0.07,-0.02,0.72
1697352704.21,-0.09,-0.2,1.25,-3.7,2.4,-3.6,0.69,0.07,-0.02,0.72
1697352704.22,0,-0.04,0.93,-5.3,3.3,-3,0.69,0.06,-0.02,0.72
1697352704.23,0.24,0.22,0.93,-1.6,3.2,-2.4,0.69,0.06,-0.02,0.72
1697352704.24,0.05,-0.03,1.16,1.4,3.1,-2.3,0.69,0.06,-0.02,0.72
1697352704.25,0.17,-0.28,0.85,4.8,1.7,-2.9,0.69,0.06,-0.02,0.72
1697352704.26,0.26,-0.3,0.61,1.7,0,-3,0.7,0.06,-0.02,0.72
1697352704.27,0.01,-0.25,1.08,-2.7,-1.3,-3.5,0.7,0.06,-0.02,0.72
1697352704.28,-0.08,-0.09,0.72,-5.4,-2.7,-4.9,0.7,0.06,-0.02,0.72
1697352704.29,0.18,-0,0.64,-4.9,-3.7,-5.6,0.7,0.06,-0.02,0.71
1697352704.3,0.17,0.03,0.6,-4.2,-4.1,-5.3,0.7,0.06,-0.02,0.71
1697352704.31,-0.05,0.14,1.09,-2.1,-3.6,-5.2,0.7,0.06,-0.02,0.71
1697352704.32,-0.22,-0.1,1.33,2.6,-2.1,-5.5,0.7,0.06,-0.02,0.71
1697352704.33,-0.14,-0.34,1.09,3.1,-0.6,-6,0.7,0.06,-0.02,0.71
1697352704.34,0.12,-0.39,0.91,0.2,0.5,-6.3,0.7,0.06,-0.02,0.71
1697352704.35,-0.13,-0.2,1.03,-3.9,1.3,-6.4,0.7,0.06,-0.02,0.71
1697352704.36,-0.07,-0.04,1.04,-6,2.2,-6.7,0.7,0.06,-0.02,0.71
1697352704.37,0.02,0.07,1.15,-2.9,2.9,-6.4,0.7,0.06,-0.02,0.71
1697352704.38,0.05,-0.1,1.08,1.9,3.5,-5.2,0.7,0.06,-0.02,0.71
1697352704.39,0.01,-0.31,1.06,3.6,3.9,-4.9,0.7,0.06,-0.02,0.71
1697352704.4,0.01,-0.21,1.12,1.1,3.1,-5,0.7,0.06,-0.02,0.71
1697352704.41,-0.12,-0.12,0.83,0.1,1.3,-5.3,0.7,0.06,-0.02,0.71
1697352704.42,0.16,-0.09,0.92,-0.2,0,-5.1,0.7,0.06,-0.02,0.71
1697352704.43,0.16,-0.09,0.92,-0.2,0,-5.1,0.7,0.06,-0.02,0.71
1697352704.44,0.03,-0.06,1.28,-1.6,-2,-5.4,0.7,0.06,-0.02,0.71
1697352704.45,0.03,-0.06,1.28,-1.6,-2,-5.4,0.7,0.06,-0.02,0.71
1697352704.46,0.03,-0.06,1.28,-1.6,-2,-5.4,0.7,0.06,-0.02,0.71
1697352704.47,0.03,-0.06,1.28,-1.6,-2,-5.4,0.7,0.06,-0.02,0.71
1697352704.48,0.03,-0.06,1.28,-1.6,-2,-5.4,0.7,0.06,-0.02,0.71
1697352704.49,0.03,-0.06,1.28,-1.6,-2,-5.4,0.7,0.06,-0.02,0.71
1697352704.5,0.03,-0.06,1.28,-1.6,-2,-5.4,0.7,0.06,-0.02,0.71
1697352704.51,0.03,-0.06,1.28,-1.6,-2,-5.4,0.7,0.06,-0.02,0.71
1697352704.52,0.03,-0.06,1.28,-1.6,-2,-5.4,0.7,0.06,-0.02,0.71
1697352704.53,0.03,-0.06,1.28,-1.6,-2,-5.4,0.7,0.06,-0.02,0.71
1697352704.54,0.03,-0.06,1.28,-1.6,-2,-5.4,0.7,0.06,-0.02,0.71
1697352704.55,0.03,-0.06,1.28,-1.6,-2,-5.4,0.7,0.06,-0.02,0.71
1697352704.56,0.03,-0.06,1.28,-1.6,-2,-5.4,0.7,0.06,-0.02,0.71
1697352704.57,0.03,-0.06,1.28,-1.6,-2,-5.4,0.7,0.06,-0.02,0.71
1697352704.58,0.03,-0.06,1.28,-1.6,-2,-5.4,0.7,0.06,-0.02,0.71
1697352704.59,0.01,-0.03,0.74,0.3,-2.3,-2.3,0.7,0.06,-0.02,0.71
1697352704.6,0.09,-0.01,0.92,-2.2,-3,-2.2,0.7,0.06,-0.02,0.71
1697352704.61,0.04,0.09,1.12,-2.1,-3,-2.1,0.7,0.06,-0.02,0.71
1697352704.62,-0.05,-0.02,1.1,0.1,-2.6,-2.1,0.7,0.06,-0.02,0.71
1697352704.63,-0.01,-0.03,0.76,0.6,-2.1,-1.9,0.7,0.06,-0.02,0.71
1697352704.64,0.11,-0.08,0.94,-0.2,-1.1,-1.6,0.71,0.06,-0.02,0.71
1697352704.65,-0.04,0.08,1.2,-2.5,0,-1.5,0.71,0.06,-0.02,0.71
1697352704.66,-0.13,0.23,1.02,-3.2,1.3,-1.7,0.71,0.06,-0.02,0.71
1697352704.67,0.08,0.08,1.02,-1.2,2.5,-0.9,0.71,0.06,-0.03,0.71
1697352704.68,0.01,-0.04,1.19,2.9,3.5,-0.5,0.71,0.06,-0.03,0.71
1697352704.69,-0,-0.16,1.02,3,3.7,0,0.71,0.06,-0.02,0.71
1697352704.7,-0,-0.16,1.02,3,3.7,0,0.71,0.06,-0.02,0.71
1697352704.71,0.01,-0.04,1.05,0.7,2,0,0.71,0.06,-0.02,0.71
1697352704.72,0.05,0.05,0.73,0.7,2,0,0.71,0.06,-0.02,0.71
1697352704.73,0.09,-0.03,0.93,1.9,0.4,-0.2,0.71,0.06,-0.02,0.71
1697352704.74,0.12,-0.15,1.03,1.5,-1.6,-0.2,0.71,0.06,-0.02,0.71
1697352704.75,0.09,-0,1.22,1.5,-1.6,-0.2,0.71,0.06,-0.02,0.71
1697352704.76,0.12,-0.03,0.81,0,-2.7,-0.7,0.71,0.06,-0.02,0.71
1697352704.77,0.09,0.03,0.9,-2.8,-2.4,-0.6,0.71,0.06,-0.02,0.71
1697352704.78,-0.02,0.13,0.96,-2.8,-2.4,-0.6,0.71,0.06,-0.02,0.71
1697352704.79,-0.01,0.04,1.07,-0.5,0.3,-0.6,0.71,0.06,-0.02,0.71
1697352704.8,-0.04,-0.02,0.96,-0.7,1.3,-0.6,0.71,0.06,-0.02,0.71
1697352704.81,0.14,-0,0.98,-0.5,2.4,-0.4,0.71,0.06,-0.02,0.71
1697352704.82,-0.01,-0.06,0.98,-0.5,2.4,-0.4,0.71,0.06,-0.02,0.71
1697352704.83,-0.01,-0.06,0.98,-0.4,3.3,-0.2,0.71,0.06,-0.02,0.71
1697352704.84,0.1,-0.04,1.15,0.2,3.4,-0.1,0.71,0.06,-0.02,0.71
1697352704.85,0.04,0,1.21,0.2,3.4,-0.1,0.71,0.06,-0.02,0.71
1697352704.86,0.04,0.01,0.76,1.4,2.4,-0.4,0.71,0.06,-0.02,0.71
1697352704.87,0.04,0.01,0.76,2.3,1.2,-0.2,0.71,0.06,-0.02,0.71
1697352704.88,0,-0.14,1.03,2.5,-0.2,0.2,0.71,0.06,-0.02,0.71
1697352704.89,0.15,-0.05,0.92,1.9,-1.4,0.1,0.71,0.06,-0.02,0.71
1697352704.9,0.03,-0.03,1.26,1.6,-2.3,0.1,0.71,0.06,-0.02,0.71
1697352704.91,-0.11,-0.02,0.98,0.7,-2.5,0.2,0.71,0.06,-0.02,0.71
1697352704.92,-0.12,0,0.96,0,-2.3,0,0.71,0.06,-0.02,0.71
1697352704.93,-0.02,0.09,1.15,-1.7,-1,0.1,0.71,0.06,-0.02,0.71
1697352704.94,-0.08,0.09,1,-1.4,0,0.8,0.71,0.06,-0.02,0.71
1697352704.95,0.03,0.09,1.09,-0.6,1.2,1,0.71,0.06,-0.02,0.71
1697352704.96,0.09,0.04,1,-0.2,1.3,1,0.71,0.06,-0.02,0.71
1697352704.97,-0.08,0.09,1,0,1.7,1,0.71,0.06,-0.02,0.71
1697352704.98,-0.06,0.1,1.08,0.2,2.2,1.2,0.71,0.06,-0.02,0.71
1697352704.99,-0.06,0.1,1.08,0.2,2.2,1.2,0.71,0.06,-0.02,0.71
1697352705,-0.06,0.1,1.08,0.2,2.2,1.2,0.71,0.06,-0.02,0.71
1697352705.01,-0.06,0.1,1.08,0.2,2.2,1.2,0.71,0.06,-0.02,0.71
1697352705.02,-0.06,0.1,1.08,0.2,2.2,1.2,0.71,0.06,-0.02,0.71
1697352705.03,-0.06,0.1,1.08,0.2,2.2,1.2,0.71,0.06,-0.02,0.71
1697352705.04,-0.06,0.1,1.08,0.2,2.2,1.2,0.71,0.06,-0.02,0.71
1697352705.05,-0.06,0.1,1.08,0.2,2.2,1.2,0.71,0.06,-0.02,0.71
1697352705.06,-0.06,0.1,1.08,0.2,2.2,1.2,0.71,0.06,-0.02,0.71
1697352705.07,-0.06,0.1,1.08,0.2,2.2,1.2,0.71,0.06,-0.02,0.71
1697352705.08,-0.06,0.1,1.08,0.2,2.2,1.2,0.71,0.06,-0.02,0.71
1697352705.09,-0.06,0.1,1.08,0.2,2.2,1.2,0.71,0.06,-0.02,0.71
1697352705.1,-0.06,0.1,1.08,0.2,2.2,1.2,0.71,0.06,-0.02,0.71
1697352705.11,-0.06,0.1,1.08,0.2,2.2,1.2,0.71,0.06,-0.02,0.71
1697352705.12,-0.08,-0.02,1.22,5.5,4,3.1,0.7,0.06,-0.02,0.71
1697352705.13,0.04,-0.1,0.85,2.8,3.8,2.7,0.7,0.06,-0.02,0.71
1697352705.14,0.04,-0.1,0.85,-0.9,2.6,2.5,0.7,0.06,-0.02,0.71
1697352705.15,0.14,0.05,1.03,-1.8,1.4,2.5,0.7,0.06,-0.02,0.71
1697352705.16,0.14,0.05,1.03,-0.7,0,2.4,0.7,0.06,-0.02,0.71
1697352705.17,0.14,0.1,0.89,1.3,-1,2.2,0.7,0.06,-0.02,0.71
1697352705.18,0.14,0.1,0.89,1.8,-1.1,2.2,0.7,0.06,-0.02,0.71
1697352705.19,0.04,-0.02,1.09,2.4,-1.7,2.4,0.7,0.06,-0.02,0.71
1697352705.2,-0.03,-0.1,1.2,0.6,-1.3,2.1,0.7,0.06,-0.02,0.71
1697352705.21,0.1,-0.01,0.67,-3.5,-0.5,2.2,0.7,0.06,-0.02,0.71
1697352705.22,0.1,-0.01,0.67,-4.7,0.7,2.1,0.7,0.06,-0.02,0.71
1697352705.23,-0.07,0.21,1.11,-2.8,2.1,2.4,0.7,0.06,-0.02,0.71
1697352705.24,-0.04,0.34,0.88,0,2.9,3.2,0.7,0.06,-0.02,0.71
1697352705.25,-0.04,0.31,1.07,4.4,3,3.8,0.7,0.06,-0.02,0.71
1697352705.26,0.06,0.12,0.99,7.2,2.5,3.9,0.7,0.06,-0.02,0.71
1697352705.27,0.17,-0.15,0.94,4.7,1.7,4.1,0.7,0.06,-0.02,0.71
1697352705.28,-0.01,-0.18,0.94,-0.4,0.2,3.6,0.7,0.06,-0.02,0.71
1697352705.29,0.05,0.08,1.12,-2.1,-0.5,4.1,0.7,0.06,-0.02,0.71
1697352705.3,0.11,0.25,1.1,-0.7,-1.3,4.5,0.7,0.06,-0.02,0.71
1697352705.31,0.13,0.31,0.9,1.7,-1.3,5,0.7,0.06,-0.02,0.71
1697352705.32,-0.05,0.21,1.03,3,-1.9,5.5,0.7,0.06,-0.02,0.71
1697352705.33,-0.04,0.03,0.87,1.7,-2.1,5.9,0.7,0.06,-0.02,0.71
1697352705.34,0.12,-0.02,1,-1.1,-1.6,6,0.7,0.06,-0.02,0.71
1697352705.35,0.12,0.12,0.85,-2.3,-0.6,6.1,0.7,0.06,-0.02,0.71
1697352705.36,0.03,0.16,0.73,-0.6,0,6.2,0.7,0.06,-0.02,0.71
1697352705.37,0.02,0.12,0.98,0.1,0.9,6.2,0.7,0.06,-0.02,0.71
1697352705.38,0.08,0.19,1.04,0.2,1.5,6.7,0.7,0.06,-0.02,0.71
1697352705.39,-0.11,0.18,1.07,0.3,2,7.2,0.7,0.06,-0.02,0.71
1697352705.4,-0.05,0.29,1.01,2.2,1.9,7.8,0.7,0.06,-0.02,0.71
1697352705.41,-0.01,0.22,0.99,2.8,1.5,8.6,0.7,0.06,-0.02,0.71
1697352705.42,0.04,0.17,1.24,2.1,1.2,9.5,0.7,0.06,-0.02,0.72
1697352705.43,0.15,0.34,1.07,2.4,0.6,10.7,0.7,0.06,-0.02,0.72
1697352705.44,0,0.34,1.03,3,-0.4,11.9,0.7,0.06,-0.02,0.72
1697352705.45,0.06,0.33,0.96,3,-0.4,11.9,0.7,0.06,-0.02,0.72
1697352705.46,0.03,0.47,1.13,2.2,-1.3,15.2,0.69,0.06,-0.02,0.72
1697352705.47,-0.12,0.46,0.93,2.2,-1.3,15.2,0.69,0.06,-0.02,0.72
1697352705.48,-0.12,0.46,0.93,2.2,-1.3,15.2,0.69,0.06,-0.02,0.72
1697352705.49,-0.04,1,0.9,2.4,-0.8,19.4,0.69,0.06,-0.02,0.72
1697352705.5,-0.04,1,0.9,2.4,-0.8,19.4,0.69,0.06,-0.02,0.72
1697352705.51,-0.04,1,0.9,2.4,-0.8,19.4,0.69,0.06,-0.02,0.72
1697352705.52,-0.04,1,0.9,2.4,-0.8,19.4,0.69,0.06,-0.02,0.72
1697352705.53,-0.04,1,0.9,2.4,-0.8,19.4,0.69,0.06,-0.02,0.72
1697352705.54,-0.04,1,0.9,2.4,-0.8,19.4,0.69,0.06,-0.02,0.72
1697352705.55,-0.04,1,0.9,2.4,-0.8,19.4,0.69,0.06,-0.02,0.72
1697352705.56,-0.04,1,0.9,2.4,-0.8,19.4,0.69,0.06,-0.02,0.72
1697352705.57,-0.04,1,0.9,2.4,-0.8,19.4,0.69,0.06,-0.02,0.72
1697352705.58,-0.04,1,0.9,2.4,-0.8,19.4,0.69,0.06,-0.02,0.72
1697352705.59,-0.04,1,0.9,2.4,-0.8,19.4,0.69,0.06,-0.02,0.72
1697352705.6,-0.04,1,0.9,2.4,-0.8,19.4,0.69,0.06,-0.02,0.72
1697352705.61,-0.04,1,0.9,2.4,-0.8,19.4,0.69,0.06,-0.02,0.72
1697352705.62,-0.04,1,0.9,2.4,-0.8,19.4,0.69,0.06,-0.02,0.72
1697352705.63,-0.09,0.81,1.06,0.1,-1.4,41.6,0.66,0.06,-0.02,0.75
1697352705.64,-0.22,0.88,0.97,0,-0.9,40.8,0.65,0.06,-0.02,0.75
1697352705.65,-0.19,0.76,1.1,0,-0.1,39.7,0.65,0.06,-0.02,0.76
1697352705.66,-0.27,0.69,1.1,-2.6,1.3,38,0.65,0.06,-0.02,0.76
1697352705.67,-0.04,0.73,0.87,-2.7,2.3,36.8,0.65,0.06,-0.02,0.76
1697352705.68,-0.16,0.76,1.13,-2,2.8,35.8,0.64,0.06,-0.02,0.76
1697352705.69,-0.13,0.73,1.07,-1.8,3.1,35.1,0.64,0.06,-0.02,0.77
1697352705.7,-0.17,0.59,0.98,-2.4,3,34,0.64,0.06,-0.02,0.77
1697352705.71,-0.04,0.54,0.92,-3.8,2,32.7,0.64,0.06,-0.02,0.77
1697352705.72,-0,0.59,0.82,-3.4,0.8,31.8,0.63,0.06,-0.02,0.77
1697352705.73,0.07,0.6,1.12,-2.2,0.1,31.1,0.63,0.06,-0.02,0.77
1697352705.74,0.02,0.51,0.86,-2,-0.6,30,0.63,0.06,-0.02,0.77
1697352705.75,0.02,0.51,0.86,-2,-0.6,30,0.63,0.06,-0.02,0.77
1697352705.76,0.17,0.51,0.82,-1.8,-1.6,28.7,0.63,0.06,-0.02,0.78
1697352705.77,0.19,0.49,1.21,-1.8,-1.6,28.7,0.63,0.06,-0.02,0.78
1697352705.78,0.2,0.56,1.1,-2.2,-3.4,26.8,0.62,0.06,-0.02,0.78
1697352705.79,0.04,0.44,0.92,-2.1,-3.8,26.9,0.62,0.06,-0.02,0.78
1697352705.8,-0.13,0.49,1,-2.4,-3.6,27.2,0.62,0.06,-0.02,0.78
1697352705.81,-0.12,0.49,0.87,-2.3,-2.4,27.8,0.62,0.06,-0.02,0.78
1697352705.82,-0.12,0.49,0.87,-2.3,-2.4,27.8,0.62,0.06,-0.02,0.78
1697352705.83,-0.2,0.46,1.4,-1.6,-0.4,28.7,0.61,0.06,-0.02,0.79
1697352705.84,-0.13,0.41,1.44,0.4,2.2,29.5,0.61,0.06,-0.02,0.79
1697352705.85,-0.01,0.4,1.04,0.4,2.2,29.5,0.61,0.06,-0.02,0.79
1697352705.86,0.04,0.62,0.98,-0.8,1.5,28.7,0.61,0.06,-0.02,0.79
1697352705.87,0.11,0.55,0.97,1.4,0.4,27.7,0.61,0.06,-0.02,0.79
1697352705.88,0.21,0.46,0.94,2.2,-3.5,26.2,0.6,0.06,-0.02,0.79
1697352705.89,0.15,0.46,1.09,0.4,-4.7,25.4,0.6,0.06,-0.02,0.8
1697352705.9,0.06,0.45,0.96,0.4,-4.7,25.4,0.6,0.06,-0.02,0.8
1697352705.91,0.06,0.45,0.96,-1.6,-5.1,24.8,0.6,0.06,-0.02,0.8
1697352705.92,0.09,0.41,1.04,-2.6,-3.5,23.8,0.6,0.06,-0.02,0.8
1697352705.93,-0.08,0.52,1.15,-2.6,-1.2,23.6,0.6,0.06,-0.02,0.8
1697352705.94,-0.24,0.49,1.19,-1.9,0.7,23.3,0.59,0.06,-0.02,0.8
1697352705.95,-0.18,0.46,0.95,-0.9,2.5,22.9,0.59,0.06,-0.02,0.8
1697352705.96,-0.01,0.43,1.02,0.5,3.7,22.2,0.59,0.06,-0.02,0.8
1697352705.97,0.01,0.22,1.24,0.5,4,20.8,0.59,0.06,-0.02,0.81
1697352705.98,-0.08,0.1,1.17,0.1,4.1,20.5,0.59,0.06,-0.02,0.81
1697352705.99,0.13,0.18,1.17,-2.5,2.3,17,0.59,0.06,-0.02,0.81
1697352706,0.18,0.13,1.12,-3.4,0.9,14.6,0.58,0.05,-0.02,0.81
1697352706.01,0.29,0.17,1.17,-4.6,-1.3,12.5,0.58,0.05,-0.02,0.81
1697352706.02,0.21,0.17,0.67,-4.6,-1.3,12.5,0.58,0.05,-0.02,0.81
1697352706.03,0.21,0.17,0.67,-4.6,-1.3,12.5,0.58,0.05,-0.02,0.81
1697352706.04,0.21,0.17,0.67,-4.6,-1.3,12.5,0.58,0.05,-0.02,0.81
1697352706.05,0.21,0.17,0.67,-4.6,-1.3,12.5,0.58,0.05,-0.02,0.81
1697352706.06,0.21,0.17,0.67,-4.6,-1.3,12.5,0.58,0.05,-0.02,0.81
1697352706.07,0.21,0.17,0.67,-4.6,-1.3,12.5,0.58,0.05,-0.02,0.81
1697352706.08,0.21,0.17,0.67,-4.6,-1.3,12.5,0.58,0.05,-0.02,0.81
1697352706.09,0.21,0.17,0.67,-4.6,-1.3,12.5,0.58,0.05,-0.02,0.81
1697352706.1,0.21,0.17,0.67,-4.6,-1.3,12.5,0.58,0.05,-0.02,0.81
1697352706.11,0.21,0.17,0.67,-4.6,-1.3,12.5,0.58,0.05,-0.02,0.81
1697352706.12,0.21,0.17,0.67,-4.6,-1.3,12.5,0.58,0.05,-0.02,0.81
1697352706.13,0.21,0.17,0.67,-4.6,-1.3,12.5,0.58,0.05,-0.02,0.81
1697352706.14,0.21,0.17,0.67,-4.6,-1.3,12.5,0.58,0.05,-0.02,0.81
1697352706.15,0.21,0.17,0.67,-4.6,-1.3,12.5,0.58,0.05,-0.02,0.81
1697352706.16,0.09,-0.23,1.19,0.5,1.8,-1.4,0.58,0.06,-0.03,0.81
1697352706.17,-0.04,-0.22,1.22,-2.8,-0.5,-2.2,0.58,0.06,-0.03,0.81
1697352706.18,0.12,-0.18,1.17,-2.9,-0.7,-2.3,0.58,0.06,-0.03,0.81
1697352706.19,0.25,-0.1,1.13,-2.9,-0.7,-2.3,0.58,0.06,-0.03,0.81
1697352706.2,0.25,-0.1,1.13,-2.5,-2.2,-3.8,0.58,0.06,-0.03,0.81
1697352706.21,0.26,-0.14,0.84,0.1,-2.4,-4.9,0.58,0.06,-0.03,0.81
1697352706.22,0.05,-0.05,0.91,1.9,-2.2,-5.5,0.58,0.06,-0.03,0.81
1697352706.23,-0.01,-0.24,1.07,1.8,-1.1,-6,0.58,0.06,-0.03,0.81
1697352706.24,0.08,-0.31,0.79,1.5,-1.3,-6.2,0.58,0.06,-0.03,0.81
1697352706.25,0.14,-0.35,0.68,-0.6,-0.4,-7,0.58,0.06,-0.03,0.81
1697352706.26,-0.01,-0.16,0.98,-2.7,1.4,-7.6,0.58,0.06,-0.03,0.81
1697352706.27,-0.08,0.05,1.02,0.7,2.2,-7.3,0.58,0.06,-0.03,0.81
1697352706.28,-0.13,-0.11,0.97,3.9,1.8,-7.2,0.58,0.06,-0.03,0.81
1697352706.29,-0.11,-0.27,1.08,4.2,2,-7.2,0.58,0.06,-0.03,0.81
1697352706.3,-0.04,-0.35,0.9,3.2,2.4,-7.4,0.59,0.06,-0.03,0.81
1697352706.31,-0.06,-0.26,1.1,0.2,2.4,-7.5,0.59,0.06,-0.03,0.81
1697352706.32,0.07,-0.14,1.1,-2.9,1.7,-7.3,0.59,0.05,-0.03,0.81
1697352706.33,0.18,0,1.03,-2.9,1.5,-7.2,0.59,0.05,-0.03,0.81
1697352706.34,0.19,-0.03,0.92,-1.2,0.8,-7,0.59,0.05,-0.03,0.81
1697352706.35,-0.01,-0.1,0.89,1.2,0.1,-6.9,0.59,0.05,-0.03,0.81
1697352706.36,-0.11,-0.28,1.24,1.5,-1.2,-7.7,0.59,0.05,-0.03,0.81
1697352706.37,-0.12,-0.38,1.19,-0.3,-0.9,-8.9,0.59,0.05,-0.03,0.81
1697352706.38,0.18,-0.41,0.41,-3.1,0,-10.3,0.59,0.05,-0.03,0.8
1697352706.39,-0.17,-0.34,1.01,-4,0.8,-11.7,0.59,0.05,-0.03,0.8
1697352706.4,-0.28,-0.25,1.01,-2.8,1.3,-13,0.59,0.05,-0.03,0.8
1697352706.41,-0.03,-0.36,0.85,-0.5,1.5,-15,0.59,0.05,-0.03,0.8
1697352706.42,0.04,-0.56,0.94,-1.1,1.4,-17.3,0.59,0.05,-0.03,0.8
1697352706.43,-0.12,-0.65,1.34,-2.3,0.8,-19.2,0.6,0.05,-0.03,0.8
1697352706.44,-0.22,-0.69,1.17,-3.8,-0.4,-21.8,0.6,0.05,-0.03,0.8
1697352706.45,-0.2,-0.7,1.62,-5.3,-0.9,-25,0.6,0.05,-0.03,0.8
1697352706.46,0.03,-0.58,0.83,-5.2,-1.5,-26.4,0.6,0.05,-0.03,0.8
1697352706.47,-0.21,-0.57,1.25,-4.6,-1.8,-27.4,0.6,0.05,-0.03,0.8
1697352706.48,-0.11,-0.5,0.97,-2.5,-1.5,-27.9,0.6,0.05,-0.03,0.79
1697352706.49,-0,-0.47,0.59,-0.3,-0.8,-27.7,0.61,0.05,-0.03,0.79
1697352706.5,-0.05,-0.56,1.03,1.1,0,-27.2,0.61,0.05,-0.03,0.79
1697352706.51,-0.18,-0.71,1.03,1.1,0,-27,0.61,0.05,-0.03,0.79
1697352706.52,-0.03,-0.65,0.82,-0.5,0.8,-26.7,0.61,0.05,-0.03,0.79
1697352706.53,0.01,-0.64,0.79,-3.7,1.3,-26.2,0.61,0.05,-0.03,0.79
1697352706.54,0.12,-0.51,0.89,-5,2.1,-25.5,0.61,0.05,-0.03,0.79
1697352706.55,0.12,-0.51,0.89,-5,2.1,-25.5,0.62,0.05,-0.03,0.79
1697352706.56,0.12,-0.51,0.89,-5,2.1,-25.5,0.62,0.05,-0.03,0.79
1697352706.57,0.12,-0.51,0.89,-5,2.1,-25.5,0.62,0.05,-0.03,0.79
1697352706.58,0.12,-0.51,0.89,-5,2.1,-25.5,0.62,0.05,-0.03,0.79
1697352706.59,0.12,-0.51,0.89,-5,2.1,-25.5,0.62,0.05,-0.03,0.79
1697352706.6,0.12,-0.51,0.89,-5,2.1,-25.5,0.62,0.05,-0.03,0.79
1697352706.61,0.12,-0.51,0.89,-5,2.1,-25.5,0.62,0.05,-0.03,0.79
1697352706.62,0.12,-0.51,0.89,-5,2.1,-25.5,0.62,0.05,-0.03,0.79
1697352706.63,0.12,-0.51,0.89,-5,2.1,-25.5,0.62,0.05,-0.03,0.79
1697352706.64,0.12,-0.51,0.89,-5,2.1,-25.5,0.62,0.05,-0.03,0.79
1697352706.65,0.12,-0.51,0.89,-5,2.1,-25.5,0.62,0.05,-0.03,0.79
1697352706.66,0.12,-0.51,0.89,-5,2.1,-25.5,0.62,0.05,-0.03,0.79
1697352706.67,0.12,-0.51,0.89,-5,2.1,-25.5,0.62,0.05,-0.03,0.79
1697352706.68,0.12,-0.51,0.89,-5,2.1,-25.5,0.62,0.05,-0.03,0.79
1697352706.69,0.12,-0.51,0.89,-5,2.1,-25.5,0.62,0.05,-0.03,0.79
1697352706.7,-0.11,-0.91,1.11,-4.1,0.2,-44.7,0.65,0.05,-0.03,0.75
1697352706.71,0.08,-0.79,0.68,-4.1,0.8,-44.7,0.66,0.05,-0.03,0.75
1697352706.72,-0.13,-0.74,1.11,-2.7,2,-44.4,0.66,0.05,-0.03,0.75
1697352706.73,-0.08,-0.77,0.98,-1.9,2.7,-43.3,0.66,0.05,-0.03,0.75
1697352706.74,-0.08,-0.74,0.91,1.1,2.8,-43,0.66,0.05,-0.03,0.74
1697352706.75,0.11,-0.93,0.93,3.6,2.5,-42,0.67,0.05,-0.03,0.74
1697352706.76,0.04,-0.85,1.05,3.6,2.5,-42,0.67,0.05,-0.03,0.74
1697352706.77,-0.04,-0.78,1.14,3.6,1.1,-40,0.67,0.05,-0.03,0.74
1697352706.78,0.05,-0.73,1.03,2,0.3,-38.1,0.68,0.05,-0.03,0.74
1697352706.79,0.11,-0.61,0.96,0.5,0.1,-36.5,0.68,0.05,-0.02,0.73
1697352706.8,-0.1,-0.48,1.29,0.5,0.1,-36.5,0.68,0.05,-0.02,0.73
1697352706.81,-0.23,-0.47,1.01,-0.8,1.2,-32.5,0.68,0.05,-0.02,0.73
1697352706.82,-0.23,-0.47,1.01,-0.8,1.2,-32.5,0.68,0.05,-0.02,0.73
1697352706.83,0.11,-0.56,0.62,2.4,1.7,-30.5,0.69,0.05,-0.02,0.73
1697352706.84,-0.01,-0.83,1.39,2.4,1.7,-30.5,0.69,0.05,-0.02,0.73
1697352706.85,0,-0.76,1.04,0.4,0.3,-30.8,0.69,0.05,-0.02,0.72
1697352706.86,-0.05,-0.51,0.74,-1.9,-0.4,-31.9,0.69,0.05,-0.02,0.72
1697352706.87,0.03,-0.5,1.09,1.9,-1.1,-32.7,0.69,0.05,-0.02,0.72
1697352706.88,0.01,-0.7,0.63,1.9,-1.1,-32.7,0.69,0.05,-0.02,0.72
1697352706.89,-0.01,-0.91,0.97,2.4,-0.2,-35,0.7,0.05,-0.02,0.72
1697352706.9,-0.01,-0.91,0.97,2.4,-0.2,-35,0.7,0.05,-0.02,0.71
1697352706.91,-0.23,-0.89,1.21,-3,1.3,-38,0.7,0.05,-0.02,0.71
1697352706.92,-0.23,-0.89,1.21,-3,1.3,-38,0.7,0.05,-0.02,0.71
1697352706.93,-0.1,-0.84,0.76,-4,2.2,-39.7,0.71,0.05,-0.02,0.71
1697352706.94,-0.21,-0.75,1.2,-2.7,3.4,-40.9,0.71,0.05,-0.02,0.7
1697352706.95,0.12,-0.83,0.64,-2.4,3.4,-41.2,0.71,0.05,-0.02,0.7
1697352706.96,0.01,-0.95,1.06,-0.9,3.4,-41.9,0.71,0.05,-0.02,0.7
1697352706.97,-0.05,-0.88,0.94,-0.3,3.2,-42.9,0.71,0.05,-0.02,0.7
1697352706.98,-0.19,-0.93,1.36,-0.7,2.9,-43.4,0.72,0.05,-0.02,0.69
1697352706.99,-0.02,-1,0.93,-0.7,3.1,-43.7,0.72,0.05,-0.02,0.69
1697352707,-0.06,-0.91,1.04,-3.1,3.1,-43.6,0.72,0.05,-0.02,0.69
1697352707.01,0.08,-0.8,0.74,-4.3,2.5,-43.7,0.73,0.05,-0.02,0.68
1697352707.02,-0.01,-0.7,0.9,-1.6,2.2,-43.6,0.73,0.05,-0.02,0.68
1697352707.03,-0.1,-0.98,1.09,2.1,0.9,-42.7,0.73,0.05,-0.02,0.68
1697352707.04,-0.07,-0.81,0.94,2.5,0.5,-42.7,0.74,0.05,-0.02,0.68
1697352707.05,-0.19,-1.04,1,1,0.5,-42.8,0.74,0.05,-0.02,0.67
1697352707.06,-0.22,-0.91,1.09,-0.4,1.1,-42.8,0.74,0.05,-0.02,0.67
1697352707.07,-0.14,-0.81,0.93,0,1.4,-43,0.74,0.05,-0.02,0.67
1697352707.08,0.09,-0.84,0.64,1,2.3,-42.4,0.75,0.05,-0.02,0.66
1697352707.09,0.09,-0.84,0.64,1,2.3,-42.4,0.75,0.05,-0.02,0.66
1697352707.1,0.09,-0.84,0.64,1,2.3,-42.4,0.75,0.05,-0.02,0.66
1697352707.11,0.09,-0.84,0.64,1,2.3,-42.4,0.75,0.05,-0.02,0.66
1697352707.12,0.09,-0.84,0.64,1,2.3,-42.4,0.75,0.05,-0.02,0.66
1697352707.13,0.09,-0.84,0.64,1,2.3,-42.4,0.75,0.05,-0.02,0.66
1697352707.14,0.09,-0.84,0.64,1,2.3,-42.4,0.75,0.05,-0.02,0.66
1697352707.15,0.09,-0.84,0.64,1,2.3,-42.4,0.75,0.05,-0.02,0.66
1697352707.16,0.09,-0.84,0.64,1,2.3,-42.4,0.75,0.05,-0.02,0.66
1697352707.17,0.09,-0.84,0.64,1,2.3,-42.4,0.75,0.05,-0.02,0.66
1697352707.18,0.09,-0.84,0.64,1,2.3,-42.4,0.75,0.05,-0.02,0.66
1697352707.19,0.09,-0.84,0.64,1,2.3,-42.4,0.75,0.05,-0.02,0.66
1697352707.2,0.09,-0.84,0.64,1,2.3,-42.4,0.75,0.05,-0.02,0.66
1697352707.21,-0.01,-0.61,1.1,4.5,2.7,-34.9,0.77,0.05,-0.01,0.63
1697352707.22,-0.01,-0.61,1.1,4.5,2.7,-34.9,0.78,0.05,-0.01,0.63
1697352707.23,-0.01,-0.66,0.98,2.7,3.8,-31,0.78,0.05,-0.01,0.62
1697352707.24,-0.01,-0.66,0.98,2.7,3.8,-31,0.78,0.05,-0.01,0.62
1697352707.25,0.05,-0.57,1.22,0.9,3.5,-29.6,0.78,0.05,-0.01,0.62
1697352707.26,0.15,-0.38,1.05,-1.2,2.1,-28.2,0.78,0.05,-0.01,0.62
1697352707.27,0.16,-0.14,1.24,-1.4,0.7,-26.6,0.78,0.05,-0.01,0.62
1697352707.28,-0.02,-0.03,0.91,1.4,-0.9,-24.5,0.79,0.05,-0.01,0.62
1697352707.29,-0.1,-0.24,0.79,7.6,-2.3,-22.2,0.79,0.05,-0.01,0.61
1697352707.3,0.14,-0.35,0.59,7.4,-2.6,-21.5,0.79,0.05,-0.01,0.61
1697352707.31,0.19,-0.37,0.6,4.5,-2.3,-20.7,0.79,0.05,-0.01,0.61
1697352707.32,0.04,-0.11,0.94,0.3,-1.6,-20.1,0.79,0.05,-0.01,0.61
1697352707.33,-0.32,0.1,1.4,-1.2,-0.8,-18.7,0.79,0.05,-0.01,0.61
1697352707.34,-0.04,0.38,0.68,2.2,-0.3,-16.8,0.79,0.05,-0.01,0.61
1697352707.35,0.06,0.37,1.14,7,-0.5,-13.1,0.79,0.06,-0.01,0.61
1697352707.36,0.07,0.38,0.59,10.2,-0.8,-8.5,0.79,0.06,-0.01,0.61
1697352707.37,0.03,0.54,1.11,10.2,-0.8,-8.5,0.79,0.06,-0.01,0.61
1697352707.38,-0.11,0.52,1.09,8.7,-1,3.7,0.79,0.06,-0.01,0.61
1697352707.39,-0.09,0.6,1.24,6.3,-1,9.4,0.79,0.06,-0.01,0.61
1697352707.4,-0.14,0.81,1.02,3.4,-0.6,14.8,0.79,0.06,-0.01,0.61
1697352707.41,0.04,1.05,0.64,3.3,0.1,19.8,0.79,0.06,-0.01,0.61
1697352707.42,-0.08,1.05,0.93,5.4,0.9,24.6,0.79,0.06,-0.01,0.61
1697352707.43,-0.15,0.97,1.09,10.9,1.3,31.2,0.79,0.06,-0.01,0.61
1697352707.44,-0.07,0.63,0.85,8.2,1.1,33,0.79,0.06,-0.01,0.62
1697352707.45,-0.08,0.99,0.91,4.3,0.1,34.6,0.79,0.06,-0.01,0.62
1697352707.46,0.01,1.15,0.89,4.6,0.2,37,0.78,0.06,-0.01,0.62
1697352707.47,-0.21,1.01,1.14,8.5,-1.6,38.8,0.78,0.06,-0.01,0.62
1697352707.48,-0.16,0.96,0.94,9.8,-2.1,39.1,0.78,0.06,-0.01,0.63
1697352707.49,-0.34,0.79,1.08,6.9,-1,39,0.78,0.06,-0.01,0.63
1697352707.5,-0.48,0.65,0.9,2.7,-0.4,38.1,0.78,0.06,-0.01,0.63
1697352707.51,-0.42,0.93,1.34,-0.8,0.3,36.6,0.77,0.06,-0.01,0.63
1697352707.52,-0.22,0.97,0.71,-2.9,1.2,36.6,0.77,0.06,-0.01,0.63
1697352707.53,-0.05,1.09,1.04,-1.5,1.1,37,0.77,0.06,-0.01,0.64
1697352707.54,-0.01,0.99,0.93,-0.5,-0.2,39.1,0.77,0.06,-0.01,0.64
1697352707.55,-0.01,0.99,0.93,-0.5,-0.2,39.1,0.77,0.06,-0.01,0.64
1697352707.56,-0.01,0.99,0.93,-0.5,-0.2,39.1,0.77,0.06,-0.01,0.64
1697352707.57,-0.01,0.99,0.93,-0.5,-0.2,39.1,0.77,0.06,-0.01,0.64
1697352707.58,-0.01,0.99,0.93,-0.5,-0.2,39.1,0.77,0.06,-0.01,0.64
1697352707.59,-0.01,0.99,0.93,-0.5,-0.2,39.1,0.77,0.06,-0.01,0.64
1697352707.6,-0.01,0.99,0.93,-0.5,-0.2,39.1,0.77,0.06,-0.01,0.64
1697352707.61,-0.01,0.99,0.93,-0.5,-0.2,39.1,0.77,0.06,-0.01,0.64
1697352707.62,-0.01,0.99,0.93,-0.5,-0.2,39.1,0.77,0.06,-0.01,0.64
1697352707.63,-0.01,0.99,0.93,-0.5,-0.2,39.1,0.77,0.06,-0.01,0.64
1697352707.64,-0.01,0.99,0.93,-0.5,-0.2,39.1,0.77,0.06,-0.01,0.64
1697352707.65,-0.01,0.99,0.93,-0.5,-0.2,39.1,0.77,0.06,-0.01,0.64
1697352707.66,-0.01,0.99,0.93,-0.5,-0.2,39.1,0.77,0.06,-0.01,0.64
1697352707.67,-0.01,0.99,0.93,-0.5,-0.2,39.1,0.77,0.06,-0.01,0.64
1697352707.68,-0.01,0.99,0.93,-0.5,-0.2,39.1,0.77,0.06,-0.01,0.64
1697352707.69,0.05,1.28,0.51,2.1,4.9,47.6,0.73,0.06,-0.01,0.68
1697352707.7,-0.21,0.98,1.25,6.5,3.9,48.5,0.73,0.06,-0.01,0.68
1697352707.71,0.04,0.75,0.92,7.8,2.9,48.9,0.73,0.06,-0.01,0.69
1697352707.72,-0.15,0.69,1.06,3.3,0.8,48.5,0.72,0.06,-0.01,0.69
1697352707.73,-0.14,0.78,0.78,-1,-1,48.3,0.72,0.06,-0.01,0.69
1697352707.74,-0.29,0.88,0.87,-3.1,-1.9,47.8,0.72,0.06,-0.01,0.7
1697352707.75,-0.3,0.94,0.8,-2.7,-1.7,46.7,0.71,0.06,-0.01,0.7
1697352707.76,-0.19,1.03,0.79,-1.1,-1.7,46.4,0.71,0.06,-0.01,0.7
1697352707.77,-0.13,1.15,0.66,1,-1.5,46.9,0.71,0.06,-0.01,0.7
1697352707.78,-0.16,0.98,1.12,3.4,-1.5,47.4,0.7,0.06,-0.01,0.71
1697352707.79,-0.08,0.76,1.03,4.5,-1,47.8,0.7,0.06,-0.01,0.71
1697352707.8,-0.25,0.79,1.11,1.3,-1,48.1,0.7,0.06,-0.01,0.71
1697352707.81,-0.04,0.94,1.11,1.3,-1,48.1,0.69,0.06,-0.01,0.72
1697352707.82,-0.23,1.05,0.95,-4.7,1.2,48.8,0.69,0.06,-0.01,0.72
1697352707.83,-0.24,1.09,1,-2.3,2.2,48.8,0.69,0.06,-0.01,0.72
1697352707.84,-0.17,1.05,1.03,0.7,2.9,49.4,0.69,0.06,-0.01,0.73
1697352707.85,-0.17,1.05,1.03,0.7,2.9,49.4,0.68,0.06,-0.01,0.73
1697352707.86,0.17,0.9,1.1,1,3.9,49.4,0.68,0.06,-0.01,0.73
1697352707.87,0.17,0.9,1.1,1,3.9,49.4,0.68,0.06,-0.01,0.73
1697352707.88,-0.07,1.03,1.37,1.1,1.6,48.6,0.67,0.06,-0.01,0.74
1697352707.89,-0.07,1.03,1.37,1.1,1.6,48.6,0.67,0.06,-0.01,0.74
1697352707.9,0.07,0.84,0.63,2.4,0.1,48.7,0.67,0.06,-0.01,0.74
1697352707.91,-0.13,0.81,0.43,2,-0.2,49,0.66,0.06,-0.01,0.75
1697352707.92,-0.13,0.81,0.43,-1.7,-0.5,49.9,0.66,0.06,-0.01,0.75
1697352707.93,-0.06,1.08,0.42,-4.1,-0.8,50,0.66,0.06,-0.01,0.75
1697352707.94,-0.33,1.03,1.43,-4.3,-1.3,50,0.65,0.06,-0.01,0.76
1697352707.95,-0.33,1.03,1.43,-1.2,-0.4,50.5,0.65,0.06,-0.02,0.76
1697352707.96,-0.35,0.86,1.67,1.9,0.1,50.5,0.64,0.06,-0.02,0.76
1697352707.97,-0.36,0.78,1.56,3.4,0.4,50.3,0.64,0.06,-0.02,0.76
1697352707.98,0.04,0.94,0.64,2.7,1.6,49.9,0.64,0.06,-0.02,0.77
1697352707.99,-0.22,0.89,0.97,0.3,2.7,49.5,0.63,0.06,-0.02,0.77
1697352708,-0.22,0.89,0.97,-1.6,3.3,48.9,0.63,0.06,-0.02,0.77
1697352708.01,-0.26,0.99,1.07,-2.6,3.3,48.4,0.63,0.06,-0.02,0.77
1697352708.02,-0.15,1.09,0.95,-2.6,3.3,48.4,0.63,0.06,-0.02,0.78
1697352708.03,-0.21,1.09,0.9,-0.5,2.9,48.6,0.62,0.06,-0.02,0.78
1697352708.04,-0.3,1.02,1.48,2,2.9,48.6,0.62,0.06,-0.02,0.78
1697352708.05,0.09,0.83,0.58,3.3,1.8,48.6,0.62,0.06,-0.02,0.78
1697352708.06,-0.1,0.61,1.19,1.2,0.3,48.3,0.61,0.06,-0.02,0.79
1697352708.07,-0.1,0.6,1.11,-2.3,-0.9,47.5,0.61,0.06,-0.02,0.79
1697352708.08,-0.05,0.63,0.9,-5.5,-1.7,46.5,0.61,0.06,-0.02,0.79
1697352708.09,-0.03,0.74,0.95,-6,-2,45.3,0.6,0.06,-0.02,0.79
1697352708.1,-0.03,0.74,0.95,-6,-2,45.3,0.6,0.06,-0.02,0.79
1697352708.11,-0.03,0.74,0.95,-6,-2,45.3,0.6,0.06,-0.02,0.79
1697352708.12,-0.03,0.74,0.95,-6,-2,45.3,0.6,0.06,-0.02,0.79
1697352708.13,-0.03,0.74,0.95,-6,-2,45.3,0.6,0.06,-0.02,0.79
1697352708.14,-0.03,0.74,0.95,-6,-2,45.3,0.6,0.06,-0.02,0.79
1697352708.15,-0.03,0.74,0.95,-6,-2,45.3,0.6,0.06,-0.02,0.79
1697352708.16,-0.03,0.74,0.95,-6,-2,45.3,0.6,0.06,-0.02,0.79
1697352708.17,-0.03,0.74,0.95,-6,-2,45.3,0.6,0.06,-0.02,0.79
1697352708.18,-0.03,0.74,0.95,-6,-2,45.3,0.6,0.06,-0.02,0.79
1697352708.19,-0.03,0.74,0.95,-6,-2,45.3,0.6,0.06,-0.02,0.79
1697352708.2,-0.03,0.74,0.95,-6,-2,45.3,0.6,0.06,-0.02,0.79
1697352708.21,-0.03,0.74,0.95,-6,-2,45.3,0.6,0.06,-0.02,0.79
1697352708.22,-0.03,0.74,0.95,-6,-2,45.3,0.6,0.06,-0.02,0.79
1697352708.23,-0.08,0.08,1.06,-7.6,-1.8,18.3,0.57,0.05,-0.02,0.82
1697352708.24,0.05,-0.11,0.92,-6,-2.2,14.6,0.57,0.05,-0.02,0.82
1697352708.25,-0.11,-0.36,1.28,-4.5,-2.3,11.2,0.57,0.05,-0.02,0.82
1697352708.26,0.12,-0.5,0.78,-3.7,-2.3,7.2,0.57,0.05,-0.02,0.82
1697352708.27,0.12,-0.5,0.78,-5.3,-2,3.5,0.57,0.05,-0.02,0.82
1697352708.28,0.05,-0.53,0.73,-8.6,-1.6,-0.8,0.57,0.05,-0.03,0.82
1697352708.29,0.05,-0.53,0.73,-11.4,-0.9,-4.5,0.57,0.05,-0.03,0.82
1697352708.3,-0.23,-0.88,1.23,-11.2,0,-8.2,0.57,0.05,-0.03,0.82
1697352708.31,-0.23,-0.88,1.23,-10.1,0.5,-12,0.57,0.05,-0.03,0.82
1697352708.32,0.04,-0.92,0.94,-8.2,0.7,-15.7,0.57,0.05,-0.03,0.82
1697352708.33,-0.02,-1,1.06,-6.7,0.2,-19.1,0.57,0.05,-0.03,0.82
1697352708.34,-0.02,-1,1.06,-6.9,-0.3,-24,0.57,0.05,-0.03,0.82
1697352708.35,0.17,-1.02,0.7,-8.6,-0.7,-27.5,0.58,0.05,-0.03,0.82
1697352708.36,-0.03,-0.94,0.94,-10.5,-1,-30.4,0.58,0.05,-0.03,0.81
1697352708.37,-0.03,-0.94,0.94,-9.6,-1.5,-33.6,0.58,0.05,-0.03,0.81
1697352708.38,0.21,-0.98,0.69,-7.4,-1.9,-36.7,0.58,0.05,-0.03,0.81
1697352708.39,-0.15,-0.85,0.87,-3.8,-2,-39.9,0.58,0.05,-0.03,0.81
1697352708.4,-0.28,-0.89,1.19,-0.8,-2,-42,0.59,0.05,-0.03,0.81
1697352708.41,0.07,-1,0.99,0,-1.9,-43.7,0.59,0.05,-0.03,0.8
1697352708.42,0.08,-1.06,0.34,-0.9,-1.3,-44.8,0.59,0.05,-0.03,0.8
1697352708.43,-0.34,-1.04,1.51,-3.4,-0.7,-45.3,0.6,0.05,-0.03,0.8
1697352708.44,0.05,-0.85,0.74,-3.4,-0.7,-45.3,0.6,0.05,-0.03,0.8
1697352708.45,0.1,-0.87,0.75,-4.7,-0.2,-45,0.6,0.05,-0.03,0.79
1697352708.46,-0.02,-0.81,1.24,-1.2,1.2,-43.4,0.61,0.05,-0.03,0.79
1697352708.47,0.12,-0.96,1.14,-1.2,1.2,-43.4,0.61,0.05,-0.03,0.79
1697352708.48,-0.03,-0.94,1.18,1,1.2,-42.4,0.61,0.05,-0.03,0.79
1697352708.49,0.01,-1.1,0.83,2.1,0.8,-42.6,0.62,0.05,-0.03,0.79
1697352708.5,0.05,-1.02,0.75,0.3,0.4,-42.9,0.62,0.05,-0.03,0.78
1697352708.51,-0.01,-0.98,0.91,-1.5,0.2,-44.2,0.62,0.05,-0.03,0.78
1697352708.52,-0.06,-1.01,0.57,-2.5,0.2,-45.2,0.63,0.05,-0.03,0.78
1697352708.53,-0.28,-1.04,1.68,-2.6,0,-46.8,0.63,0.05,-0.03,0.78
1697352708.54,0.15,-0.98,0.39,-2.3,0.6,-48.8,0.63,0.05,-0.03,0.77
1697352708.55,-0.3,-0.95,1.27,-2.2,0.4,-50.4,0.64,0.05,-0.03,0.77
1697352708.56,-0.14,-1.06,1.07,-0.6,0.3,-52.2,0.64,0.05,-0.03,0.77
1697352708.57,0.02,-1.22,0.53,1.2,0.1,-53.6,0.64,0.05,-0.03,0.76
1697352708.58,-0.42,-1.06,1.44,0.3,0,-54.6,0.65,0.05,-0.03,0.76
1697352708.59,-0.03,-1.03,0.92,-2.6,1.2,-55.6,0.65,0.05,-0.03,0.76
1697352708.6,0.09,-0.74,0.58,-5.4,2,-55.7,0.65,0.05,-0.03,0.75
1697352708.61,0.09,-0.74,0.58,-5.4,2,-55.7,0.65,0.05,-0.03,0.75
1697352708.62,0.09,-0.74,0.58,-5.4,2,-55.7,0.65,0.05,-0.03,0.75
1697352708.63,0.09,-0.74,0.58,-5.4,2,-55.7,0.65,0.05,-0.03,0.75
1697352708.64,0.09,-0.74,0.58,-5.4,2,-55.7,0.65,0.05,-0.03,0.75
1697352708.65,0.09,-0.74,0.58,-5.4,2,-55.7,0.65,0.05,-0.03,0.75
1697352708.66,0.09,-0.74,0.58,-5.4,2,-55.7,0.65,0.05,-0.03,0.75
1697352708.67,0.09,-0.74,0.58,-5.4,2,-55.7,0.65,0.05,-0.03,0.75
1697352708.68,0.09,-0.74,0.58,-5.4,2,-55.7,0.65,0.05,-0.03,0.75
1697352708.69,0.09,-0.74,0.58,-5.4,2,-55.7,0.65,0.05,-0.03,0.75
1697352708.7,0.09,-0.74,0.58,-5.4,2,-55.7,0.65,0.05,-0.03,0.75
1697352708.71,0.09,-0.74,0.58,-5.4,2,-55.7,0.65,0.05,-0.03,0.75
1697352708.72,0.09,-0.74,0.58,-5.4,2,-55.7,0.65,0.05,-0.03,0.75
1697352708.73,-0.32,-1.11,1.19,0.3,4.1,-50.6,0.7,0.05,-0.02,0.71
1697352708.74,-0.14,-0.99,0.87,-0.4,2.8,-51.9,0.7,0.05,-0.02,0.71
1697352708.75,-0.14,-0.99,0.87,-0.4,2.8,-51.9,0.7,0.05,-0.02,0.71
1697352708.76,-0.14,-0.99,0.87,-0.4,2.8,-51.9,0.7,0.05,-0.02,0.71
1697352708.77,-0.12,-0.98,0.92,-0.4,2.8,-51.9,0.7,0.05,-0.02,0.71
1697352708.78,-0.28,-0.96,0.96,3.2,0.4,-54.2,0.71,0.05,-0.02,0.7
1697352708.79,-0.28,-0.96,0.96,2.9,0.3,-54.9,0.72,0.05,-0.02,0.69
1697352708.8,-0.08,-1.17,0.87,0,0.8,-55.3,0.72,0.05,-0.02,0.69
1697352708.81,-0.04,-1.05,1.03,-1.9,1,-55.6,0.72,0.05,-0.02,0.69
1697352708.82,-0.18,-0.78,1.4,-1.7,0.8,-54.8,0.73,0.05,-0.02,0.68
1697352708.83,0.01,-0.8,0.67,-0.4,0.5,-54.1,0.73,0.05,-0.02,0.68
1697352708.84,-0.11,-0.9,1.11,1.1,0,-53.1,0.73,0.05,-0.02,0.68
1697352708.85,-0.03,-0.93,0.96,1,-0.2,-52.5,0.74,0.05,-0.02,0.67
1697352708.86,0.06,-0.96,0.51,0.3,-0.3,-52.6,0.74,0.05,-0.02,0.67
1697352708.87,-0.24,-1,1.32,-0.2,-0.4,-52.9,0.74,0.05,-0.02,0.67
1697352708.88,-0.1,-0.9,0.74,-0.2,0,-53,0.75,0.05,-0.02,0.66
1697352708.89,-0.17,-0.98,0.76,0.3,0,-53.3,0.75,0.05,-0.02,0.66
1697352708.9,-0.07,-0.86,0.84,1,0.2,-53.2,0.75,0.05,-0.02,0.66
1697352708.91,-0.23,-1.03,1.09,0.1,0.5,-53.4,0.76,0.05,-0.02,0.65
1697352708.92,-0.01,-1.05,0.85,-0.2,0.5,-54.1,0.76,0.05,-0.02,0.65
1697352708.93,-0.1,-1.02,1.19,-0.9,0.2,-54.5,0.76,0.05,-0.02,0.64
1697352708.94,-0.14,-0.82,0.63,0,0,-54.2,0.77,0.05,-0.02,0.64
1697352708.95,-0.16,-0.83,1.34,1.7,-0.3,-53.8,0.77,0.05,-0.02,0.64
1697352708.96,0.14,-0.82,0.52,2.4,0.1,-53.1,0.77,0.05,-0.02,0.63
1697352708.97,0.14,-0.82,0.52,2.4,0.1,-53.1,0.77,0.05,-0.02,0.63
1697352708.98,0.08,-0.78,0.76,3.3,0,-50,0.78,0.05,-0.02,0.63
1697352708.99,0.1,-0.73,0.68,2.7,0,-48.2,0.78,0.05,-0.02,0.62
1697352709,-0.18,-0.59,1.27,3,-0.3,-45.6,0.78,0.05,-0.02,0.62
1697352709.01,0.14,-0.51,0.89,3.7,0,-42.3,0.79,0.05,-0.02,0.62
1697352709.02,0.07,-0.5,1.09,3.6,-0.2,-38.3,0.79,0.05,-0.02,0.61
1697352709.03,0.2,-0.47,1.13,3.3,-0.4,-35,0.79,0.05,-0.02,0.61
1697352709.04,0.26,-0.39,0.97,2.3,-0.4,-32.2,0.79,0.05,-0.02,0.61
1697352709.05,0.05,-0.45,1.37,1.4,-0.2,-29.9,0.79,0.05,-0.02,0.61
1697352709.06,0.22,-0.22,0.85,2,0.2,-27.7,0.79,0.05,-0.01,0.6
1697352709.07,0.22,-0.22,0.85,2,0.2,-27.7,0.79,0.05,-0.01,0.6
1697352709.08,0.04,-0.05,1.25,5.5,0.5,-24,0.8,0.05,-0.01,0.6
1697352709.09,0.04,0.03,0.9,5.5,0.5,-24,0.8,0.05,-0.01,0.6
1697352709.1,0.14,0.02,0.75,5.6,0.4,-21.7,0.8,0.05,-0.01,0.6
1697352709.11,0.14,0.24,0.91,4.2,0,-15.2,0.8,0.05,-0.01,0.6
1697352709.12,0.14,0.24,0.91,4.2,0,-15.2,0.8,0.05,-0.01,0.6
1697352709.13,0.07,0.39,1.4,4.9,-0.4,-11,0.8,0.06,-0.01,0.6
1697352709.14,0.07,0.39,1.4,4.9,-0.4,-11,0.8,0.06,-0.01,0.6
1697352709.15,0.07,0.39,1.4,4.9,-0.4,-11,0.8,0.06,-0.01,0.6
1697352709.16,0.07,0.39,1.4,4.9,-0.4,-11,0.8,0.06,-0.01,0.6
1697352709.17,0.07,0.39,1.4,4.9,-0.4,-11,0.8,0.06,-0.01,0.6
1697352709.18,0.07,0.39,1.4,4.9,-0.4,-11,0.8,0.06,-0.01,0.6
1697352709.19,0.07,0.39,1.4,4.9,-0.4,-11,0.8,0.06,-0.01,0.6
1697352709.2,0.07,0.39,1.4,4.9,-0.4,-11,0.8,0.06,-0.01,0.6
1697352709.21,0.07,0.39,1.4,4.9,-0.4,-11,0.8,0.06,-0.01,0.6
1697352709.22,0.07,0.39,1.4,4.9,-0.4,-11,0.8,0.06,-0.01,0.6
1697352709.23,0.07,0.39,1.4,4.9,-0.4,-11,0.8,0.06,-0.01,0.6
1697352709.24,0.07,0.39,1.4,4.9,-0.4,-11,0.8,0.06,-0.01,0.6
1697352709.25,0.07,0.39,1.4,4.9,-0.4,-11,0.8,0.06,-0.01,0.6
1697352709.26,0.17,0.74,1.28,1,-2.4,31.2,0.79,0.06,-0.01,0.61
1697352709.27,0.25,0.77,0.69,-0.9,-2.6,31.6,0.79,0.06,-0.01,0.61
1697352709.28,0.18,0.92,1.11,-0.8,-2.5,32.1,0.79,0.06,-0.01,0.61
1697352709.29,0.07,0.85,1.09,0.2,-2.2,32.4,0.78,0.06,-0.01,0.62
1697352709.3,0.15,0.7,1,0.3,-1.6,32.6,0.78,0.06,-0.01,0.62
1697352709.31,0.19,0.74,0.92,0,-1.1,32.7,0.78,0.06,-0.01,0.62
1697352709.32,0.19,0.74,0.92,0,-1.1,32.7,0.78,0.06,-0.01,0.62
1697352709.33,0.08,0.46,0.89,-1.1,0.2,32.5,0.78,0.06,-0.01,0.63
1697352709.34,0.23,0.43,0.97,-3.4,1.2,32.2,0.78,0.06,-0.01,0.63
1697352709.35,0.19,0.58,0.95,-4.8,1.9,32.1,0.77,0.06,-0.01,0.63
1697352709.36,-0.01,0.62,0.72,-5,3.1,32.4,0.77,0.06,-0.01,0.63
1697352709.37,-0.01,0.62,0.72,-5,3.1,32.4,0.77,0.06,-0.01,0.63
1697352709.38,0.15,1.05,1.22,5,2.1,35.3,0.77,0.06,-0.01,0.64
1697352709.39,0.13,0.58,0.74,5.3,1.1,36.5,0.77,0.06,-0.01,0.64
1697352709.4,-0.04,0.41,1.13,2.1,-0.2,37.1,0.76,0.06,-0.01,0.64
1697352709.41,0.22,0.49,1.11,-3.3,-1.5,38.2,0.76,0.06,-0.01,0.65
1697352709.42,0.21,0.57,0.91,-4.8,-1.7,38.4,0.76,0.06,-0.01,0.65
1697352709.43,0.04,0.73,0.93,-3.1,-1.6,38.3,0.76,0.06,-0.02,0.65
1697352709.44,0.04,0.73,0.93,-3.1,-1.6,38.3,0.76,0.06,-0.02,0.65
1697352709.45,0.17,0.68,0.68,-0.2,-1.1,38.3,0.75,0.06,-0.02,0.65
1697352709.46,0.22,0.7,0.7,2.6,-0.4,38.1,0.75,0.06,-0.02,0.66
1697352709.47,0.12,0.64,1.03,5.3,0.4,37.1,0.75,0.06,-0.02,0.66
1697352709.48,0.12,0.64,1.03,5.7,1,36.6,0.75,0.06,-0.02,0.66
1697352709.49,0.09,0.56,1.07,2.4,1.3,36.2,0.74,0.06,-0.02,0.66
1697352709.5,-0.03,0.5,0.94,-1.6,1.7,36.1,0.74,0.06,-0.02,0.67
1697352709.51,0.1,0.6,1.01,-4.3,2,35.7,0.74,0.06,-0.02,0.67
1697352709.52,0,0.71,0.99,-5.4,2,35.8,0.74,0.06,-0.02,0.67
1697352709.53,-0.09,0.96,1.21,-3.2,1.9,35.9,0.74,0.06,-0.02,0.67
1697352709.54,0.02,0.99,1.16,1.6,3.2,36.2,0.73,0.06,-0.02,0.68
1697352709.55,-0.2,0.79,1.46,5.4,2.7,36.3,0.73,0.06,-0.02,0.68
1697352709.56,0.29,0.52,0.75,3.7,2.7,36,0.73,0.06,-0.02,0.68
1697352709.57,0.08,0.42,1.17,1.9,1.9,34.9,0.73,0.06,-0.02,0.68
1697352709.58,0.11,0.43,0.9,-0.9,0.9,34.3,0.73,0.06,-0.02,0.69
1697352709.59,0.12,0.59,0.81,-2.6,-0.5,33.4,0.73,0.06,-0.02,0.69
1697352709.6,0.12,0.59,0.81,-1.7,-1.6,32.9,0.72,0.06,-0.02,0.69
1697352709.61,0.2,0.6,0.8,-0.2,-2.6,32,0.72,0.06,-0.02,0.69
1697352709.62,0.12,0.43,0.98,1,-2.5,30.7,0.72,0.06,-0.02,0.69
1697352709.63,0.02,0.4,1,-0.6,-1.6,29.7,0.72,0.06,-0.02,0.7
1697352709.64,0.05,0.35,0.81,-1.9,-1.1,27.9,0.71,0.06,-0.02,0.7
1697352709.65,0.05,0.35,0.81,-1.9,-1.1,27.9,0.71,0.06,-0.02,0.7
1697352709.66,0.05,0.35,0.81,-1.9,-1.1,27.9,0.71,0.06,-0.02,0.7
1697352709.67,0.05,0.35,0.81,-1.9,-1.1,27.9,0.71,0.06,-0.02,0.7
1697352709.68,0.05,0.35,0.81,-1.9,-1.1,27.9,0.71,0.06,-0.02,0.7
1697352709.69,0.05,0.35,0.81,-1.9,-1.1,27.9,0.71,0.06,-0.02,0.7
1697352709.7,0.05,0.35,0.81,-1.9,-1.1,27.9,0.71,0.06,-0.02,0.7
1697352709.71,0.05,0.35,0.81,-1.9,-1.1,27.9,0.71,0.06,-0.02,0.7
1697352709.72,0.05,0.35,0.81,-1.9,-1.1,27.9,0.71,0.06,-0.02,0.7
1697352709.73,0.05,0.35,0.81,-1.9,-1.1,27.9,0.71,0.06,-0.02,0.7
1697352709.74,0.05,0.35,0.81,-1.9,-1.1,27.9,0.71,0.06,-0.02,0.7
1697352709.75,0.05,0.35,0.81,-1.9,-1.1,27.9,0.71,0.06,-0.02,0.7
1697352709.76,0.05,0.35,0.81,-1.9,-1.1,27.9,0.71,0.06,-0.02,0.7
1697352709.77,0.05,0.35,0.81,-1.9,-1.1,27.9,0.71,0.06,-0.02,0.7
1697352709.78,0.05,0.35,0.81,-1.9,-1.1,27.9,0.71,0.06,-0.02,0.7
1697352709.79,0.16,0.1,0.97,0.3,0,12.2,0.7,0.06,-0.02,0.72
1697352709.8,0.01,0.06,1.16,-0.3,-0.2,11.5,0.7,0.06,-0.02,0.72
1697352709.81,0.11,0.07,0.67,-1.4,0.3,11,0.69,0.06,-0.02,0.72
