time,accel_x,accel_y,accel_z,gyro_x,gyro_y,gyro_z,quat_w,quat_x,quat_y,quat_z
1697353075.05,-0.21,0.6,0.88,0.5,0.2,59.6,0.87,0.05,-0,-0.49
1697353075.06,-0.25,0.55,1.04,1,0.5,60.5,0.87,0.05,-0.01,-0.49
1697353075.07,-0.25,0.55,1.04,1,0.5,60.5,0.87,0.05,-0.01,-0.48
1697353075.08,-0.12,0.52,0.84,0.9,0.9,61.3,0.88,0.05,-0.01,-0.48
1697353075.09,-0.17,0.52,0.93,0.9,0.9,61.3,0.88,0.05,-0.01,-0.47
1697353075.1,-0.2,0.47,1.03,0,0.7,60.8,0.88,0.05,-0.01,-0.47
1697353075.11,-0.2,0.47,1.03,0,0.7,60.8,0.88,0.05,-0.01,-0.46
1697353075.12,-0.16,0.54,0.85,-0.2,0.9,59.7,0.89,0.05,-0.01,-0.46
1697353075.13,-0.24,0.51,1.08,0,1.3,59.4,0.89,0.05,-0.01,-0.45
1697353075.14,-0.19,0.56,0.93,0,1.4,58.9,0.89,0.05,-0.01,-0.45
1697353075.15,-0.29,0.57,0.96,-0.4,2.1,58.9,0.89,0.05,-0.01,-0.44
1697353075.16,-0.33,0.57,1.07,-0.4,2.7,59.1,0.9,0.05,-0.01,-0.44
1697353075.17,-0.26,0.59,0.91,-0.5,2.8,59.8,0.9,0.05,-0.01,-0.43
1697353075.18,-0.2,0.62,1.06,-0.3,2.7,60.7,0.9,0.05,-0.01,-0.43
1697353075.19,-0.24,0.56,1.07,-0.6,2.4,61.5,0.9,0.05,-0.01,-0.43
1697353075.2,-0.24,0.56,1.07,-0.6,2.4,61.5,0.91,0.05,-0.01,-0.42
1697353075.21,-0.18,0.47,0.95,-0.7,2.1,62.2,0.91,0.05,-0.01,-0.41
1697353075.22,-0.18,0.47,0.95,-1.5,1.4,62.8,0.91,0.05,-0.01,-0.41
1697353075.23,-0.14,0.44,0.97,-2.1,0.9,62.8,0.91,0.05,-0.01,-0.4
1697353075.24,-0.16,0.46,1.06,-2.3,0.6,62.6,0.92,0.05,-0.01,-0.4
1697353075.25,-0.16,0.47,0.99,-2.1,0.3,62.4,0.92,0.05,-0.01,-0.39
1697353075.26,-0.19,0.46,1.13,-1.6,0.5,62,0.92,0.05,-0.01,-0.39
1697353075.27,-0.17,0.5,0.98,-0.8,0.6,61.3,0.92,0.05,-0.01,-0.39
1697353075.28,-0.19,0.43,1.06,-0.3,0.8,60.4,0.92,0.05,-0.01,-0.38
1697353075.29,-0.26,0.42,1.15,-0.5,0.8,59.9,0.92,0.05,-0.01,-0.38
1697353075.3,-0.15,0.46,0.89,-0.5,0.7,59.5,0.93,0.05,-0.01,-0.37
1697353075.31,-0.17,0.45,1.12,-0.9,1,59.1,0.93,0.05,-0.01,-0.37
1697353075.32,-0.1,0.45,0.99,-1.5,0.8,59.1,0.93,0.05,-0.01,-0.36
1697353075.33,-0.15,0.46,0.97,-1.7,0.9,58.9,0.93,0.05,-0.01,-0.36
1697353075.34,-0.17,0.43,0.94,-1.8,0.8,59,0.93,0.05,-0.01,-0.35
1697353075.35,-0.18,0.46,0.98,-1.1,0.7,59,0.94,0.05,-0.01,-0.35
1697353075.36,-0.16,0.45,1.04,-0.5,0.4,58.9,0.94,0.05,-0.01,-0.34
1697353075.37,-0.16,0.37,0.95,-0.1,-0.1,59.1,0.94,0.05,-0.01,-0.34
1697353075.38,-0.18,0.35,0.9,0,-0.6,58.8,0.94,0.05,-0.01,-0.33
1697353075.39,-0.12,0.43,0.91,-0.9,-0.2,58.6,0.94,0.05,-0.01,-0.33
1697353075.4,-0.19,0.48,1.04,-1.9,-0.1,58.5,0.94,0.05,-0.01,-0.32
1697353075.41,-0.2,0.44,1.03,-1.9,-0.1,58.5,0.94,0.05,-0.01,-0.32
1697353075.42,-0.18,0.5,0.96,-0.2,0.1,58,0.95,0.05,-0.01,-0.31
1697353075.43,-0.18,0.5,0.96,-0.2,0.1,58,0.95,0.05,-0.01,-0.31
1697353075.44,-0.18,0.5,0.96,-0.2,0.1,58,0.95,0.05,-0.01,-0.31
1697353075.45,-0.18,0.5,0.96,-0.2,0.1,58,0.95,0.05,-0.01,-0.31
1697353075.46,-0.18,0.5,0.96,-0.2,0.1,58,0.95,0.05,-0.01,-0.31
1697353075.47,-0.18,0.5,0.96,-0.2,0.1,58,0.95,0.05,-0.01,-0.31
1697353075.48,-0.18,0.5,0.96,-0.2,0.1,58,0.95,0.05,-0.01,-0.31
1697353075.49,-0.18,0.5,0.96,-0.2,0.1,58,0.95,0.05,-0.01,-0.31
1697353075.5,-0.18,0.5,0.96,-0.2,0.1,58,0.95,0.05,-0.01,-0.31
1697353075.51,-0.18,0.5,0.96,-0.2,0.1,58,0.95,0.05,-0.01,-0.31
1697353075.52,-0.18,0.5,0.96,-0.2,0.1,58,0.95,0.05,-0.01,-0.31
1697353075.53,-0.18,0.5,0.96,-0.2,0.1,58,0.95,0.05,-0.01,-0.31
1697353075.54,-0.18,0.5,0.96,-0.2,0.1,58,0.95,0.05,-0.01,-0.31
1697353075.55,-0.18,0.5,0.96,-0.2,0.1,58,0.95,0.05,-0.01,-0.31
1697353075.56,0.28,0.34,0.96,-3,-3.8,53.1,0.97,0.05,-0.02,-0.25
1697353075.57,0.01,0.57,1.09,-1.8,-3.6,53.3,0.97,0.05,-0.02,-0.25
1697353075.58,-0.18,0.37,0.9,0.6,-1.8,53.7,0.97,0.05,-0.02,-0.24
1697353075.59,-0.24,0.45,0.67,1.5,-0.1,54.9,0.97,0.05,-0.02,-0.24
1697353075.6,-0.25,0.5,1,3,1.3,56.7,0.97,0.05,-0.02,-0.23
1697353075.61,-0.29,0.42,0.93,2.3,3.1,58.3,0.97,0.05,-0.02,-0.23
1697353075.62,-0.23,0.45,1.04,1.5,3.5,59.5,0.97,0.05,-0.02,-0.23
1697353075.63,-0.17,0.41,0.97,0.6,3.1,60.4,0.98,0.05,-0.02,-0.21
1697353075.64,-0.16,0.5,1.14,0.8,2.7,60.6,0.98,0.05,-0.02,-0.21
1697353075.65,-0.12,0.43,1.08,1,2,60.4,0.98,0.05,-0.02,-0.2
1697353075.66,-0.06,0.42,0.87,1.1,1,59.8,0.98,0.05,-0.02,-0.2
1697353075.67,-0.1,0.35,1.16,0.6,0.2,58.8,0.98,0.05,-0.02,-0.19
1697353075.68,-0.08,0.36,0.88,-0.1,-0.3,57.8,0.98,0.05,-0.02,-0.19
1697353075.69,-0.1,0.38,0.77,-0.3,-0.4,56.8,0.98,0.05,-0.02,-0.18
1697353075.7,-0.13,0.42,1.17,-0.4,-0.8,55.7,0.98,0.05,-0.02,-0.18
1697353075.71,0.05,0.45,1.13,-0.4,-0.7,54.1,0.98,0.05,-0.02,-0.17
1697353075.72,0.03,0.42,1.13,-0.3,-0.8,53.3,0.98,0.05,-0.02,-0.17
1697353075.73,0.02,0.42,1.05,-0.3,-0.8,53.3,0.99,0.05,-0.02,-0.16
1697353075.74,-0.07,0.44,0.92,-0.3,-0.7,53,0.99,0.05,-0.02,-0.16
1697353075.75,-0.17,0.46,1.01,-0.7,-0.3,53.4,0.99,0.05,-0.02,-0.15
1697353075.76,-0.23,0.41,0.87,-1.5,1.5,56,0.99,0.05,-0.02,-0.15
1697353075.77,-0.22,0.34,0.9,-1.2,2.5,57.1,0.99,0.05,-0.02,-0.14
1697353075.78,-0.2,0.41,1.08,-0.5,3.1,58.6,0.99,0.05,-0.02,-0.14
1697353075.79,-0.12,0.28,0.91,-0.5,3.1,58.6,0.99,0.05,-0.02,-0.13
1697353075.8,-0.06,0.29,0.92,-0.2,3.6,59,0.99,0.05,-0.02,-0.13
1697353075.81,-0.14,0.31,1.04,0.1,3.9,58.9,0.99,0.05,-0.02,-0.12
1697353075.82,-0.14,0.31,1.04,0.1,3.9,58.9,0.99,0.05,-0.02,-0.12
1697353075.83,-0.08,0.2,0.83,-0.4,3.8,58.4,0.99,0.05,-0.02,-0.12
1697353075.84,-0.08,0.38,0.98,-1.2,3.6,57.6,0.99,0.05,-0.02,-0.11
1697353075.85,-0.09,0.41,0.95,-0.4,1.4,55,0.99,0.05,-0.02,-0.1
1697353075.86,-0.1,0.46,0.91,-0.4,1.4,55,0.99,0.05,-0.02,-0.1
1697353075.87,-0.1,0.46,0.91,0.1,1,54.5,0.99,0.05,-0.02,-0.1
1697353075.88,-0.2,0.31,0.91,0.2,1.1,54,0.99,0.05,-0.02,-0.09
1697353075.89,-0.2,0.31,0.91,-0.1,2.3,53.3,1,0.05,-0.02,-0.09
1697353075.9,-0.18,0.38,1.06,-0.1,2.3,53.3,1,0.05,-0.02,-0.08
1697353075.91,-0.1,0.39,1,-0.6,3.2,53,1,0.05,-0.02,-0.08
1697353075.92,-0.21,0.32,1.1,0.3,4,53,1,0.05,-0.02,-0.07
1697353075.93,0.04,0.31,1.02,0.5,4.1,53,1,0.05,-0.02,-0.07
1697353075.94,0.05,0.28,0.91,0.4,4.2,52.8,1,0.05,-0.02,-0.06
1697353075.95,0.05,0.28,0.91,0.4,4.2,52.8,1,0.05,-0.02,-0.06
1697353075.96,0.05,0.28,0.91,0.4,4.2,52.8,1,0.05,-0.02,-0.06
1697353075.97,0.05,0.28,0.91,0.4,4.2,52.8,1,0.05,-0.02,-0.06
1697353075.98,0.05,0.28,0.91,0.4,4.2,52.8,1,0.05,-0.02,-0.06
1697353075.99,0.05,0.28,0.91,0.4,4.2,52.8,1,0.05,-0.02,-0.06
1697353076,0.05,0.28,0.91,0.4,4.2,52.8,1,0.05,-0.02,-0.06
1697353076.01,0.05,0.28,0.91,0.4,4.2,52.8,1,0.05,-0.02,-0.06
1697353076.02,0.05,0.28,0.91,0.4,4.2,52.8,1,0.05,-0.02,-0.06
1697353076.03,0.05,0.28,0.91,0.4,4.2,52.8,1,0.05,-0.02,-0.06
1697353076.04,0.05,0.28,0.91,0.4,4.2,52.8,1,0.05,-0.02,-0.06
1697353076.05,0.05,0.28,0.91,0.4,4.2,52.8,1,0.05,-0.02,-0.06
1697353076.06,0.05,0.28,0.91,0.4,4.2,52.8,1,0.05,-0.02,-0.06
1697353076.07,0.04,0.34,0.95,0,3.7,51.7,1,0.05,-0.02,0
1697353076.08,0.02,0.32,0.93,-0.5,3.9,51.1,1,0.05,-0.02,0.01
1697353076.09,0.01,0.3,0.95,-0.7,4.2,50.6,1,0.05,-0.02,0.01
1697353076.1,0.02,0.38,0.98,-1,4.6,50.2,1,0.06,-0.02,0.01
1697353076.11,-0.06,0.4,1.14,-1.4,5.1,50.6,1,0.05,-0.01,0.02
1697353076.12,-0.11,0.37,1.11,-0.8,5.2,51.1,1,0.05,-0.01,0.02
1697353076.13,-0.1,0.39,0.93,0.1,5.6,52,1,0.05,-0.01,0.03
1697353076.14,-0.1,0.39,0.93,0.1,5.6,52,1,0.05,-0.01,0.03
1697353076.15,-0.03,0.32,0.86,0.3,5.9,53,1,0.05,-0.01,0.03
1697353076.16,-0.03,0.32,0.86,0,5.4,53.9,1,0.05,-0.01,0.04
1697353076.17,0.1,0.32,0.96,-0.2,4,54.3,1,0.05,-0.01,0.04
1697353076.18,0.1,0.32,0.96,-0.2,4,54.3,1,0.05,-0.01,0.05
1697353076.19,0.13,0.29,0.96,-0.3,3.2,54,1,0.06,-0.01,0.05
1697353076.2,0.06,0.3,0.85,-0.3,2.3,53.2,1,0.06,-0.01,0.06
1697353076.21,0.06,0.3,0.85,-0.6,1.8,52.3,1,0.06,-0.01,0.06
1697353076.22,0.02,0.34,0.77,-0.8,1.9,51.8,1,0.06,-0.01,0.07
1697353076.23,-0.05,0.37,0.91,-0.7,2.1,51.4,1,0.06,-0.01,0.07
1697353076.24,-0.07,0.42,0.83,-0.9,3,51.5,1,0.06,-0.01,0.08
1697353076.25,-0.15,0.4,1.11,-0.6,4.1,52,1,0.06,-0.01,0.08
1697353076.26,-0.07,0.38,0.91,0.2,4.7,52.4,0.99,0.06,-0.01,0.09
1697353076.27,-0.03,0.39,0.91,0.8,5.5,52.9,0.99,0.06,-0.01,0.09
1697353076.28,0.02,0.32,1.14,1.5,5.6,53.3,0.99,0.06,-0.01,0.09
1697353076.29,0.03,0.31,1.15,1.5,4.8,53.5,0.99,0.06,-0.01,0.1
1697353076.3,0.06,0.35,1.16,1.1,4.3,53.4,0.99,0.06,-0.01,0.1
1697353076.31,0.07,0.34,1.03,0.6,3.4,53.4,0.99,0.06,-0.01,0.11
1697353076.32,0.05,0.32,0.89,0.3,2.3,53.6,0.99,0.06,-0.01,0.11
1697353076.33,-0.07,0.41,0.95,0.5,1.5,53.7,0.99,0.06,-0.01,0.12
1697353076.34,-0.03,0.37,0.96,0.5,0.8,54.1,0.99,0.06,-0.01,0.12
1697353076.35,-0.05,0.35,0.98,0.6,0.5,54.4,0.99,0.06,-0.01,0.13
1697353076.36,-0.02,0.35,0.86,0.1,0.5,54.7,0.99,0.06,-0.01,0.13
1697353076.37,-0.04,0.27,1,-0.1,0.8,54.9,0.99,0.06,-0.01,0.14
1697353076.38,-0.01,0.34,1.04,-0.3,0.9,54.8,0.99,0.06,-0.01,0.14
1697353076.39,0.02,0.36,1.11,-0.7,1.4,54.5,0.99,0.06,-0.01,0.15
1697353076.4,0.06,0.33,0.9,-0.2,1.7,54.1,0.99,0.06,-0.01,0.15
1697353076.41,0.01,0.38,1.05,0.5,1.9,53.6,0.99,0.06,-0.01,0.16
1697353076.42,-0,0.34,1.06,1.3,2.2,53.4,0.98,0.06,-0.01,0.16
1697353076.43,-0.02,0.35,0.95,1.2,2.1,53.4,0.98,0.06,-0.01,0.16
1697353076.44,-0.05,0.35,1.19,0.6,2,53.7,0.98,0.06,-0.01,0.17
1697353076.45,0,0.36,0.83,0.2,1.8,54.1,0.98,0.06,-0.01,0.18
1697353076.46,0,0.36,0.83,0.2,1.8,54.1,0.98,0.06,-0.01,0.18
1697353076.47,-0.05,0.38,0.93,-1.1,1.5,55.4,0.98,0.06,-0.01,0.18
1697353076.48,-0.05,0.38,0.93,-1.1,1.5,55.4,0.98,0.06,-0.01,0.18
1697353076.49,-0.05,0.38,0.93,-1.1,1.5,55.4,0.98,0.06,-0.01,0.18
1697353076.5,-0.05,0.38,0.93,-1.1,1.5,55.4,0.98,0.06,-0.01,0.18
1697353076.51,-0.05,0.38,0.93,-1.1,1.5,55.4,0.98,0.06,-0.01,0.18
1697353076.52,-0.05,0.38,0.93,-1.1,1.5,55.4,0.98,0.06,-0.01,0.18
1697353076.53,-0.05,0.38,0.93,-1.1,1.5,55.4,0.98,0.06,-0.01,0.18
1697353076.54,-0.05,0.38,0.93,-1.1,1.5,55.4,0.98,0.06,-0.01,0.18
1697353076.55,-0.05,0.38,0.93,-1.1,1.5,55.4,0.98,0.06,-0.01,0.18
1697353076.56,-0.05,0.38,0.93,-1.1,1.5,55.4,0.98,0.06,-0.01,0.18
1697353076.57,-0.05,0.38,0.93,-1.1,1.5,55.4,0.98,0.06,-0.01,0.18
1697353076.58,-0.05,0.38,0.93,-1.1,1.5,55.4,0.98,0.06,-0.01,0.18
1697353076.59,-0.05,0.38,0.93,-1.1,1.5,55.4,0.98,0.06,-0.01,0.18
1697353076.6,-0.01,0.37,0.98,0.2,0.5,56.2,0.97,0.06,-0.02,0.24
1697353076.61,0.07,0.33,0.86,0,0.2,56.2,0.97,0.06,-0.02,0.25
1697353076.62,0.07,0.38,1,0,-0.1,56,0.96,0.06,-0.02,0.25
1697353076.63,0.01,0.36,1.04,0.1,-0.3,55.9,0.96,0.06,-0.02,0.26
1697353076.64,0.07,0.39,0.94,0.3,-0.5,55.9,0.96,0.06,-0.02,0.26
1697353076.65,-0.02,0.42,0.94,0.9,-0.3,56.1,0.96,0.06,-0.02,0.27
1697353076.66,0.01,0.39,0.93,1,-0.7,56.5,0.96,0.06,-0.02,0.27
1697353076.67,-0.07,0.34,1.07,0.7,-0.6,56.9,0.96,0.06,-0.02,0.27
1697353076.68,-0.06,0.38,1.12,-0.5,-0.4,57.2,0.96,0.06,-0.02,0.28
1697353076.69,0,0.33,0.95,-1.4,0,57.5,0.96,0.06,-0.02,0.29
1697353076.7,0,0.45,1.13,-1.8,0.3,58,0.95,0.06,-0.02,0.29
1697353076.71,0.04,0.43,0.95,-0.8,0.7,57.9,0.95,0.06,-0.02,0.3
1697353076.72,0.02,0.43,1.09,0.3,0.3,57.6,0.95,0.06,-0.02,0.3
1697353076.73,0.1,0.39,0.91,1.4,-0.1,57.4,0.95,0.06,-0.02,0.31
1697353076.74,0.07,0.36,1.02,1.9,-0.5,57.2,0.95,0.06,-0.02,0.31
1697353076.75,0.07,0.4,0.91,1.6,-0.9,57,0.95,0.06,-0.02,0.32
1697353076.76,0.03,0.39,1.05,1,-1.3,57.3,0.94,0.06,-0.02,0.32
1697353076.77,-0.01,0.42,0.97,0.4,-1.5,57.6,0.94,0.06,-0.02,0.32
1697353076.78,0.01,0.41,0.97,0,-1.6,57.8,0.94,0.06,-0.02,0.33
1697353076.79,0.04,0.34,0.83,-0.2,-1.7,58.2,0.94,0.06,-0.02,0.33
1697353076.8,0.04,0.38,0.88,-0.5,-1.5,58.3,0.94,0.06,-0.02,0.34
1697353076.81,0.06,0.45,0.95,-0.6,-1.3,58.1,0.94,0.06,-0.02,0.34
1697353076.82,0.06,0.4,1.11,-0.1,-1.1,58.2,0.94,0.06,-0.02,0.35
1697353076.83,0.04,0.43,1.08,0.8,-0.9,57.8,0.93,0.06,-0.02,0.35
1697353076.84,-0.01,0.41,1.01,1.2,-0.2,57.6,0.93,0.06,-0.02,0.36
1697353076.85,0.01,0.4,1.02,0.8,0.2,57.8,0.93,0.06,-0.02,0.36
1697353076.86,0.01,0.41,0.96,0.4,0.6,57.7,0.93,0.06,-0.02,0.37
1697353076.87,-0.02,0.44,1,-0.7,1.2,58.6,0.93,0.06,-0.02,0.37
1697353076.88,-0.02,0.44,1,-0.7,1.2,58.6,0.92,0.06,-0.03,0.38
1697353076.89,-0.01,0.46,1.14,-0.5,1.3,59.2,0.92,0.06,-0.03,0.38
1697353076.9,-0,0.4,1.08,0,1,60,0.92,0.06,-0.03,0.39
1697353076.91,0.08,0.46,0.91,-0.3,0.5,60.3,0.92,0.06,-0.03,0.39
1697353076.92,0.1,0.43,1.03,-0.3,0.5,60.3,0.92,0.06,-0.03,0.4
1697353076.93,0.08,0.41,0.94,-1.5,-0.7,59.9,0.91,0.06,-0.03,0.4
1697353076.94,0.08,0.41,0.94,-1.5,-0.7,59.9,0.91,0.06,-0.03,0.4
1697353076.95,0.07,0.45,0.91,-1.7,-1,59.8,0.91,0.06,-0.03,0.41
1697353076.96,0.03,0.43,0.95,-1.8,-1.2,59.6,0.91,0.06,-0.03,0.42
1697353076.97,0.04,0.47,0.88,-0.8,-0.7,59.5,0.9,0.06,-0.03,0.42
1697353076.98,-0.04,0.47,0.97,0,0,59.3,0.9,0.06,-0.03,0.42
1697353076.99,-0.04,0.47,0.97,0,0,59.3,0.9,0.06,-0.03,0.42
1697353077,-0.04,0.47,0.97,0,0,59.3,0.9,0.06,-0.03,0.42
1697353077.01,-0.04,0.47,0.97,0,0,59.3,0.9,0.06,-0.03,0.42
1697353077.02,-0.04,0.47,0.97,0,0,59.3,0.9,0.06,-0.03,0.42
1697353077.03,-0.04,0.47,0.97,0,0,59.3,0.9,0.06,-0.03,0.42
1697353077.04,-0.04,0.47,0.97,0,0,59.3,0.9,0.06,-0.03,0.42
1697353077.05,-0.04,0.47,0.97,0,0,59.3,0.9,0.06,-0.03,0.42
1697353077.06,-0.04,0.47,0.97,0,0,59.3,0.9,0.06,-0.03,0.42
1697353077.07,-0.04,0.47,0.97,0,0,59.3,0.9,0.06,-0.03,0.42
1697353077.08,-0.04,0.47,0.97,0,0,59.3,0.9,0.06,-0.03,0.42
1697353077.09,-0.04,0.47,0.97,0,0,59.3,0.9,0.06,-0.03,0.42
1697353077.1,-0.04,0.47,0.97,0,0,59.3,0.9,0.06,-0.03,0.42
1697353077.11,-0.04,0.47,0.97,0,0,59.3,0.9,0.06,-0.03,0.42
1697353077.12,0.03,0.41,0.82,-0.6,-1.1,61.5,0.87,0.06,-0.03,0.49
1697353077.13,0.03,0.43,0.89,-0.2,-0.4,61.3,0.87,0.06,-0.03,0.5
1697353077.14,0.04,0.36,0.9,-0.1,0.1,61.1,0.86,0.06,-0.03,0.5
1697353077.15,0.03,0.47,1.06,0,0.8,60.7,0.86,0.06,-0.03,0.51
1697353077.16,-0.01,0.46,1.11,0,1.7,60.8,0.86,0.06,-0.03,0.51
1697353077.17,-0.01,0.49,1.03,0.5,2.4,61.3,0.85,0.06,-0.03,0.52
1697353077.18,0.01,0.53,1.02,1.1,3,61.9,0.85,0.06,-0.03,0.52
1697353077.19,-0.05,0.48,1.01,1.3,3.3,62.9,0.85,0.06,-0.03,0.52
1697353077.2,0,0.51,0.91,1.1,3.2,63.7,0.85,0.06,-0.03,0.53
1697353077.21,0.02,0.5,1.03,0.6,3,64.3,0.85,0.06,-0.03,0.53
1697353077.22,0.01,0.45,1.11,-0.2,2.3,64.9,0.84,0.05,-0.03,0.54
1697353077.23,0.08,0.55,1.08,-1.1,1.9,64.9,0.84,0.05,-0.03,0.54
1697353077.24,0.07,0.54,1.01,-1.5,1.1,64.9,0.84,0.05,-0.03,0.55
1697353077.25,0.06,0.56,0.95,-0.2,0.2,64.7,0.83,0.05,-0.03,0.55
1697353077.26,0.08,0.56,0.82,1.9,-0.6,64,0.83,0.05,-0.03,0.56
1697353077.27,0.03,0.44,1.02,3.2,-0.8,63.6,0.82,0.05,-0.04,0.56
1697353077.28,0.02,0.43,0.95,2.5,-0.8,63.2,0.82,0.05,-0.04,0.56
1697353077.29,-0.02,0.51,0.86,0.5,0.2,63.1,0.82,0.05,-0.04,0.57
1697353077.3,0.04,0.51,0.86,0.5,0.2,63.1,0.82,0.05,-0.04,0.57
1697353077.31,-0,0.59,1.01,-1.8,1.6,63.8,0.81,0.05,-0.04,0.58
1697353077.32,0.05,0.55,1.12,-1.4,2.3,64.5,0.81,0.05,-0.04,0.58
1697353077.33,-0,0.53,1.19,-0.9,2.2,65,0.81,0.05,-0.04,0.59
1697353077.34,-0,0.53,1.19,-0.9,2.2,65,0.8,0.05,-0.04,0.59
1697353077.35,0.17,0.48,0.81,-0.2,1.9,65.4,0.8,0.05,-0.04,0.6
1697353077.36,0.11,0.48,1.08,0.1,1,65.3,0.8,0.05,-0.04,0.6
1697353077.37,0.07,0.49,1.16,1.2,0,65.2,0.79,0.05,-0.04,0.61
1697353077.38,0.05,0.35,0.99,1.2,0,65.2,0.79,0.05,-0.04,0.61
1697353077.39,0.03,0.46,0.88,0.7,-0.7,64.9,0.79,0.05,-0.04,0.61
1697353077.4,0.03,0.46,0.88,-0.7,-0.5,64.5,0.78,0.05,-0.04,0.62
1697353077.41,0.05,0.49,0.81,-2.3,0,64.5,0.78,0.05,-0.04,0.62
1697353077.42,-0.02,0.57,1.14,-1.6,0.2,64.5,0.78,0.05,-0.04,0.63
1697353077.43,0.04,0.58,0.99,1,0.1,64.2,0.77,0.05,-0.04,0.63
1697353077.44,0,0.48,1.21,2.8,0.5,64.3,0.77,0.05,-0.04,0.64
1697353077.45,0.05,0.49,0.93,2.6,0.7,64.4,0.76,0.05,-0.04,0.64
1697353077.46,-0.07,0.52,1.19,0.7,1.2,64.7,0.76,0.05,-0.04,0.65
1697353077.47,-0.04,0.56,1.15,0,1.7,65,0.76,0.05,-0.04,0.65
1697353077.48,-0.01,0.58,1.05,0,2.2,65.3,0.75,0.05,-0.04,0.65
1697353077.49,-0.03,0.53,1.15,0.2,2.1,65.7,0.75,0.05,-0.04,0.66
1697353077.5,-0.01,0.51,1.24,1.3,1.9,65.7,0.75,0.05,-0.04,0.66
1697353077.51,0.07,0.52,1.13,1.3,1.9,65.7,0.75,0.05,-0.04,0.66
1697353077.52,0.07,0.52,1.13,1.3,1.9,65.7,0.75,0.05,-0.04,0.66
1697353077.53,0.07,0.52,1.13,1.3,1.9,65.7,0.75,0.05,-0.04,0.66
1697353077.54,0.07,0.52,1.13,1.3,1.9,65.7,0.75,0.05,-0.04,0.66
1697353077.55,0.07,0.52,1.13,1.3,1.9,65.7,0.75,0.05,-0.04,0.66
1697353077.56,0.07,0.52,1.13,1.3,1.9,65.7,0.75,0.05,-0.04,0.66
1697353077.57,0.07,0.52,1.13,1.3,1.9,65.7,0.75,0.05,-0.04,0.66
1697353077.58,0.07,0.52,1.13,1.3,1.9,65.7,0.75,0.05,-0.04,0.66
1697353077.59,0.07,0.52,1.13,1.3,1.9,65.7,0.75,0.05,-0.04,0.66
1697353077.6,0.07,0.52,1.13,1.3,1.9,65.7,0.75,0.05,-0.04,0.66
1697353077.61,0.07,0.52,1.13,1.3,1.9,65.7,0.75,0.05,-0.04,0.66
1697353077.62,0.07,0.52,1.13,1.3,1.9,65.7,0.75,0.05,-0.04,0.66
1697353077.63,0.07,0.52,1.13,1.3,1.9,65.7,0.75,0.05,-0.04,0.66
1697353077.64,0.07,0.52,1.13,1.3,1.9,65.7,0.7,0.04,-0.04,0.71
1697353077.65,0.12,0.36,1.09,-1.6,0,57,0.69,0.04,-0.04,0.72
1697353077.66,0.13,0.29,1.2,-0.8,-0.5,56.2,0.69,0.04,-0.04,0.72
1697353077.67,0.18,0.23,1.06,-0.3,-0.8,55,0.68,0.04,-0.04,0.73
1697353077.68,0.16,0.23,0.96,-0.6,-1.1,53.7,0.68,0.04,-0.04,0.73
1697353077.69,0.1,0.22,1.04,-1,-1.1,52.6,0.68,0.04,-0.04,0.73
1697353077.7,0.15,0.28,1.02,-1.9,-0.9,51.3,0.67,0.04,-0.05,0.74
1697353077.71,0.21,0.33,0.9,-2.3,-0.1,50.2,0.67,0.04,-0.05,0.74
1697353077.72,0.21,0.33,0.9,-2.3,-0.1,50.2,0.67,0.04,-0.05,0.74
1697353077.73,0.11,0.21,0.94,3.8,0.6,48.3,0.66,0.04,-0.05,0.75
1697353077.74,0.2,0.03,1.04,3.8,0.6,48.3,0.66,0.04,-0.05,0.75
1697353077.75,0.21,0.11,1.07,4.7,-0.2,47.1,0.66,0.04,-0.05,0.75
1697353077.76,0.21,0.11,1.07,0.7,-1.2,45.5,0.66,0.04,-0.05,0.75
1697353077.77,0.2,0.15,0.9,-4.4,-2.1,42.2,0.65,0.04,-0.05,0.76
1697353077.78,0.2,0.15,0.9,-4.4,-2.1,42.2,0.65,0.04,-0.05,0.76
1697353077.79,0.25,0.34,0.37,-3.4,-2.6,40.5,0.65,0.04,-0.05,0.76
1697353077.8,0.1,0.29,0.91,-1.6,-2.6,39.3,0.64,0.04,-0.05,0.76
1697353077.81,0.17,0.16,0.63,0.5,-2.3,37.7,0.64,0.04,-0.05,0.76
1697353077.82,0.02,0.05,1.27,0.4,-1.7,36.2,0.64,0.04,-0.05,0.77
1697353077.83,0.12,0.01,1.19,-1.6,-1,34.6,0.64,0.04,-0.05,0.77
1697353077.84,0.13,0.01,1.03,-3,-0.3,32.9,0.64,0.04,-0.05,0.77
1697353077.85,0.17,0.04,0.77,-2.9,0.2,30.8,0.63,0.04,-0.05,0.77
1697353077.86,0.2,-0.02,0.72,-1.2,0.3,28.9,0.63,0.04,-0.05,0.77
1697353077.87,0.2,-0.12,1.1,1,0.1,26.2,0.63,0.04,-0.05,0.78
1697353077.88,0.13,-0.21,1.59,0.4,-0.1,24,0.62,0.04,-0.05,0.78
1697353077.89,0.25,-0.3,1.25,-1.3,-0.5,21.8,0.62,0.04,-0.05,0.78
1697353077.9,0.22,-0.13,1.22,-1.8,-0.7,20,0.62,0.04,-0.05,0.78
1697353077.91,0.14,-0.07,1.05,-0.9,0,18.4,0.62,0.04,-0.05,0.78
1697353077.92,0.17,-0.06,0.8,0.1,0.2,16.4,0.62,0.04,-0.05,0.78
1697353077.93,0.18,-0.29,0.86,0.1,0.2,16.4,0.62,0.04,-0.05,0.78
1697353077.94,0.2,-0.27,1.04,-1.9,-0.8,12.3,0.62,0.04,-0.05,0.78
1697353077.95,0.07,-0.4,1.19,-4.7,-0.2,9.7,0.62,0.04,-0.05,0.78
1697353077.96,0.27,-0.15,1.15,-6.2,0.2,6.7,0.62,0.04,-0.05,0.78
1697353077.97,0.18,-0.28,0.62,-4,0.5,3.4,0.62,0.04,-0.05,0.79
1697353077.98,0.09,-0.2,0.89,-2.1,0.6,0.4,0.62,0.04,-0.05,0.79
1697353077.99,0.17,-0.42,0.96,-2.1,0.6,0.4,0.62,0.04,-0.05,0.79
1697353078,0.19,-0.47,1.18,-1.8,0.5,-5.6,0.62,0.04,-0.05,0.78
1697353078.01,0.23,-0.39,1.14,-3.7,0.5,-8,0.62,0.04,-0.05,0.78
1697353078.02,0.08,-0.47,0.99,-4.1,0.9,-10.4,0.62,0.04,-0.05,0.78
1697353078.03,0.08,-0.47,0.99,-4.1,0.9,-10.4,0.62,0.04,-0.05,0.78
1697353078.04,0.17,-0.42,0.8,-3.2,1.1,-12.4,0.62,0.04,-0.05,0.78
1697353078.05,0.17,-0.42,0.8,-3.2,1.1,-12.4,0.62,0.04,-0.05,0.78
1697353078.06,0.17,-0.42,0.8,-3.2,1.1,-12.4,0.62,0.04,-0.05,0.78
1697353078.07,0.17,-0.42,0.8,-3.2,1.1,-12.4,0.62,0.04,-0.05,0.78
1697353078.08,0.17,-0.42,0.8,-3.2,1.1,-12.4,0.62,0.04,-0.05,0.78
1697353078.09,0.17,-0.42,0.8,-3.2,1.1,-12.4,0.62,0.04,-0.05,0.78
1697353078.1,0.17,-0.42,0.8,-3.2,1.1,-12.4,0.62,0.04,-0.05,0.78
1697353078.11,0.17,-0.42,0.8,-3.2,1.1,-12.4,0.62,0.04,-0.05,0.78
1697353078.12,0.17,-0.42,0.8,-3.2,1.1,-12.4,0.62,0.04,-0.05,0.78
1697353078.13,0.17,-0.42,0.8,-3.2,1.1,-12.4,0.62,0.04,-0.05,0.78
1697353078.14,0.17,-0.42,0.8,-3.2,1.1,-12.4,0.62,0.04,-0.05,0.78
1697353078.15,0.17,-0.42,0.8,-3.2,1.1,-12.4,0.62,0.04,-0.05,0.78
1697353078.16,0.17,-0.42,0.8,-3.2,1.1,-12.4,0.62,0.04,-0.05,0.78
1697353078.17,0.17,-0.42,0.8,-3.2,1.1,-12.4,0.62,0.04,-0.05,0.78
1697353078.18,0.17,-0.42,0.8,-3.2,1.1,-12.4,0.64,0.04,-0.05,0.76
1697353078.19,0.18,-0.02,1.05,-0.2,-0.3,-30.6,0.64,0.04,-0.05,0.76
1697353078.2,0.03,-0.1,1.16,2.4,0,-29.6,0.65,0.04,-0.05,0.76
1697353078.21,0.06,-0.3,0.97,5.5,0.3,-28.6,0.65,0.04,-0.05,0.76
1697353078.22,0.07,-0.3,0.89,4.1,0.3,-27.4,0.65,0.04,-0.05,0.76
1697353078.23,0.15,-0.23,1.28,-0.2,-0.1,-25.9,0.65,0.04,-0.05,0.76
1697353078.24,0.16,-0.04,0.85,-1.4,-0.5,-24.9,0.65,0.04,-0.05,0.75
1697353078.25,0.16,0.04,0.99,-1.5,-0.9,-23,0.65,0.04,-0.05,0.75
1697353078.26,0.14,0.09,0.97,0.1,-1.2,-21.1,0.66,0.04,-0.05,0.75
1697353078.27,0.13,0.02,1,1.9,-1.7,-19.2,0.66,0.04,-0.05,0.75
1697353078.28,0.01,-0.13,1.13,3.2,-2.1,-17.7,0.66,0.04,-0.05,0.75
1697353078.29,0.05,-0.17,1.07,3,-2,-16.6,0.66,0.04,-0.05,0.75
1697353078.3,0.13,-0.22,0.93,1.7,-1.6,-15.9,0.66,0.04,-0.05,0.75
1697353078.31,0.12,-0.24,1.09,0.4,-1.5,-15.7,0.66,0.04,-0.05,0.75
1697353078.32,0.14,-0.34,0.96,-0.1,-1.1,-16.6,0.66,0.04,-0.05,0.75
1697353078.33,0.1,-0.32,1.22,-0.1,-0.5,-17.6,0.66,0.04,-0.05,0.75
1697353078.34,0.15,-0.29,1.01,-0.4,-0.1,-21.2,0.66,0.04,-0.05,0.75
1697353078.35,0.13,-0.38,1.12,-0.4,-0.1,-21.2,0.67,0.04,-0.05,0.74
1697353078.36,0.06,-0.42,1.03,0,0.8,-24.2,0.67,0.04,-0.05,0.74
1697353078.37,0.05,-0.41,1.01,-1.4,2.3,-26.1,0.67,0.04,-0.05,0.74
1697353078.38,0.1,-0.5,0.8,-2.9,3.6,-27.1,0.67,0.04,-0.05,0.74
1697353078.39,0.1,-0.5,0.8,-2.9,3.6,-27.1,0.67,0.04,-0.05,0.74
1697353078.4,0.12,-0.49,0.85,-3.7,3.3,-30.4,0.68,0.04,-0.05,0.73
1697353078.41,0.12,-0.49,0.85,-3.7,3.3,-30.4,0.68,0.04,-0.05,0.73
1697353078.42,0.16,-0.58,1.28,-3.2,2.3,-32,0.68,0.04,-0.05,0.73
1697353078.43,0.16,-0.58,1.28,-3,0.5,-33.3,0.68,0.04,-0.05,0.73
1697353078.44,0.14,-0.59,1.18,-2.9,-1,-34.1,0.68,0.04,-0.05,0.73
1697353078.45,0.13,-0.69,1.11,-2.6,-2.5,-35.4,0.68,0.04,-0.05,0.73
1697353078.46,0.07,-0.5,1.2,-1.7,-3.4,-36.2,0.69,0.04,-0.05,0.72
1697353078.47,0.06,-0.51,0.73,-1.7,-3.4,-36.2,0.69,0.04,-0.05,0.72
1697353078.48,0.13,-0.56,1.06,-0.6,-3.7,-36.2,0.69,0.04,-0.05,0.72
1697353078.49,0.07,-0.65,1.01,0,-3,-36.6,0.69,0.04,-0.05,0.72
1697353078.5,-0.05,-0.7,0.95,-0.2,-2.4,-37.1,0.7,0.04,-0.05,0.71
1697353078.51,0.04,-0.59,0.89,-1.2,-1.7,-38,0.7,0.04,-0.05,0.71
1697353078.52,0.02,-0.54,1.16,-2.3,-0.7,-38.8,0.7,0.04,-0.05,0.71
1697353078.53,0.09,-0.47,0.96,-1.8,0,-39.6,0.7,0.04,-0.05,0.71
1697353078.54,0.11,-0.5,1.16,0.7,0.7,-40.8,0.71,0.04,-0.05,0.7
1697353078.55,0.1,-0.55,1.06,2.5,1.2,-41.6,0.71,0.04,-0.05,0.7
1697353078.56,0.1,-0.66,0.93,2.5,1.2,-41.6,0.71,0.04,-0.05,0.7
1697353078.57,0.1,-0.66,0.93,3.2,1.6,-42.1,0.71,0.04,-0.05,0.7
1697353078.58,0.1,-0.66,0.93,3.2,1.6,-42.1,0.71,0.04,-0.05,0.7
1697353078.59,0.1,-0.66,0.93,3.2,1.6,-42.1,0.71,0.04,-0.05,0.7
1697353078.6,0.1,-0.66,0.93,3.2,1.6,-42.1,0.71,0.04,-0.05,0.7
1697353078.61,0.1,-0.66,0.93,3.2,1.6,-42.1,0.71,0.04,-0.05,0.7
1697353078.62,0.1,-0.66,0.93,3.2,1.6,-42.1,0.71,0.04,-0.05,0.7
1697353078.63,0.1,-0.66,0.93,3.2,1.6,-42.1,0.71,0.04,-0.05,0.7
1697353078.64,0.1,-0.66,0.93,3.2,1.6,-42.1,0.71,0.04,-0.05,0.7
1697353078.65,0.1,-0.66,0.93,3.2,1.6,-42.1,0.71,0.04,-0.05,0.7
1697353078.66,0.1,-0.66,0.93,3.2,1.6,-42.1,0.71,0.04,-0.05,0.7
1697353078.67,0.1,-0.66,0.93,3.2,1.6,-42.1,0.71,0.04,-0.05,0.7
1697353078.68,0.1,-0.66,0.93,3.2,1.6,-42.1,0.71,0.04,-0.05,0.7
1697353078.69,0.1,-0.66,0.93,3.2,1.6,-42.1,0.71,0.04,-0.05,0.7
1697353078.7,0.07,-0.55,1.08,3.2,1.6,-42.1,0.71,0.04,-0.05,0.7
1697353078.71,0.07,-0.55,1.08,3.2,1.6,-42.1,0.71,0.04,-0.05,0.7
1697353078.72,0.07,-0.55,1.08,3.2,1.6,-42.1,0.71,0.04,-0.05,0.7
1697353078.73,0.07,-0.55,1.08,3.2,1.6,-42.1,0.71,0.04,-0.05,0.7
1697353078.74,0.02,-0.54,1.08,0.7,-0.3,-42,0.76,0.05,-0.05,0.65
1697353078.75,0.06,-0.53,0.84,0.8,-1,-41.8,0.76,0.05,-0.05,0.65
1697353078.76,0.12,-0.45,1.06,-2.8,-0.2,-41.8,0.76,0.05,-0.05,0.65
1697353078.77,0.12,-0.45,1.06,-2.8,-0.2,-41.8,0.76,0.05,-0.05,0.64
1697353078.78,0.15,-0.47,0.91,-4.4,0.2,-41,0.76,0.05,-0.05,0.64
1697353078.79,0.17,-0.4,0.91,-4.2,0.5,-40.7,0.77,0.05,-0.05,0.64
1697353078.8,0.1,-0.33,0.96,-2.6,0.8,-40.4,0.77,0.05,-0.05,0.64
1697353078.81,0.23,-0.47,0.43,0,0.9,-39.6,0.77,0.05,-0.05,0.63
1697353078.82,0.08,-0.69,1.15,2.2,1.5,-39.1,0.77,0.05,-0.05,0.63
1697353078.83,0.17,-0.79,1.07,0.3,1.4,-39.6,0.78,0.05,-0.05,0.63
1697353078.84,0.19,-0.58,0.79,-3,0.7,-40.6,0.78,0.05,-0.05,0.62
1697353078.85,0.18,-0.6,0.86,-5.1,0.2,-41,0.78,0.05,-0.05,0.62
1697353078.86,0.24,-0.33,1.03,-4.3,0.1,-41.7,0.78,0.05,-0.05,0.62
1697353078.87,0.03,-0.38,1.08,-1.7,-0.2,-42,0.79,0.05,-0.05,0.62
1697353078.88,0.24,-0.58,1.03,1,-0.5,-41.9,0.79,0.05,-0.05,0.61
1697353078.89,0.12,-0.67,1.04,2,-0.7,-42.5,0.79,0.05,-0.05,0.61
1697353078.9,0.07,-0.62,1.16,0,-1,-43.1,0.79,0.05,-0.05,0.61
1697353078.91,0.1,-0.53,1.09,-2.2,-0.5,-43.2,0.79,0.05,-0.04,0.6
1697353078.92,0.09,-0.45,1.02,-1.8,0.2,-43.8,0.8,0.05,-0.04,0.6
1697353078.93,0.06,-0.48,1.03,0.3,0.5,-43.8,0.8,0.05,-0.04,0.6
1697353078.94,0.17,-0.63,1.1,2.3,0.8,-43.6,0.8,0.05,-0.04,0.59
1697353078.95,0.1,-0.59,1.03,3.7,1.2,-44.2,0.8,0.05,-0.04,0.59
1697353078.96,0.1,-0.78,1.17,3.5,1.2,-44.2,0.81,0.05,-0.04,0.59
1697353078.97,0.15,-0.77,0.97,1.7,1.4,-44.6,0.81,0.05,-0.04,0.58
1697353078.98,0.04,-0.65,0.96,1.7,1.4,-44.6,0.81,0.05,-0.04,0.58
1697353078.99,0.16,-0.49,0.97,-5.7,0.7,-45,0.81,0.05,-0.04,0.58
1697353079,0.17,-0.36,0.87,-4.7,0.5,-45.5,0.82,0.05,-0.04,0.57
1697353079.01,0.19,-0.41,1.08,-1.7,0,-44.7,0.82,0.05,-0.04,0.57
1697353079.02,0.08,-0.6,0.98,0.8,-0.4,-44.3,0.82,0.05,-0.04,0.57
1697353079.03,0.09,-0.66,0.99,-0.9,0.5,-44.2,0.82,0.05,-0.04,0.56
1697353079.04,0.09,-0.66,0.99,-0.9,0.5,-44.2,0.82,0.05,-0.04,0.56
1697353079.05,-0.04,-0.59,1,-2.6,1.3,-44.3,0.83,0.05,-0.04,0.56
1697353079.06,-0.04,-0.59,1,-2.6,1.3,-44.3,0.83,0.05,-0.04,0.56
1697353079.07,0.13,-0.54,0.97,0.5,2,-44,0.83,0.05,-0.04,0.55
1697353079.08,0.13,-0.54,0.97,0.5,2,-44,0.83,0.05,-0.04,0.55
1697353079.09,0.09,-0.53,0.92,2.5,2.1,-43.9,0.83,0.05,-0.04,0.55
1697353079.1,0.14,-0.64,0.99,2.6,2.3,-44,0.84,0.05,-0.04,0.54
1697353079.11,0.02,-0.63,1.14,1.2,2.3,-43.9,0.84,0.05,-0.04,0.54
1697353079.12,0.02,-0.63,1.14,1.3,1.8,-44,0.84,0.05,-0.04,0.54
1697353079.13,0.02,-0.63,1.14,1.3,1.8,-44,0.84,0.05,-0.04,0.54
1697353079.14,0.02,-0.63,1.14,1.3,1.8,-44,0.84,0.05,-0.04,0.54
1697353079.15,0.02,-0.63,1.14,1.3,1.8,-44,0.84,0.05,-0.04,0.54
1697353079.16,0.02,-0.63,1.14,1.3,1.8,-44,0.84,0.05,-0.04,0.54
1697353079.17,0.02,-0.63,1.14,1.3,1.8,-44,0.84,0.05,-0.04,0.54
1697353079.18,0.02,-0.63,1.14,1.3,1.8,-44,0.84,0.05,-0.04,0.54
1697353079.19,0.02,-0.63,1.14,1.3,1.8,-44,0.84,0.05,-0.04,0.54
1697353079.2,0.02,-0.63,1.14,1.3,1.8,-44,0.84,0.05,-0.04,0.54
1697353079.21,0.02,-0.63,1.14,1.3,1.8,-44,0.84,0.05,-0.04,0.54
1697353079.22,0.02,-0.63,1.14,1.3,1.8,-44,0.84,0.05,-0.04,0.54
1697353079.23,0.02,-0.63,1.14,1.3,1.8,-44,0.84,0.05,-0.04,0.54
1697353079.24,0.02,-0.63,1.14,1.3,1.8,-44,0.84,0.05,-0.04,0.54
1697353079.25,0.16,-0.72,0.73,-1.3,2.1,-45.9,0.87,0.05,-0.04,0.49
1697353079.26,0.15,-0.63,1.02,-1.8,1.8,-45.9,0.87,0.05,-0.04,0.49
1697353079.27,0.15,-0.61,0.9,-2.6,1.1,-45.9,0.87,0.05,-0.04,0.48
1697353079.28,0.04,-0.55,1.14,-1.7,0.8,-45.7,0.87,0.05,-0.04,0.48
1697353079.29,0.08,-0.53,0.84,-0.2,0.8,-45.5,0.88,0.05,-0.04,0.48
1697353079.3,0.04,-0.6,0.98,0.4,0.8,-45,0.88,0.05,-0.03,0.47
1697353079.31,0.18,-0.64,0.71,0,1,-44.7,0.88,0.05,-0.03,0.47
1697353079.32,0.14,-0.58,1.08,-0.6,1.2,-44.2,0.88,0.05,-0.03,0.47
1697353079.33,0.12,-0.35,0.95,0.1,1.7,-43.8,0.88,0.05,-0.03,0.46
1697353079.34,0.18,-0.6,1.03,3.4,1.8,-42.8,0.89,0.05,-0.03,0.46
1697353079.35,0.14,-0.65,1.1,6.5,1.3,-42.8,0.89,0.05,-0.03,0.46
1697353079.36,0.14,-0.81,1.1,6.2,1,-42.9,0.89,0.05,-0.03,0.46
1697353079.37,0.02,-0.66,1.44,3.8,0,-43,0.89,0.05,-0.03,0.45
1697353079.38,0.15,-0.63,1.05,1.4,-0.4,-43.4,0.89,0.05,-0.03,0.45
1697353079.39,0.11,-0.53,0.98,1.4,-0.4,-43.4,0.89,0.05,-0.03,0.45
1697353079.4,0.11,-0.53,0.98,-0.9,-0.7,-42.8,0.89,0.05,-0.03,0.44
1697353079.41,0.19,-0.29,0.95,-1.9,-0.8,-42.8,0.9,0.05,-0.03,0.44
1697353079.42,0.22,-0.28,0.93,-0.1,-0.4,-41.5,0.9,0.05,-0.03,0.44
1697353079.43,0.24,-0.42,0.99,-0.1,-0.4,-41.5,0.9,0.05,-0.03,0.43
1697353079.44,0.24,-0.42,0.99,3.7,-1,-41.2,0.9,0.05,-0.03,0.43
1697353079.45,0.06,-0.84,1.18,7.2,-2.3,-41.1,0.9,0.05,-0.03,0.43
1697353079.46,0.19,-0.81,0.57,6.4,-3.6,-42.3,0.9,0.06,-0.03,0.42
1697353079.47,0.07,-0.78,0.97,0.3,-3.2,-42.9,0.91,0.06,-0.03,0.42
1697353079.48,0.15,-0.57,0.82,-5.9,-2.3,-42.8,0.91,0.05,-0.03,0.42
1697353079.49,0.04,-0.25,1,-7.7,-0.8,-43,0.91,0.05,-0.03,0.41
1697353079.5,0.15,-0.29,0.51,-5.5,0.6,-42,0.91,0.05,-0.03,0.41
1697353079.51,0.18,-0.36,0.98,-1.2,1.4,-41.2,0.91,0.05,-0.03,0.41
1697353079.52,0.15,-0.58,0.81,2.3,1.5,-40.7,0.91,0.05,-0.03,0.4
1697353079.53,0.09,-0.69,1.14,2.9,1.8,-40.3,0.91,0.05,-0.03,0.4
1697353079.54,0.15,-0.72,0.91,1.5,2.2,-40.5,0.92,0.05,-0.03,0.4
1697353079.55,0.13,-0.72,0.97,-0.7,2.5,-40.5,0.92,0.05,-0.03,0.39
1697353079.56,0.11,-0.52,1.17,-2.2,2.3,-40.7,0.92,0.05,-0.03,0.39
1697353079.57,0.05,-0.38,0.94,-1.1,2.2,-40.7,0.92,0.05,-0.03,0.39
1697353079.58,0.07,-0.51,1.06,2.6,2.1,-40.4,0.92,0.06,-0.03,0.38
1697353079.59,-0.02,-0.7,1.2,7.1,2.2,-40.3,0.92,0.06,-0.03,0.38
1697353079.6,0.08,-0.64,0.91,7.1,2.5,-40.5,0.92,0.06,-0.03,0.38
1697353079.61,0.08,-0.64,0.91,7.1,2.5,-40.5,0.92,0.06,-0.03,0.38
1697353079.62,0.03,-0.53,1.16,5.3,5.8,-40.2,0.93,0.06,-0.02,0.37
1697353079.63,0.07,-0.5,1.06,5.3,5.8,-40.2,0.93,0.06,-0.02,0.37
1697353079.64,0.07,-0.5,1.06,6,7.9,-39.5,0.93,0.06,-0.02,0.37
1697353079.65,0.07,-0.5,1.06,6,7.9,-39.5,0.93,0.06,-0.02,0.37
1697353079.66,0.07,-0.5,1.06,6,7.9,-39.5,0.93,0.06,-0.02,0.37
1697353079.67,0.07,-0.5,1.06,6,7.9,-39.5,0.93,0.06,-0.02,0.37
1697353079.68,0.07,-0.5,1.06,6,7.9,-39.5,0.93,0.06,-0.02,0.37
1697353079.69,0.07,-0.5,1.06,6,7.9,-39.5,0.93,0.06,-0.02,0.37
1697353079.7,0.07,-0.5,1.06,6,7.9,-39.5,0.93,0.06,-0.02,0.37
1697353079.71,0.07,-0.5,1.06,6,7.9,-39.5,0.93,0.06,-0.02,0.37
1697353079.72,0.07,-0.5,1.06,6,7.9,-39.5,0.93,0.06,-0.02,0.37
1697353079.73,0.07,-0.5,1.06,6,7.9,-39.5,0.93,0.06,-0.02,0.37
1697353079.74,0.07,-0.5,1.06,6,7.9,-39.5,0.93,0.06,-0.02,0.37
1697353079.75,0.07,-0.5,1.06,6,7.9,-39.5,0.93,0.06,-0.02,0.37
1697353079.76,0.07,-0.5,1.06,6,7.9,-39.5,0.93,0.06,-0.02,0.37
1697353079.77,0.07,-0.5,1.06,6,7.9,-39.5,0.93,0.06,-0.02,0.37
1697353079.78,0.07,-0.5,1.06,6,7.9,-39.5,0.93,0.06,-0.02,0.37
1697353079.79,0.07,-0.5,1.06,6,7.9,-39.5,0.93,0.06,-0.02,0.37
1697353079.8,0.07,-0.5,1.06,6,7.9,-39.5,0.93,0.06,-0.02,0.37
1697353079.81,0.07,-0.5,1.06,6,7.9,-39.5,0.93,0.06,-0.02,0.37
1697353079.82,0.07,-0.5,1.06,6,7.9,-39.5,0.93,0.06,-0.02,0.37
1697353079.83,0.07,-0.5,1.06,6,7.9,-39.5,0.93,0.06,-0.02,0.37
1697353079.84,0.07,-0.5,1.06,6,7.9,-39.5,0.93,0.06,-0.02,0.37
1697353079.85,0.07,-0.5,1.06,6,7.9,-39.5,0.93,0.06,-0.02,0.37
1697353079.86,0.07,-0.5,1.06,6,7.9,-39.5,0.93,0.06,-0.02,0.37
1697353079.87,0.07,-0.5,1.06,6,7.9,-39.5,0.93,0.06,-0.02,0.37
1697353079.88,0.07,-0.5,1.06,6,7.9,-39.5,0.93,0.06,-0.02,0.37
1697353079.89,0.07,-0.5,1.06,6,7.9,-39.5,0.93,0.06,-0.02,0.37
1697353079.9,0.07,-0.5,1.06,6,7.9,-39.5,0.93,0.06,-0.02,0.37
1697353079.91,0.07,-0.5,1.06,6,7.9,-39.5,0.93,0.06,-0.02,0.37
1697353079.92,0.07,-0.5,1.06,6,7.9,-39.5,0.93,0.06,-0.02,0.37
1697353079.93,0.07,-0.5,1.06,6,7.9,-39.5,0.93,0.06,-0.02,0.37
1697353079.94,0.07,-0.5,1.06,6,7.9,-39.5,0.93,0.06,-0.02,0.37
1697353079.95,0.07,-0.5,1.06,6,7.9,-39.5,0.93,0.06,-0.02,0.37
1697353079.96,0.07,-0.5,1.06,6,7.9,-39.5,0.93,0.06,-0.02,0.37
1697353079.97,0.07,-0.5,1.06,6,7.9,-39.5,0.93,0.06,-0.02,0.37
1697353079.98,0.07,-0.5,1.06,6,7.9,-39.5,0.93,0.06,-0.02,0.37
1697353079.99,0.07,-0.5,1.06,6,7.9,-39.5,0.93,0.06,-0.02,0.37
1697353080,0.07,-0.5,1.06,6,7.9,-39.5,0.93,0.06,-0.02,0.37
1697353080.01,0.07,-0.5,1.06,6,7.9,-39.5,0.93,0.06,-0.02,0.37
1697353080.02,0.07,-0.5,1.06,6,7.9,-39.5,0.93,0.06,-0.02,0.37
1697353080.03,0.07,-0.5,1.06,6,7.9,-39.5,0.93,0.06,-0.02,0.37
1697353080.04,0.07,-0.5,1.06,6,7.9,-39.5,0.93,0.06,-0.02,0.37
1697353080.05,0.07,-0.5,1.06,6,7.9,-39.5,0.93,0.06,-0.02,0.37
1697353080.06,0.07,-0.5,1.06,6,7.9,-39.5,0.93,0.06,-0.02,0.37
1697353080.07,0.07,-0.5,1.06,6,7.9,-39.5,0.93,0.06,-0.02,0.37
1697353080.08,0.07,-0.5,1.06,6,7.9,-39.5,0.93,0.06,-0.02,0.37
1697353080.09,0.07,-0.5,1.06,6,7.9,-39.5,0.93,0.06,-0.02,0.37
1697353080.1,0.07,-0.5,1.06,6,7.9,-39.5,0.93,0.06,-0.02,0.37
1697353080.11,0.07,-0.5,1.06,6,7.9,-39.5,0.93,0.06,-0.02,0.37
1697353080.12,0.07,-0.5,1.06,6,7.9,-39.5,0.93,0.06,-0.02,0.37
1697353080.13,0.07,-0.5,1.06,6,7.9,-39.5,0.93,0.06,-0.02,0.37
1697353080.14,0.07,-0.5,1.06,6,7.9,-39.5,0.93,0.06,-0.02,0.37
1697353080.15,0.07,-0.5,1.06,6,7.9,-39.5,0.93,0.06,-0.02,0.37
1697353080.16,0.07,-0.5,1.06,6,7.9,-39.5,0.93,0.06,-0.02,0.37
1697353080.17,0.07,-0.5,1.06,6,7.9,-39.5,0.93,0.06,-0.02,0.37
1697353080.18,-0.12,-0.39,1.38,-1.2,1.9,-25,0.97,0.06,-0.01,0.23
1697353080.19,-0.03,-0.25,0.65,-2.3,1.8,-25,0.97,0.06,-0.01,0.23
1697353080.2,0.02,-0.22,1.16,-2.3,1.4,-24.7,0.97,0.06,-0.01,0.23
1697353080.21,-0.1,-0.17,0.66,0,1.6,-24.1,0.97,0.06,-0.01,0.22
1697353080.22,-0.14,-0.36,1.22,0.3,2.1,-23.4,0.97,0.06,-0.01,0.22
1697353080.23,-0.04,-0.38,0.8,-1.2,2.7,-23.5,0.97,0.06,-0.01,0.22
1697353080.24,-0.06,-0.3,1.23,-1.2,2.7,-23.5,0.97,0.06,-0.01,0.22
1697353080.25,-0.04,-0.26,1.11,-0.5,2.4,-22.6,0.97,0.06,-0,0.22
1697353080.26,-0.03,-0.16,0.95,0.7,2.3,-22.3,0.97,0.06,-0,0.22
1697353080.27,-0.06,-0.1,1.05,2.2,2.3,-21.4,0.98,0.06,-0,0.21
1697353080.28,-0.12,-0.23,1.2,4.2,1.9,-20.8,0.98,0.06,-0,0.21
1697353080.29,-0.17,-0.22,1.07,3.4,1.6,-19.6,0.98,0.06,-0,0.21
1697353080.3,-0.12,-0.3,1.05,2.3,1.1,-18.3,0.98,0.06,-0,0.21
1697353080.31,-0.09,-0.16,1.09,1.9,0,-17.1,0.98,0.06,-0,0.21
1697353080.32,-0.05,-0.1,0.79,2.6,-0.6,-16.3,0.98,0.06,-0,0.2
1697353080.33,-0.06,-0.09,1.47,4.1,-1.5,-15.4,0.98,0.06,-0,0.2
1697353080.34,0.1,-0.13,0.95,3.5,-2.1,-14.4,0.98,0.06,-0,0.2
1697353080.35,-0.08,-0.22,0.69,0.9,-2.6,-13.9,0.98,0.06,-0,0.2
1697353080.36,-0.03,-0.04,1.05,0.1,-2.9,-13.9,0.98,0.06,-0,0.2
1697353080.37,0.01,-0.12,1.16,-1,-2.9,-13.1,0.98,0.06,-0,0.2
1697353080.38,-0.1,0.07,0.66,-0.6,-3,-12.5,0.98,0.06,-0,0.2
1697353080.39,-0.14,-0,1.5,1,-2.5,-12.2,0.98,0.06,-0,0.2
1697353080.4,-0.08,0,0.51,1.5,-1.9,-11.7,0.98,0.06,-0,0.2
1697353080.41,-0.12,-0.1,1.37,1.5,-1.9,-11.7,0.98,0.06,-0,0.2
1697353080.42,-0.03,-0.13,1.06,1.2,-1.2,-11.4,0.98,0.06,-0,0.19
1697353080.43,-0.16,-0.12,0.7,0.2,-0.1,-10.7,0.98,0.06,-0,0.19
1697353080.44,0.05,0.04,0.54,0.2,-0.1,-10.7,0.98,0.06,-0,0.19
1697353080.45,0.05,0.04,0.54,0.1,0.4,-10.5,0.98,0.06,-0,0.19
1697353080.46,0.03,-0.03,1.73,0.4,0.9,-10,0.98,0.06,-0,0.19
1697353080.47,0.18,-0.08,0.96,0.6,1.6,-9,0.98,0.06,-0,0.19
1697353080.48,0.13,-0.14,0.66,0.6,2,-8.5,0.98,0.06,-0,0.19
1697353080.49,0.13,-0.14,0.66,0.7,2.2,-8.1,0.98,0.06,-0,0.19
1697353080.5,-0.06,-0.07,0.94,0.2,2.2,-7.7,0.98,0.06,-0,0.19
1697353080.51,-0.06,-0.07,0.94,-1,1.9,-7.8,0.98,0.06,-0,0.19
1697353080.52,-0.04,-0.08,1.36,-1.1,1.1,-8.1,0.98,0.06,-0,0.19
1697353080.53,-0.06,-0.13,1.17,-0.3,0,-8.4,0.98,0.06,-0,0.19
1697353080.54,-0.01,-0.08,1.17,0,-0.3,-8.9,0.98,0.06,-0,0.18
1697353080.55,0.03,-0.15,1.06,0.1,0,-9,0.98,0.06,-0,0.18
1697353080.56,-0.01,-0.1,0.76,-1.1,-0.9,-9,0.98,0.06,-0,0.18
1697353080.57,-0.09,0.03,1,-3.1,-1.5,-8.9,0.98,0.06,-0,0.18
1697353080.58,-0.09,0.03,1,-3.1,-1.5,-8.9,0.98,0.06,-0,0.18
1697353080.59,-0.09,0.03,1,-3.1,-1.5,-8.9,0.98,0.06,-0,0.18
1697353080.6,-0.09,0.03,1,-3.1,-1.5,-8.9,0.98,0.06,-0,0.18
1697353080.61,-0.09,0.03,1,-3.1,-1.5,-8.9,0.98,0.06,-0,0.18
1697353080.62,-0.09,0.03,1,-3.1,-1.5,-8.9,0.98,0.06,-0,0.18
1697353080.63,-0.09,0.03,1,-3.1,-1.5,-8.9,0.98,0.06,-0,0.18
1697353080.64,-0.09,0.03,1,-3.1,-1.5,-8.9,0.98,0.06,-0,0.18
1697353080.65,-0.09,0.03,1,-3.1,-1.5,-8.9,0.98,0.06,-0,0.18
1697353080.66,-0.09,0.03,1,-3.1,-1.5,-8.9,0.98,0.06,-0,0.18
1697353080.67,-0.09,0.03,1,-3.1,-1.5,-8.9,0.98,0.06,-0,0.18
1697353080.68,-0.09,0.03,1,-3.1,-1.5,-8.9,0.98,0.06,-0,0.18
1697353080.69,-0.09,0.03,1,-3.1,-1.5,-8.9,0.98,0.06,-0,0.18
1697353080.7,-0.09,0.03,1,-3.1,-1.5,-8.9,0.98,0.06,-0,0.18
1697353080.71,-0.09,0.03,1,-3.1,-1.5,-8.9,0.98,0.06,-0,0.18
1697353080.72,-0.09,0.03,1,-3.1,-1.5,-8.9,0.98,0.06,-0,0.18
1697353080.73,-0.09,0.03,1,-3.1,-1.5,-8.9,0.98,0.06,-0,0.18
1697353080.74,-0.09,0.03,1,-3.1,-1.5,-8.9,0.98,0.06,-0,0.18
1697353080.75,-0.09,0.03,1,-3.1,-1.5,-8.9,0.98,0.06,-0,0.18
1697353080.76,-0.09,0.03,1,-3.1,-1.5,-8.9,0.98,0.06,-0,0.18
1697353080.77,-0.09,0.03,1,-3.1,-1.5,-8.9,0.98,0.06,-0,0.18
1697353080.78,-0.09,0.03,1,-3.1,-1.5,-8.9,0.98,0.06,-0,0.18
1697353080.79,-0.09,0.03,1,-3.1,-1.5,-8.9,0.98,0.06,-0,0.18
1697353080.8,-0.09,0.03,1,-3.1,-1.5,-8.9,0.98,0.06,-0,0.18
1697353080.81,-0.09,0.03,1,-3.1,-1.5,-8.9,0.98,0.06,-0,0.18
1697353080.82,-0.09,0.03,1,-3.1,-1.5,-8.9,0.98,0.06,-0,0.18
1697353080.83,-0.09,0.03,1,-3.1,-1.5,-8.9,0.98,0.06,-0,0.18
1697353080.84,-0.09,0.03,1,-3.1,-1.5,-8.9,0.98,0.06,-0,0.18
1697353080.85,-0.09,0.03,1,-3.1,-1.5,-8.9,0.98,0.06,-0,0.18
1697353080.86,-0.09,0.03,1,-3.1,-1.5,-8.9,0.98,0.06,-0,0.18
1697353080.87,-0.09,0.03,1,-3.1,-1.5,-8.9,0.98,0.06,-0,0.18
1697353080.88,-0.09,0.03,1,-3.1,-1.5,-8.9,0.98,0.06,-0,0.18
1697353080.89,-0.09,0.03,1,-3.1,-1.5,-8.9,0.98,0.06,-0,0.18
1697353080.9,-0.09,0.03,1,-3.1,-1.5,-8.9,0.98,0.06,-0,0.18
1697353080.91,-0.09,0.03,1,-3.1,-1.5,-8.9,0.98,0.06,-0,0.18
1697353080.92,-0.09,0.03,1,-3.1,-1.5,-8.9,0.98,0.06,-0,0.18
1697353080.93,-0.09,0.03,1,-3.1,-1.5,-8.9,0.98,0.06,-0,0.18
1697353080.94,-0.09,0.03,1,-3.1,-1.5,-8.9,0.98,0.06,-0,0.18
1697353080.95,-0.09,0.03,1,-3.1,-1.5,-8.9,0.98,0.06,-0,0.18
1697353080.96,-0.09,0.03,1,-3.1,-1.5,-8.9,0.98,0.06,-0,0.18
1697353080.97,-0.09,0.03,1,-3.1,-1.5,-8.9,0.98,0.06,-0,0.18
1697353080.98,-0.09,0.03,1,-3.1,-1.5,-8.9,0.98,0.06,-0,0.18
1697353080.99,-0.09,0.03,1,-3.1,-1.5,-8.9,0.98,0.06,-0,0.18
1697353081,-0.09,0.03,1,-3.1,-1.5,-8.9,0.98,0.06,-0,0.18
1697353081.01,-0.09,0.03,1,-3.1,-1.5,-8.9,0.98,0.06,-0,0.18
1697353081.02,-0.08,0.09,1.04,-2.1,1.4,8.3,0.98,0.06,-0,0.2
1697353081.03,-0.06,0.07,1.1,-1.9,1.7,8.4,0.98,0.06,-0,0.2
1697353081.04,-0.05,0.21,0.67,-0.8,2.7,8.1,0.98,0.06,-0,0.2
1697353081.05,-0.1,0.06,0.88,0,3.4,8.4,0.98,0.06,-0,0.21
1697353081.06,-0.01,0.13,0.96,0,3.6,8.3,0.98,0.06,-0,0.21
1697353081.07,-0.02,0.1,0.87,0.4,3.2,8.3,0.98,0.06,-0,0.21
1697353081.08,0.02,0.09,1.38,0.4,3.2,8.3,0.98,0.06,-0,0.21
1697353081.09,0.17,0.07,0.32,2,0.9,8.8,0.98,0.06,-0,0.21
1697353081.1,-0.06,0.15,1.05,1.2,-0.5,8.9,0.98,0.06,-0,0.21
1697353081.11,0.03,0.08,1.1,1.2,-0.5,8.9,0.98,0.06,-0,0.21
1697353081.12,0.04,0.11,1.24,0,-1.2,9,0.98,0.06,-0,0.21
1697353081.13,-0.02,0.09,0.84,0.5,-0.5,8.9,0.98,0.06,-0,0.21
1697353081.14,-0.02,0.09,0.84,0.5,-0.5,8.9,0.98,0.06,-0,0.21
1697353081.15,0.04,0.16,1.24,-4.2,0.1,8.2,0.97,0.06,-0,0.21
1697353081.16,0.04,0.16,1.24,-4.2,0.1,8.2,0.97,0.06,-0,0.21
1697353081.17,-0.01,0.24,1.15,-1,0.9,9.1,0.97,0.06,-0,0.21
1697353081.18,-0.01,0.24,1.15,-1,0.9,9.1,0.97,0.06,-0,0.21
1697353081.19,0.04,0.09,1.07,-0.2,-1.3,9.7,0.97,0.06,-0,0.22
1697353081.2,0.04,0.09,1.07,-0.2,-1.3,9.7,0.97,0.06,-0,0.22
1697353081.21,-0.03,0.05,1.39,-0.2,-2.7,9.5,0.97,0.06,-0,0.22
1697353081.22,0.06,0.02,0.72,-0.2,-2.7,9.5,0.97,0.06,-0,0.22
1697353081.23,-0.04,0.08,0.84,-0.6,-3.6,9.3,0.97,0.06,-0.01,0.22
1697353081.24,-0.1,0.1,0.8,-0.3,-3.9,9.3,0.97,0.06,-0.01,0.22
1697353081.25,-0.13,0.06,1.28,0.4,-3.9,9.3,0.97,0.06,-0.01,0.22
1697353081.26,0.09,0.06,0.9,1.4,-3.7,9.3,0.97,0.06,-0.01,0.22
1697353081.27,-0.02,0.11,0.84,2,-3,9.1,0.97,0.06,-0.01,0.22
1697353081.28,0.03,0.13,0.85,1.9,-2.9,9.2,0.97,0.06,-0.01,0.22
1697353081.29,0.03,0.15,0.82,1.8,-2.7,9.4,0.97,0.06,-0.01,0.22
1697353081.3,-0.01,0.1,1.6,1.7,-3.1,9.5,0.97,0.06,-0.01,0.22
1697353081.31,-0.11,0.21,0.94,2.4,-4.5,9.5,0.97,0.06,-0.01,0.23
1697353081.32,0.01,0.11,1.03,1.9,-5.2,9.7,0.97,0.06,-0.01,0.23
1697353081.33,0.02,0.09,1.14,1.4,-5.3,9.5,0.97,0.06,-0.01,0.23
1697353081.34,0.08,0.12,1.03,0.6,-5,9.3,0.97,0.06,-0.01,0.23
1697353081.35,0.04,0.09,0.82,-0.4,-4.8,9.1,0.97,0.06,-0.01,0.23
1697353081.36,-0.02,0.17,0.66,-1.8,-4.1,8.7,0.97,0.06,-0.01,0.23
1697353081.37,-0.14,0.2,1.03,-3.9,-3,8.5,0.97,0.06,-0.01,0.23
1697353081.38,-0.03,0.25,0.98,-5.6,-2.4,8.8,0.97,0.06,-0.01,0.23
1697353081.39,-0.08,0.25,1.22,-4.6,-1.3,8.9,0.97,0.06,-0.01,0.23
1697353081.4,-0.01,0.2,1.05,-3,-0.4,9.3,0.97,0.06,-0.01,0.23
1697353081.41,-0.08,0.13,0.94,-0.2,0.9,9.2,0.97,0.06,-0.01,0.23
1697353081.42,-0.08,0.13,0.94,-0.2,0.9,9.2,0.97,0.06,-0.01,0.23
1697353081.43,-0.08,0.13,0.94,-0.2,0.9,9.2,0.97,0.06,-0.01,0.23
1697353081.44,-0.08,0.13,0.94,-0.2,0.9,9.2,0.97,0.06,-0.01,0.23
1697353081.45,-0.08,0.13,0.94,-0.2,0.9,9.2,0.97,0.06,-0.01,0.23
1697353081.46,-0.08,0.13,0.94,-0.2,0.9,9.2,0.97,0.06,-0.01,0.23
1697353081.47,-0.08,0.13,0.94,-0.2,0.9,9.2,0.97,0.06,-0.01,0.23
1697353081.48,-0.08,0.13,0.94,-0.2,0.9,9.2,0.97,0.06,-0.01,0.23
1697353081.49,-0.08,0.13,0.94,-0.2,0.9,9.2,0.97,0.06,-0.01,0.23
1697353081.5,-0.08,0.13,0.94,-0.2,0.9,9.2,0.97,0.06,-0.01,0.23
1697353081.51,-0.08,0.13,0.94,-0.2,0.9,9.2,0.97,0.06,-0.01,0.23
1697353081.52,-0.08,0.13,0.94,-0.2,0.9,9.2,0.97,0.06,-0.01,0.23
1697353081.53,-0.08,0.13,0.94,-0.2,0.9,9.2,0.97,0.06,-0.01,0.23
1697353081.54,-0.08,0.13,0.94,-0.2,0.9,9.2,0.97,0.06,-0.01,0.23
1697353081.55,-0.15,0.17,1.01,1.3,2.2,9.8,0.97,0.06,-0.01,0.24
1697353081.56,-0.15,0.17,1.01,1.3,2.2,9.8,0.97,0.06,-0.01,0.24
1697353081.57,-0.11,0.12,1.25,1.4,2,10.3,0.97,0.06,-0.01,0.25
1697353081.58,0.05,0.09,0.8,0.7,1.2,10.9,0.97,0.06,-0.01,0.25
1697353081.59,-0.04,0.21,1.04,-0.5,0.4,11.7,0.97,0.06,-0.01,0.25
1697353081.6,0.03,0.3,0.67,-1.4,0,12.4,0.97,0.06,-0.01,0.25
1697353081.61,0.03,0.35,0.67,-1.2,-0.5,13.2,0.97,0.06,-0.01,0.25
1697353081.62,0.01,0.48,0.8,0.2,-1.1,13.9,0.97,0.06,-0.01,0.25
1697353081.63,0.01,0.42,1.07,2,-1.7,14.9,0.97,0.06,-0.01,0.25
1697353081.64,-0.05,0.39,0.98,3.6,-2.2,16.2,0.97,0.06,-0.01,0.25
1697353081.65,-0.1,0.33,1.07,4.5,-2.3,17.3,0.96,0.06,-0.01,0.26
1697353081.66,-0.08,0.31,1.07,3.3,-2.9,18.7,0.96,0.06,-0.01,0.26
1697353081.67,-0.1,0.51,1.1,0,-3.1,20.8,0.96,0.06,-0.01,0.26
1697353081.68,-0.23,0.69,0.95,1.5,-2.6,24.8,0.96,0.06,-0.01,0.26
1697353081.69,-0.38,0.69,1.09,5.9,-0.3,26.6,0.96,0.06,-0.01,0.26
1697353081.7,-0.34,0.54,0.88,8.3,1.7,27.6,0.96,0.06,-0.01,0.27
1697353081.71,-0.46,0.4,1.09,8.3,1.7,27.6,0.96,0.06,-0.01,0.27
1697353081.72,-0.16,0.36,0.92,1.8,3.3,29.6,0.96,0.07,-0.01,0.27
1697353081.73,-0.12,0.35,1.1,0.7,3.1,29.8,0.96,0.07,-0.01,0.27
1697353081.74,-0.04,0.49,1.05,-3,2.7,30.1,0.96,0.06,-0.01,0.28
1697353081.75,-0.07,0.56,0.93,-4.9,2.4,30.8,0.96,0.06,-0.01,0.28
1697353081.76,-0.02,0.59,0.91,-3.8,1.9,31.4,0.96,0.06,-0.01,0.28
1697353081.77,-0.11,0.47,1.31,-0.7,1.2,31.3,0.96,0.06,-0.01,0.28
1697353081.78,0.11,0.2,1.01,1.8,0.2,31,0.96,0.06,-0.01,0.29
1697353081.79,0,0.06,0.68,3.2,-0.3,29.5,0.96,0.06,-0.01,0.29
1697353081.8,-0.14,-0.04,1.08,0.7,-0.8,27.5,0.95,0.06,-0.01,0.29
1697353081.81,-0.14,-0.04,1.08,0.7,-0.8,27.5,0.95,0.06,-0.01,0.29
1697353081.82,-0.17,0.08,0.98,-3.8,-0.8,25.7,0.95,0.06,-0.01,0.29
1697353081.83,-0.09,0.26,1.02,-7.3,0.1,23.7,0.95,0.06,-0.01,0.3
1697353081.84,-0.08,0.2,0.96,-3.7,1.8,21.7,0.95,0.06,-0.01,0.3
1697353081.85,-0.08,0.2,0.96,-3.7,1.8,21.7,0.95,0.06,-0.01,0.3
1697353081.86,-0.18,0.02,1.32,-2.8,1.6,20.1,0.95,0.06,-0.01,0.3
1697353081.87,-0.11,0.01,1.1,-4.4,1.7,19.4,0.95,0.06,-0.01,0.3
1697353081.88,-0.11,0.01,1.1,-5.1,2,18.1,0.95,0.06,-0.01,0.3
1697353081.89,-0.05,-0.01,0.85,-5.6,2.4,16.7,0.95,0.06,-0.01,0.31
1697353081.9,0,0.04,0.75,-5.6,2.6,16.5,0.95,0.06,-0.01,0.31
1697353081.91,-0.05,0.08,0.97,-3.6,2.9,15.1,0.95,0.06,-0.01,0.31
1697353081.92,0.05,0.06,0.95,0.1,2.9,13.8,0.95,0.06,-0.01,0.31
1697353081.93,-0.02,-0.03,0.77,3.8,2.4,13,0.95,0.06,-0.01,0.31
1697353081.94,-0.02,-0.03,0.77,3.8,2.4,13,0.95,0.06,-0.01,0.31
1697353081.95,-0.02,-0.03,0.77,3.8,2.4,13,0.95,0.06,-0.01,0.31
1697353081.96,-0.02,-0.03,0.77,3.8,2.4,13,0.95,0.06,-0.01,0.31
1697353081.97,-0.02,-0.03,0.77,3.8,2.4,13,0.95,0.06,-0.01,0.31
1697353081.98,-0.02,-0.03,0.77,3.8,2.4,13,0.95,0.06,-0.01,0.31
1697353081.99,-0.02,-0.03,0.77,3.8,2.4,13,0.95,0.06,-0.01,0.31
1697353082,-0.02,-0.03,0.77,3.8,2.4,13,0.95,0.06,-0.01,0.31
1697353082.01,-0.02,-0.03,0.77,3.8,2.4,13,0.95,0.06,-0.01,0.31
1697353082.02,-0.02,-0.03,0.77,3.8,2.4,13,0.95,0.06,-0.01,0.31
1697353082.03,-0.02,-0.03,0.77,3.8,2.4,13,0.95,0.06,-0.01,0.31
1697353082.04,-0.02,-0.03,0.77,3.8,2.4,13,0.95,0.06,-0.01,0.31
1697353082.05,-0.02,-0.03,0.77,3.8,2.4,13,0.95,0.06,-0.01,0.31
1697353082.06,-0.02,-0.03,0.77,3.8,2.4,13,0.95,0.06,-0.01,0.31
1697353082.07,-0.11,0.63,1.07,2.8,-0.3,34.6,0.94,0.06,-0.01,0.34
1697353082.08,-0.03,0.67,0.75,1.7,-0.2,35.7,0.94,0.06,-0.01,0.34
1697353082.09,-0.06,0.56,1.16,-0.1,-0.2,36.4,0.94,0.06,-0.01,0.34
1697353082.1,-0.12,0.64,1.15,-1,-0.1,36.7,0.94,0.06,-0.01,0.35
1697353082.11,-0.12,0.61,0.87,-0.2,0.1,37,0.93,0.06,-0.01,0.35
1697353082.12,-0.07,0.57,1.09,0,0.5,36.7,0.93,0.06,-0.01,0.35
1697353082.13,-0.2,0.52,1.1,0.2,0.9,36.3,0.93,0.06,-0.01,0.35
1697353082.14,-0.06,0.42,0.87,0.7,1.4,35.9,0.93,0.06,-0.01,0.36
1697353082.15,-0.17,0.43,1.13,0.8,1.4,35.8,0.93,0.06,-0.01,0.36
1697353082.16,-0.17,0.43,1.13,0.8,1.4,35.8,0.93,0.06,-0.01,0.36
1697353082.17,-0.11,0.46,0.89,0.5,1.1,35.3,0.93,0.06,-0.01,0.36
1697353082.18,-0.11,0.46,0.89,0.5,1.1,35.3,0.93,0.06,-0.01,0.37
1697353082.19,-0.21,0.44,0.82,-1.4,0.8,36.5,0.93,0.06,-0.01,0.37
1697353082.2,-0.28,0.5,0.96,-1.4,0.8,36.5,0.93,0.06,-0.01,0.37
1697353082.21,-0.28,0.5,0.96,-2.1,1.3,37.2,0.92,0.06,-0.01,0.38
1697353082.22,-0.27,0.6,0.92,-1.4,2,38.6,0.92,0.06,-0.01,0.38
1697353082.23,-0.13,0.65,0.81,0.6,2.5,39.8,0.92,0.06,-0.01,0.38
1697353082.24,-0.03,0.69,1.02,2.5,2.6,41.1,0.92,0.06,-0.01,0.39
1697353082.25,-0.1,0.56,1.03,3.9,2.9,42.3,0.92,0.06,-0.01,0.39
1697353082.26,-0.07,0.46,0.9,3.6,2.9,43.3,0.92,0.06,-0.01,0.39
1697353082.27,-0.06,0.44,0.89,1.4,2.6,44,0.92,0.06,-0.01,0.4
1697353082.28,0.02,0.48,1.07,-0.5,1.6,44.7,0.91,0.06,-0.01,0.4
1697353082.29,-0.08,0.6,1.14,-1,0.7,45.4,0.91,0.06,-0.01,0.4
1697353082.3,-0.05,0.7,1.04,1.1,-0.2,46.3,0.91,0.06,-0.02,0.41
1697353082.31,-0.06,0.72,0.84,4.8,-0.8,47,0.91,0.06,-0.02,0.41
1697353082.32,-0.11,0.61,0.78,6.6,-0.9,47.5,0.91,0.06,-0.02,0.42
1697353082.33,-0.12,0.5,0.8,5.9,-0.5,47.4,0.91,0.06,-0.02,0.42
1697353082.34,-0.05,0.47,0.89,3.2,-0.3,47.4,0.91,0.06,-0.02,0.42
1697353082.35,-0.17,0.52,0.86,0,-0.2,47.7,0.9,0.06,-0.02,0.43
1697353082.36,-0.22,0.66,1.25,0,-0.2,47.7,0.9,0.06,-0.02,0.43
1697353082.37,-0.21,0.81,1.01,-1.1,0.1,48.5,0.9,0.06,-0.02,0.44
1697353082.38,-0.21,0.81,1.01,-1.1,0.1,48.5,0.9,0.06,-0.02,0.44
1697353082.39,-0.14,0.61,1.07,2.2,0.2,50.2,0.89,0.06,-0.02,0.44
1697353082.4,-0.14,0.61,1.07,3.9,0.2,50.9,0.89,0.06,-0.02,0.44
1697353082.41,-0.11,0.56,1.03,3.8,0.4,51.1,0.89,0.06,-0.02,0.45
1697353082.42,-0.12,0.53,0.96,2.5,0.6,51,0.89,0.06,-0.02,0.45
1697353082.43,-0.2,0.55,0.96,0.6,1.1,50.8,0.89,0.06,-0.02,0.46
1697353082.44,-0.2,0.55,0.96,0.6,1.1,50.8,0.89,0.06,-0.02,0.46
1697353082.45,0.01,0.64,0.85,-0.7,1.6,50.5,0.88,0.06,-0.02,0.46
1697353082.46,-0.11,0.68,0.94,-0.8,1.7,50.2,0.88,0.06,-0.02,0.47
1697353082.47,-0.11,0.68,0.94,-0.8,1.7,50.2,0.88,0.06,-0.02,0.47
1697353082.48,-0.11,0.68,0.94,-0.8,1.7,50.2,0.88,0.06,-0.02,0.47
1697353082.49,-0.11,0.68,0.94,-0.8,1.7,50.2,0.88,0.06,-0.02,0.47
1697353082.5,-0.11,0.68,0.94,-0.8,1.7,50.2,0.88,0.06,-0.02,0.47
1697353082.51,-0.11,0.68,0.94,-0.8,1.7,50.2,0.88,0.06,-0.02,0.47
1697353082.52,-0.11,0.68,0.94,-0.8,1.7,50.2,0.88,0.06,-0.02,0.47
1697353082.53,-0.11,0.68,0.94,-0.8,1.7,50.2,0.88,0.06,-0.02,0.47
1697353082.54,-0.11,0.68,0.94,-0.8,1.7,50.2,0.88,0.06,-0.02,0.47
1697353082.55,-0.11,0.68,0.94,-0.8,1.7,50.2,0.88,0.06,-0.02,0.47
1697353082.56,-0.11,0.68,0.94,-0.8,1.7,50.2,0.88,0.06,-0.02,0.47
1697353082.57,-0.11,0.68,0.94,-0.8,1.7,50.2,0.88,0.06,-0.02,0.47
1697353082.58,-0.11,0.68,0.94,-0.8,1.7,50.2,0.88,0.06,-0.02,0.47
1697353082.59,-0.11,0.68,0.94,-0.8,1.7,50.2,0.88,0.06,-0.02,0.47
1697353082.6,0.18,0.6,0.83,0.1,2.3,53.3,0.85,0.06,-0.02,0.52
1697353082.61,0.22,0.63,1.14,0.1,2.8,53.3,0.85,0.06,-0.02,0.53
1697353082.62,0.22,0.66,1.03,0.6,1.9,53,0.85,0.06,-0.02,0.53
1697353082.63,0.2,0.53,0.97,1.4,0.7,52.7,0.84,0.06,-0.02,0.53
1697353082.64,0.12,0.56,0.91,1.9,-0.7,52.1,0.84,0.06,-0.02,0.54
1697353082.65,0.13,0.62,0.66,1.4,-1.4,51.5,0.84,0.06,-0.02,0.54
1697353082.66,-0.21,0.9,0.79,-0.4,-1.4,51.2,0.83,0.06,-0.02,0.55
1697353082.67,-0.04,0.61,0.76,-1,-0.6,50.9,0.83,0.06,-0.02,0.55
1697353082.68,-0.04,0.85,0.95,-0.7,0,52.2,0.83,0.06,-0.02,0.55
1697353082.69,-0.03,0.6,1.17,2.3,0.5,51.9,0.83,0.06,-0.02,0.56
1697353082.7,0.18,0.56,1.27,1.8,0.9,53,0.82,0.06,-0.02,0.56
1697353082.71,0.13,0.63,1.23,1.5,0.7,52.9,0.82,0.06,-0.02,0.57
1697353082.72,0.13,0.62,0.85,-0.3,0.7,52.4,0.82,0.06,-0.03,0.57
1697353082.73,0.05,0.78,1.03,-2.2,0.4,52.6,0.82,0.06,-0.03,0.57
1697353082.74,0,0.74,0.9,-2.8,0.3,52.7,0.81,0.06,-0.03,0.58
1697353082.75,0.01,0.71,0.99,-0.9,0.6,52.6,0.81,0.06,-0.03,0.58
1697353082.76,-0.01,0.61,1.25,-0.9,0.6,52.6,0.81,0.06,-0.03,0.58
1697353082.77,0.01,0.58,1.11,2,0.7,53.6,0.81,0.06,-0.03,0.59
1697353082.78,0.04,0.6,0.85,2.2,0.4,53.8,0.81,0.06,-0.03,0.59
1697353082.79,0.07,0.61,0.98,0.8,0.1,54.1,0.8,0.06,-0.03,0.6
1697353082.8,0.04,0.68,0.91,0,0,54,0.8,0.06,-0.03,0.6
1697353082.81,0.07,0.67,0.88,0,-0.4,53.9,0.79,0.06,-0.03,0.6
1697353082.82,0.03,0.75,1.1,0.4,-0.7,53.7,0.79,0.06,-0.03,0.61
1697353082.83,0.04,0.66,0.95,1.3,-1,53.2,0.79,0.06,-0.03,0.61
1697353082.84,0.04,0.67,0.99,1.3,-1,53.2,0.79,0.06,-0.03,0.61
1697353082.85,-0.02,0.63,1.15,1.2,0.3,53,0.78,0.06,-0.03,0.62
1697353082.86,-0.02,0.63,1.15,1.2,0.3,53,0.78,0.06,-0.03,0.62
1697353082.87,-0.11,0.69,1.05,0.2,0.9,53.2,0.78,0.06,-0.03,0.62
1697353082.88,-0.11,0.69,1.05,-0.9,1.7,53.4,0.78,0.06,-0.03,0.63
1697353082.89,-0.05,0.8,1.13,-1.3,2.3,54.3,0.77,0.06,-0.03,0.63
1697353082.9,-0.02,0.75,1.19,-1.3,2.3,54.3,0.77,0.06,-0.03,0.64
1697353082.91,0.02,0.72,1.08,-0.3,1.6,54.9,0.77,0.06,-0.03,0.64
1697353082.92,-0,0.75,1.1,0,0.8,55,0.76,0.06,-0.03,0.64
1697353082.93,0.1,0.68,0.99,0,-0.1,54.7,0.76,0.06,-0.03,0.65
1697353082.94,0.1,0.7,1.13,-0.1,-0.6,54.5,0.76,0.06,-0.03,0.65
1697353082.95,0.05,0.66,0.72,-0.3,-0.5,54.1,0.75,0.06,-0.03,0.65
1697353082.96,0.12,0.7,0.91,-0.3,-0.5,54.1,0.75,0.06,-0.03,0.66
1697353082.97,-0,0.69,0.97,-0.4,-0.3,54,0.75,0.06,-0.03,0.66
1697353082.98,-0.04,0.66,0.91,-0.6,-0.2,54,0.74,0.06,-0.03,0.66
1697353082.99,-0.04,0.66,0.91,-0.6,-0.2,54,0.74,0.06,-0.03,0.66
1697353083,-0.04,0.66,0.91,-0.6,-0.2,54,0.74,0.06,-0.03,0.66
1697353083.01,-0.04,0.66,0.91,-0.6,-0.2,54,0.74,0.06,-0.03,0.66
1697353083.02,-0.04,0.66,0.91,-0.6,-0.2,54,0.74,0.06,-0.03,0.66
1697353083.03,-0.04,0.66,0.91,-0.6,-0.2,54,0.74,0.06,-0.03,0.66
1697353083.04,-0.04,0.66,0.91,-0.6,-0.2,54,0.74,0.06,-0.03,0.66
1697353083.05,-0.04,0.66,0.91,-0.6,-0.2,54,0.74,0.06,-0.03,0.66
1697353083.06,-0.04,0.66,0.91,-0.6,-0.2,54,0.74,0.06,-0.03,0.66
1697353083.07,-0.04,0.66,0.91,-0.6,-0.2,54,0.74,0.06,-0.03,0.66
1697353083.08,-0.04,0.66,0.91,-0.6,-0.2,54,0.74,0.06,-0.03,0.66
1697353083.09,-0.04,0.66,0.91,-0.6,-0.2,54,0.74,0.06,-0.03,0.66
1697353083.1,-0.04,0.66,0.91,-0.6,-0.2,54,0.74,0.06,-0.03,0.66
1697353083.11,-0.04,0.66,0.91,-0.6,-0.2,54,0.74,0.06,-0.03,0.66
1697353083.12,0.11,0.75,0.96,-0.4,-0.3,57.6,0.7,0.06,-0.03,0.72
1697353083.13,-0.01,0.82,1.07,-0.7,0,57.6,0.69,0.06,-0.03,0.72
1697353083.14,0.02,0.79,1.19,-0.7,0,57.6,0.69,0.06,-0.03,0.72
1697353083.15,0.22,0.76,0.67,1.7,0.8,57,0.69,0.06,-0.04,0.72
1697353083.16,0.22,0.76,0.67,1.7,0.8,57,0.68,0.05,-0.04,0.73
1697353083.17,-0.08,0.66,1.12,0.3,1.1,56.7,0.68,0.05,-0.04,0.73
1697353083.18,-0.08,0.66,1.12,0.3,1.1,56.7,0.68,0.05,-0.04,0.73
1697353083.19,0.06,0.72,0.77,0,1.3,56.4,0.67,0.05,-0.04,0.74
1697353083.2,0.06,0.72,0.77,0.2,1.4,56.4,0.67,0.05,-0.04,0.74
1697353083.21,-0.02,0.81,0.83,1.2,1.6,56.9,0.67,0.05,-0.04,0.74
1697353083.22,-0.03,0.76,0.91,1.4,1.6,57,0.66,0.05,-0.04,0.75
1697353083.23,0.12,0.7,0.87,2.1,1.7,57.1,0.66,0.05,-0.04,0.75
1697353083.24,0.06,0.73,1.18,1.2,1.8,57.3,0.65,0.05,-0.04,0.75
1697353083.25,0.11,0.8,0.73,0.3,2,57.4,0.65,0.05,-0.04,0.76
1697353083.26,-0.04,0.83,1.18,-0.1,2.4,57.5,0.65,0.05,-0.04,0.76
1697353083.27,-0,0.8,1.09,0.6,2.4,57.6,0.64,0.05,-0.04,0.76
1697353083.28,0.08,0.76,1.05,1.2,2.2,57.8,0.64,0.05,-0.04,0.77
1697353083.29,0.03,0.79,1.18,1,2,58.1,0.63,0.05,-0.04,0.77
1697353083.3,0.04,0.78,0.72,0.4,1.9,58.2,0.63,0.05,-0.04,0.77
1697353083.31,-0.04,0.89,1.3,-0.3,1.8,58.7,0.63,0.05,-0.04,0.78
1697353083.32,0.06,0.81,0.92,-0.3,1.7,58.8,0.62,0.05,-0.04,0.78
1697353083.33,0.07,0.78,1,-0.1,1.4,59,0.62,0.05,-0.04,0.78
1697353083.34,0.06,0.84,0.83,0.2,0.8,59.4,0.61,0.05,-0.04,0.79
1697353083.35,0.05,0.78,1.17,0.6,0.2,59.5,0.61,0.05,-0.04,0.79
1697353083.36,0.1,0.73,1.01,0.8,-0.1,59.5,0.6,0.05,-0.04,0.79
1697353083.37,0.13,0.71,0.7,0.8,-0.5,59.5,0.6,0.05,-0.04,0.8
1697353083.38,-0.08,0.78,1,0.2,-0.1,59.1,0.6,0.05,-0.04,0.8
1697353083.39,0.1,0.88,1,1.3,0.4,58.7,0.59,0.05,-0.04,0.8
1697353083.4,-0,0.76,0.95,2.4,1.1,58.6,0.59,0.05,-0.04,0.81
1697353083.41,0.06,0.79,0.69,2.4,1.1,58.6,0.59,0.05,-0.04,0.81
1697353083.42,-0.01,0.73,0.97,1.1,1.7,58.3,0.58,0.05,-0.04,0.81
1697353083.43,-0.01,0.73,0.97,1.1,1.7,58.3,0.58,0.05,-0.04,0.81
1697353083.44,0.03,0.81,0.79,-0.1,1.9,58.5,0.58,0.05,-0.04,0.82
1697353083.45,-0.01,0.76,0.76,-0.1,2.3,58.6,0.57,0.05,-0.04,0.82
1697353083.46,-0.01,0.76,0.76,0,2.4,58.8,0.57,0.05,-0.04,0.82
1697353083.47,-0.04,0.82,1.2,0,2.5,58.6,0.56,0.05,-0.04,0.83
1697353083.48,0.1,0.76,1.02,0.2,2.9,58.3,0.56,0.05,-0.04,0.83
1697353083.49,0.09,0.74,0.93,0.2,2.9,58.2,0.55,0.05,-0.04,0.83
1697353083.5,0.06,0.68,1.34,0,2.4,57.4,0.55,0.05,-0.04,0.83
1697353083.51,0.06,0.68,1.34,0,2.4,57.4,0.55,0.05,-0.04,0.83
1697353083.52,0.06,0.68,1.34,0,2.4,57.4,0.55,0.05,-0.04,0.83
1697353083.53,0.06,0.68,1.34,0,2.4,57.4,0.55,0.05,-0.04,0.83
1697353083.54,0.06,0.68,1.34,0,2.4,57.4,0.55,0.05,-0.04,0.83
1697353083.55,0.06,0.68,1.34,0,2.4,57.4,0.55,0.05,-0.04,0.83
1697353083.56,0.06,0.68,1.34,0,2.4,57.4,0.55,0.05,-0.04,0.83
1697353083.57,0.06,0.68,1.34,0,2.4,57.4,0.55,0.05,-0.04,0.83
1697353083.58,0.06,0.68,1.34,0,2.4,57.4,0.55,0.05,-0.04,0.83
1697353083.59,0.06,0.68,1.34,0,2.4,57.4,0.55,0.05,-0.04,0.83
1697353083.6,0.06,0.68,1.34,0,2.4,57.4,0.55,0.05,-0.04,0.83
1697353083.61,0.06,0.68,1.34,0,2.4,57.4,0.55,0.05,-0.04,0.83
1697353083.62,0.06,0.68,1.34,0,2.4,57.4,0.55,0.05,-0.04,0.83
1697353083.63,0.06,0.68,1.34,0,2.4,57.4,0.55,0.05,-0.04,0.83
1697353083.64,0.1,0.22,0.88,0.5,0.1,37.9,0.5,0.04,-0.04,0.86
1697353083.65,0.12,0.23,0.75,-2,0,36.9,0.5,0.04,-0.04,0.87
1697353083.66,0.08,0.37,1.1,-2,0,36.9,0.5,0.04,-0.04,0.87
1697353083.67,0.11,0.45,1.35,-2.6,0.4,35.6,0.49,0.04,-0.04,0.87
1697353083.68,0.11,0.45,1.35,-2.6,0.4,35.6,0.49,0.04,-0.04,0.87
1697353083.69,0.01,0.37,1.37,-0.7,1.9,34.2,0.48,0.04,-0.05,0.87
1697353083.7,0.14,0.26,0.73,-0.7,1.9,34.2,0.48,0.04,-0.05,0.87
1697353083.71,0.09,0.21,0.89,-0.9,2.3,32.9,0.48,0.04,-0.05,0.87
1697353083.72,0.06,0.18,1.39,-3.9,2.2,29.7,0.48,0.04,-0.05,0.88
1697353083.73,0.13,0.28,0.88,-4.5,1.8,28.3,0.47,0.04,-0.05,0.88
1697353083.74,0.03,0.37,0.83,-3.3,1.4,26.8,0.47,0.04,-0.05,0.88
1697353083.75,0.04,0.33,1.06,-1.4,0.9,25.5,0.47,0.04,-0.05,0.88
1697353083.76,0.07,0.23,1.25,-1.4,0.9,25.5,0.47,0.04,-0.05,0.88
1697353083.77,0.02,0.16,1.15,-1,0.4,24.4,0.47,0.04,-0.05,0.88
1697353083.78,0.02,0.16,1.15,-1.8,0,23.1,0.47,0.04,-0.05,0.88
1697353083.79,0.13,0.17,1.23,-1.8,0,23.1,0.46,0.04,-0.05,0.88
1697353083.8,0.14,0.11,0.73,-3.3,-0.2,21.9,0.46,0.04,-0.05,0.88
1697353083.81,0.05,0.16,0.75,-3.6,-0.8,20.5,0.46,0.04,-0.05,0.88
1697353083.82,0.08,0.1,1.4,-3.1,-1.4,19.5,0.46,0.04,-0.05,0.89
1697353083.83,0.05,-0.12,1,-1.7,-1,17.8,0.46,0.04,-0.05,0.89
1697353083.84,0.02,-0.41,1.51,-1.6,-0.5,15,0.46,0.04,-0.05,0.89
1697353083.85,0.02,-0.58,0.88,-6.5,0.4,6.4,0.46,0.04,-0.05,0.89
1697353083.86,0.03,-0.48,0.85,-8.6,0.7,1.7,0.46,0.04,-0.05,0.89
1697353083.87,0.09,-0.43,1.4,-8.4,0.9,-2.4,0.46,0.04,-0.05,0.89
1697353083.88,-0.04,-0.6,1.17,-7.1,0.6,-7.3,0.46,0.04,-0.05,0.89
1697353083.89,0.18,-0.65,0.27,-7.2,0.5,-11.9,0.46,0.04,-0.05,0.89
1697353083.9,0,-0.74,1.42,-8,0,-15.7,0.46,0.04,-0.05,0.89
1697353083.91,-0.05,-0.72,1.31,-8.9,0,-19.3,0.46,0.04,-0.05,0.89
1697353083.92,0,-0.78,0.63,-9.6,-0.1,-22.4,0.46,0.04,-0.05,0.88
1697353083.93,-0,-0.72,1.45,-9,-0.3,-25.3,0.46,0.03,-0.05,0.88
1697353083.94,-0.03,-0.63,0.66,-6.8,-1,-27.3,0.47,0.03,-0.05,0.88
1697353083.95,-0.08,-0.78,1.49,-5.7,-1.3,-29.2,0.47,0.03,-0.06,0.88
1697353083.96,-0.06,-0.89,0.99,-5,-1.3,-31.5,0.47,0.03,-0.06,0.88
1697353083.97,-0.27,-0.75,0.69,-4.2,-0.9,-33.5,0.47,0.03,-0.06,0.88
1697353083.98,-0.22,-0.86,1.28,-2.7,-0.3,-35.3,0.48,0.03,-0.06,0.88
1697353083.99,0.03,-0.93,1.18,-1.5,0,-37.2,0.48,0.03,-0.06,0.88
1697353084,-0.12,-0.75,0.92,-1.4,0,-37.6,0.48,0.04,-0.06,0.87
1697353084.01,-0.05,-0.91,1.28,-0.4,0.2,-38.9,0.48,0.04,-0.06,0.87
1697353084.02,-0.12,-0.82,0.88,0.7,1.1,-40.1,0.49,0.04,-0.06,0.87
1697353084.03,-0.12,-0.82,0.88,0.7,1.1,-40.1,0.49,0.04,-0.06,0.87
1697353084.04,-0.12,-0.82,0.88,0.7,1.1,-40.1,0.49,0.04,-0.06,0.87
1697353084.05,-0.12,-0.82,0.88,0.7,1.1,-40.1,0.49,0.04,-0.06,0.87
1697353084.06,-0.12,-0.82,0.88,0.7,1.1,-40.1,0.49,0.04,-0.06,0.87
1697353084.07,-0.12,-0.82,0.88,0.7,1.1,-40.1,0.49,0.04,-0.06,0.87
1697353084.08,-0.12,-0.82,0.88,0.7,1.1,-40.1,0.49,0.04,-0.06,0.87
1697353084.09,-0.12,-0.82,0.88,0.7,1.1,-40.1,0.49,0.04,-0.06,0.87
1697353084.1,-0.12,-0.82,0.88,0.7,1.1,-40.1,0.49,0.04,-0.06,0.87
1697353084.11,-0.12,-0.82,0.88,0.7,1.1,-40.1,0.49,0.04,-0.06,0.87
1697353084.12,-0.12,-0.82,0.88,0.7,1.1,-40.1,0.49,0.04,-0.06,0.87
1697353084.13,-0.12,-0.82,0.88,0.7,1.1,-40.1,0.49,0.04,-0.06,0.87
1697353084.14,-0.12,-0.82,0.88,0.7,1.1,-40.1,0.49,0.04,-0.06,0.87
1697353084.15,-0.12,-0.82,0.88,0.7,1.1,-40.1,0.49,0.04,-0.06,0.87
1697353084.16,0,-0.79,1.23,1.6,-2.4,-47.5,0.53,0.04,-0.05,0.84
1697353084.17,-0.14,-0.91,0.58,-3,-2.1,-48.5,0.54,0.04,-0.05,0.84
1697353084.18,-0,-0.67,1.18,-4.2,-2,-48.8,0.54,0.04,-0.05,0.84
1697353084.19,0.29,-0.54,0.89,-2.8,-2.2,-47.5,0.54,0.04,-0.05,0.84
1697353084.2,0.23,-0.51,1.23,0.1,-2.2,-46.6,0.55,0.04,-0.05,0.83
1697353084.21,0.08,-0.43,1.19,1.8,-2.2,-45.2,0.55,0.04,-0.05,0.83
1697353084.22,0.13,-0.66,1.15,2.3,-1.3,-45.2,0.55,0.04,-0.05,0.83
1697353084.23,-0.07,-0.89,0.95,2.3,-1.3,-45.2,0.55,0.04,-0.05,0.83
1697353084.24,-0.12,-0.91,0.47,-3.9,1.2,-47.7,0.56,0.04,-0.05,0.83
1697353084.25,-0.26,-0.75,0.74,-5.5,2.3,-48.8,0.56,0.04,-0.05,0.82
1697353084.26,-0.08,-0.56,1.01,-0.6,4,-49.3,0.57,0.04,-0.05,0.82
1697353084.27,-0.05,-0.65,0.78,3.9,3.8,-50,0.57,0.04,-0.05,0.82
1697353084.28,-0.13,-0.81,0.52,1.8,2.3,-50.2,0.58,0.04,-0.05,0.82
1697353084.29,-0.01,-0.97,1.35,-1,1,-51.4,0.58,0.04,-0.05,0.81
1697353084.3,-0.01,-0.76,0.66,-4.2,0,-51.2,0.58,0.04,-0.05,0.81
1697353084.31,0.14,-0.76,0.73,-5.5,-1.1,-50.6,0.58,0.04,-0.05,0.81
1697353084.32,0.25,-0.5,0.85,-5.2,-1.3,-50.4,0.59,0.04,-0.05,0.8
1697353084.33,0.25,-0.5,0.85,-2.4,-2.2,-49.2,0.59,0.04,-0.05,0.8
1697353084.34,-0.11,-0.68,1.08,-0.1,-2.5,-47.8,0.6,0.04,-0.05,0.8
1697353084.35,-0.07,-0.95,0.7,1.4,-2.4,-47.8,0.6,0.04,-0.05,0.8
1697353084.36,-0.18,-0.87,1.38,1.3,-1.4,-47.8,0.6,0.04,-0.05,0.79
1697353084.37,-0.06,-0.65,1.03,0.2,0.2,-49,0.61,0.04,-0.05,0.79
1697353084.38,-0.06,-0.65,1.03,-0.2,1.4,-50.2,0.61,0.04,-0.05,0.79
1697353084.39,-0.41,-0.72,1.38,1.2,1.6,-50.9,0.61,0.04,-0.05,0.79
1697353084.4,-0.03,-0.84,1.1,2.1,2.9,-52.5,0.62,0.04,-0.05,0.78
1697353084.41,-0.03,-0.84,1.1,-0.1,3.9,-53.1,0.62,0.04,-0.05,0.78
1697353084.42,0.02,-0.77,0.38,-2,4.4,-53,0.62,0.04,-0.05,0.78
1697353084.43,0.11,-0.7,1.46,-2,4.4,-53,0.63,0.04,-0.05,0.78
1697353084.44,0.17,-0.7,0.77,-2.3,3.6,-52.8,0.63,0.04,-0.05,0.77
1697353084.45,0.23,-0.66,0.99,-2.1,2.4,-52,0.63,0.04,-0.05,0.77
1697353084.46,0.06,-0.61,1.1,-1.7,0.9,-51,0.64,0.04,-0.05,0.77
1697353084.47,-0.08,-0.78,1.06,-0.6,-0.5,-50.2,0.64,0.04,-0.05,0.77
1697353084.48,-0.08,-0.84,0.63,1.7,-1.4,-50,0.64,0.04,-0.05,0.76
1697353084.49,-0.11,-0.9,1.09,2.2,-1.7,-50.1,0.65,0.04,-0.05,0.76
1697353084.5,-0.19,-0.84,1.03,0.6,-1.2,-50.8,0.65,0.04,-0.05,0.76
1697353084.51,-0.14,-0.86,1.56,-1,-0.6,-51.4,0.65,0.04,-0.05,0.75
1697353084.52,0.01,-0.72,0.69,-1.8,-0.1,-51.9,0.66,0.04,-0.05,0.75
1697353084.53,-0.21,-0.63,0.94,-2.2,0.5,-52.6,0.66,0.04,-0.05,0.75
1697353084.54,0.11,-0.79,1.24,-1.6,0.8,-52.9,0.67,0.04,-0.05,0.74
1697353084.55,-0,-0.6,1.19,-0.6,0.6,-52.3,0.67,0.04,-0.05,0.74
1697353084.56,-0,-0.6,1.19,-0.6,0.6,-52.3,0.67,0.04,-0.05,0.74
1697353084.57,-0,-0.6,1.19,-0.6,0.6,-52.3,0.67,0.04,-0.05,0.74
1697353084.58,-0,-0.6,1.19,-0.6,0.6,-52.3,0.67,0.04,-0.05,0.74
1697353084.59,-0,-0.6,1.19,-0.6,0.6,-52.3,0.67,0.04,-0.05,0.74
1697353084.6,-0,-0.6,1.19,-0.6,0.6,-52.3,0.67,0.04,-0.05,0.74
1697353084.61,-0,-0.6,1.19,-0.6,0.6,-52.3,0.67,0.04,-0.05,0.74
1697353084.62,-0,-0.6,1.19,-0.6,0.6,-52.3,0.67,0.04,-0.05,0.74
1697353084.63,-0,-0.6,1.19,-0.6,0.6,-52.3,0.67,0.04,-0.05,0.74
1697353084.64,-0,-0.6,1.19,-0.6,0.6,-52.3,0.67,0.04,-0.05,0.74
1697353084.65,-0,-0.6,1.19,-0.6,0.6,-52.3,0.67,0.04,-0.05,0.74
1697353084.66,-0,-0.6,1.19,-0.6,0.6,-52.3,0.67,0.04,-0.05,0.74
1697353084.67,-0,-0.6,1.19,-0.6,0.6,-52.3,0.67,0.04,-0.05,0.74
1697353084.68,-0,-0.6,1.19,-0.6,0.6,-52.3,0.67,0.04,-0.05,0.74
1697353084.69,-0,-0.6,1.19,-0.6,0.6,-52.3,0.67,0.04,-0.05,0.74
1697353084.7,-0.05,-0.71,0.79,-1.6,-0.4,-51.4,0.72,0.05,-0.04,0.7
1697353084.71,-0.17,-0.76,1.23,-1.5,0.5,-51.7,0.72,0.05,-0.04,0.69
1697353084.72,-0.2,-0.81,0.79,0.3,1.4,-52.5,0.72,0.05,-0.04,0.69
1697353084.73,-0.2,-0.81,0.79,0.3,1.4,-52.5,0.73,0.05,-0.04,0.69
1697353084.74,-0.03,-1.02,1.26,2.3,2.4,-54.6,0.73,0.05,-0.04,0.68
1697353084.75,-0.03,-1.02,1.26,2.3,2.4,-54.6,0.73,0.05,-0.04,0.68
1697353084.76,-0.1,-0.89,0.9,0.6,2.8,-55.7,0.74,0.05,-0.04,0.67
1697353084.77,0.03,-0.78,0.99,-1.9,2.6,-56.6,0.74,0.05,-0.04,0.67
1697353084.78,0.12,-0.77,0.62,-2.6,2.2,-56.6,0.74,0.05,-0.04,0.67
1697353084.79,0.02,-0.77,1.19,-1.4,1.4,-56.4,0.75,0.05,-0.04,0.66
1697353084.8,0.03,-0.68,0.73,0,0.8,-56.1,0.75,0.05,-0.04,0.66
1697353084.81,-0.01,-0.7,1.16,1.2,0.7,-55.1,0.75,0.05,-0.04,0.66
1697353084.82,-0.06,-0.78,0.77,3,0.5,-54.4,0.76,0.05,-0.04,0.65
1697353084.83,-0.09,-0.92,1.09,3.9,0.8,-54,0.76,0.05,-0.04,0.65
1697353084.84,0.06,-1,0.72,2.5,1.1,-54.1,0.76,0.05,-0.04,0.64
1697353084.85,-0.12,-0.84,1.29,0.4,1.7,-54.5,0.77,0.05,-0.04,0.64
1697353084.86,-0.12,-0.83,0.9,0.3,2,-54.6,0.77,0.05,-0.04,0.64
1697353084.87,-0.05,-0.86,1.22,1.1,2.5,-54.8,0.77,0.05,-0.04,0.63
1697353084.88,0.02,-0.94,1.43,1.1,2.5,-54.8,0.77,0.05,-0.04,0.63
1697353084.89,0.04,-0.68,0.66,-0.8,0.8,-55.5,0.78,0.05,-0.04,0.63
1697353084.9,0.06,-0.76,0.96,0.6,-0.7,-55.6,0.78,0.05,-0.04,0.63
1697353084.91,-0.01,-0.64,0.9,1.2,-1.6,-55.6,0.78,0.05,-0.04,0.62
1697353084.92,0.01,-0.92,0.93,3.1,-1.6,-55.5,0.79,0.05,-0.04,0.61
1697353084.93,-0.11,-0.83,1.25,3,-0.8,-55.4,0.79,0.05,-0.04,0.61
1697353084.94,-0.14,-0.95,1.09,0.6,-0.4,-55.4,0.79,0.05,-0.04,0.61
1697353084.95,-0.15,-0.91,1.35,-2.1,0,-55.9,0.8,0.05,-0.04,0.6
1697353084.96,-0.04,-0.72,0.99,-3.7,0.9,-55.8,0.8,0.05,-0.04,0.6
1697353084.97,-0.1,-0.81,1.03,-1.2,1.7,-56.3,0.8,0.05,-0.04,0.6
1697353084.98,0.04,-0.72,1.27,0.4,2.1,-56.3,0.81,0.05,-0.04,0.59
1697353084.99,-0.02,-0.72,0.63,1,2.3,-55.5,0.81,0.05,-0.03,0.59
1697353085,0.01,-0.69,1.13,2.1,2.2,-54.6,0.81,0.05,-0.03,0.58
1697353085.01,0.09,-0.72,0.97,3.3,2,-53.9,0.81,0.05,-0.03,0.58
1697353085.02,0.1,-0.7,1.18,4.3,1.3,-52.9,0.81,0.05,-0.03,0.58
1697353085.03,0.21,-0.72,0.96,3.5,0.4,-51.5,0.82,0.05,-0.03,0.57
1697353085.04,0.03,-0.46,0.69,2.6,-0.4,-49.8,0.82,0.05,-0.03,0.57
1697353085.05,0.18,-0.39,0.93,3.3,-1.1,-47.4,0.82,0.05,-0.03,0.57
1697353085.06,0.12,-0.29,1,5.6,-2.2,-43.8,0.82,0.05,-0.03,0.56
1697353085.07,0.12,-0.29,1,5.6,-2.2,-43.8,0.83,0.05,-0.03,0.56
1697353085.08,-0.02,-0.41,1.16,6.4,-2.4,-42.1,0.83,0.05,-0.03,0.56
1697353085.09,-0.02,-0.41,1.16,6,-2.5,-38.4,0.83,0.05,-0.03,0.56
1697353085.1,-0.02,-0.41,1.16,6,-2.5,-38.4,0.83,0.05,-0.03,0.56
1697353085.11,-0.02,-0.41,1.16,6,-2.5,-38.4,0.83,0.05,-0.03,0.56
1697353085.12,-0.02,-0.41,1.16,6,-2.5,-38.4,0.83,0.05,-0.03,0.56
1697353085.13,-0.02,-0.41,1.16,6,-2.5,-38.4,0.83,0.05,-0.03,0.56
1697353085.14,-0.02,-0.41,1.16,6,-2.5,-38.4,0.83,0.05,-0.03,0.56
1697353085.15,-0.02,-0.41,1.16,6,-2.5,-38.4,0.83,0.05,-0.03,0.56
1697353085.16,-0.02,-0.41,1.16,6,-2.5,-38.4,0.83,0.05,-0.03,0.56
1697353085.17,-0.02,-0.41,1.16,6,-2.5,-38.4,0.83,0.05,-0.03,0.56
1697353085.18,-0.02,-0.41,1.16,6,-2.5,-38.4,0.83,0.05,-0.03,0.56
1697353085.19,-0.02,-0.41,1.16,6,-2.5,-38.4,0.83,0.05,-0.03,0.56
1697353085.2,-0.02,-0.41,1.16,6,-2.5,-38.4,0.83,0.05,-0.03,0.56
1697353085.21,0.21,0.75,0.98,7.8,0.2,14.2,0.84,0.06,-0.03,0.55
1697353085.22,0.23,0.42,0.69,8.2,-0.9,17.5,0.83,0.06,-0.03,0.55
1697353085.23,0.29,0.55,1.22,6.8,-1.6,18.7,0.83,0.06,-0.03,0.55
1697353085.24,0.11,0.61,1.1,3.3,-2.1,19.5,0.83,0.06,-0.03,0.55
1697353085.25,0.3,0.59,0.84,1,-2.3,20.6,0.83,0.06,-0.03,0.55
1697353085.26,0.11,0.65,1.33,0.6,-2.4,20.9,0.83,0.06,-0.03,0.55
1697353085.27,0.29,0.52,0.74,0.4,-1.9,21,0.83,0.06,-0.03,0.55
1697353085.28,0.22,0.47,1.24,0.4,-1.9,21,0.83,0.06,-0.03,0.55
1697353085.29,0.16,0.39,0.84,-0.1,-1.1,20.2,0.83,0.06,-0.03,0.56
1697353085.3,0.16,0.39,0.84,-0.1,-1.1,20.2,0.83,0.06,-0.03,0.56
1697353085.31,0.21,0.35,0.99,-2.9,-0.2,19,0.83,0.06,-0.03,0.56
1697353085.32,0.1,0.45,1.16,-5.7,0,18.9,0.82,0.06,-0.03,0.56
1697353085.33,0.28,0.45,0.94,-5.6,0.1,18.7,0.82,0.06,-0.03,0.56
1697353085.34,0.18,0.43,0.94,-3.6,0.8,19.4,0.82,0.06,-0.03,0.56
1697353085.35,0.25,0.34,0.89,-0.8,1.3,20,0.82,0.06,-0.03,0.57
1697353085.36,0.3,0.21,1.08,0.7,1.9,21.3,0.82,0.06,-0.03,0.57
1697353085.37,0.27,0.13,1,-0.7,1.8,22.4,0.82,0.06,-0.03,0.57
1697353085.38,0.29,0.32,1.27,-1.2,1.6,23,0.82,0.06,-0.03,0.57
1697353085.39,0.29,0.32,1.27,-1.2,1.6,23,0.82,0.06,-0.03,0.57
1697353085.4,0.33,0.3,0.71,0.4,1,23.5,0.82,0.06,-0.03,0.57
1697353085.41,0.34,0.31,1.23,4,-0.9,23.9,0.82,0.06,-0.03,0.57
1697353085.42,0.37,0.26,0.78,4.2,-1.5,23.4,0.82,0.06,-0.03,0.58
1697353085.43,0.42,0.27,1.16,3.4,-2.4,23,0.81,0.06,-0.03,0.58
1697353085.44,0.33,0.18,1.07,2.3,-2.6,22.5,0.81,0.06,-0.03,0.58
1697353085.45,0.28,0.43,0.91,1,-2.3,21.3,0.81,0.06,-0.03,0.58
1697353085.46,0.33,0.3,1.06,0.1,-1.5,21.1,0.81,0.06,-0.03,0.58
1697353085.47,0.31,0.45,0.91,0.3,-0.5,20.4,0.81,0.06,-0.03,0.58
1697353085.48,0.35,0.37,1.04,0.4,0.4,20.2,0.81,0.06,-0.03,0.59
1697353085.49,0.39,0.37,0.91,0.4,0.4,20.2,0.81,0.06,-0.03,0.59
1697353085.5,0.32,0.32,1.27,-0.2,1.5,19.7,0.81,0.06,-0.03,0.59
1697353085.51,0.33,0.34,1.18,-0.3,1.8,19.7,0.8,0.06,-0.03,0.59
1697353085.52,0.25,0.38,0.84,-0.7,1.7,19.7,0.8,0.06,-0.03,0.59
1697353085.53,0.25,0.38,0.84,-0.7,1.7,19.7,0.8,0.06,-0.03,0.59
1697353085.54,0.27,0.4,0.93,0,1.4,19.7,0.8,0.06,-0.03,0.59
1697353085.55,0.27,0.4,0.93,0,1.4,19.7,0.8,0.06,-0.03,0.59
1697353085.56,0.33,0.41,0.95,0.3,1.2,20,0.8,0.06,-0.03,0.6
1697353085.57,0.33,0.36,1.09,0.7,1.2,20.2,0.8,0.06,-0.03,0.6
1697353085.58,0.31,0.32,0.93,0.9,0.7,20.5,0.8,0.06,-0.03,0.6
1697353085.59,0.3,0.37,1.23,0.7,0.4,20.7,0.8,0.06,-0.03,0.6
1697353085.6,0.34,0.31,0.94,-0.1,0.3,20.9,0.8,0.06,-0.03,0.6
1697353085.61,0.34,0.31,0.94,-0.1,0.3,20.9,0.8,0.06,-0.03,0.6
1697353085.62,0.34,0.31,0.94,-0.1,0.3,20.9,0.8,0.06,-0.03,0.6
1697353085.63,0.34,0.31,0.94,-0.1,0.3,20.9,0.8,0.06,-0.03,0.6
1697353085.64,0.34,0.31,0.94,-0.1,0.3,20.9,0.8,0.06,-0.03,0.6
1697353085.65,0.34,0.31,0.94,-0.1,0.3,20.9,0.8,0.06,-0.03,0.6
1697353085.66,0.34,0.31,0.94,-0.1,0.3,20.9,0.8,0.06,-0.03,0.6
1697353085.67,0.34,0.31,0.94,-0.1,0.3,20.9,0.8,0.06,-0.03,0.6
1697353085.68,0.34,0.31,0.94,-0.1,0.3,20.9,0.8,0.06,-0.03,0.6
1697353085.69,0.34,0.31,0.94,-0.1,0.3,20.9,0.8,0.06,-0.03,0.6
1697353085.7,0.34,0.31,0.94,-0.1,0.3,20.9,0.8,0.06,-0.03,0.6
1697353085.71,0.34,0.31,0.94,-0.1,0.3,20.9,0.8,0.06,-0.03,0.6
1697353085.72,0.34,0.31,0.94,-0.1,0.3,20.9,0.8,0.06,-0.03,0.6
1697353085.73,0.37,0.5,0.79,-0.1,0.3,20.9,0.78,0.06,-0.03,0.62
1697353085.74,0.28,0.4,1.06,1.1,-0.7,21.6,0.78,0.06,-0.03,0.62
1697353085.75,0.32,0.4,0.99,1.3,-0.8,21,0.78,0.06,-0.03,0.63
1697353085.76,0.37,0.36,1,0.7,-0.8,20.6,0.78,0.06,-0.03,0.63
1697353085.77,0.3,0.31,0.83,0.5,-0.8,19.8,0.78,0.06,-0.03,0.63
1697353085.78,0.27,0.28,1.2,-0.3,-0.8,19.4,0.77,0.06,-0.03,0.63
1697353085.79,0.21,0.3,1.08,-1.7,-0.7,18.8,0.77,0.06,-0.03,0.63
1697353085.8,0.36,0.36,0.97,-2.6,-0.1,18.7,0.77,0.06,-0.03,0.63
1697353085.81,0.2,0.33,1.16,-2.5,0.3,18.5,0.77,0.06,-0.03,0.63
1697353085.82,0.25,0.3,1.19,-2.1,0.9,18.2,0.77,0.06,-0.03,0.64
1697353085.83,0.43,0.21,0.77,-0.7,1.6,18,0.77,0.06,-0.03,0.64
1697353085.84,0.13,0.21,1.19,-0.6,2.1,17.7,0.77,0.06,-0.03,0.64
1697353085.85,0.27,0.16,1.22,-0.7,2.1,17.5,0.77,0.06,-0.03,0.64
1697353085.86,0.41,0.07,0.93,-0.5,1.9,16.9,0.77,0.06,-0.03,0.64
1697353085.87,0.35,0.16,1.02,-1.1,1.4,15.8,0.76,0.06,-0.03,0.64
1697353085.88,0.43,0.28,0.82,-1.1,0.3,14.7,0.76,0.06,-0.03,0.64
1697353085.89,0.38,0.29,1,0,-1.3,14,0.76,0.06,-0.03,0.64
1697353085.9,0.23,0.27,1.08,1.4,-2.6,13.2,0.76,0.06,-0.03,0.64
1697353085.91,0.23,0.27,1.08,1.4,-2.6,13.2,0.76,0.06,-0.03,0.64
1697353085.92,0.33,0.06,0.94,0.8,-3.4,11.9,0.76,0.06,-0.03,0.65
1697353085.93,0.41,0.13,1.04,0.8,-3.4,11.9,0.76,0.06,-0.03,0.65
1697353085.94,0.2,0.27,1.04,-5,-2.7,10.4,0.76,0.06,-0.03,0.65
1697353085.95,0.2,0.27,1.04,-5,-2.7,10.4,0.76,0.06,-0.03,0.65
1697353085.96,0.32,0.32,1.05,-2.1,-1.1,10.6,0.76,0.06,-0.03,0.65
1697353085.97,0.22,0.14,1.12,0.5,-0.1,10.9,0.76,0.06,-0.03,0.65
1697353085.98,0.22,0.14,1.12,0.5,-0.1,10.9,0.76,0.06,-0.03,0.65
1697353085.99,0.23,-0.03,1.14,2.4,0.5,10.8,0.76,0.06,-0.03,0.65
1697353086,0.23,-0.03,1.14,1.9,0.7,10.7,0.76,0.06,-0.03,0.65
1697353086.01,0.23,-0.01,0.88,0.6,1,10.1,0.76,0.06,-0.03,0.65
1697353086.02,0.27,-0.01,0.96,0.6,1,10.1,0.75,0.06,-0.03,0.65
1697353086.03,0.34,0.25,0.86,-3.3,2.3,8.4,0.75,0.06,-0.03,0.65
1697353086.04,0.36,0.29,1.11,1.7,2.1,8.1,0.75,0.06,-0.03,0.65
1697353086.05,0.36,0.29,1.11,1.7,2.1,8.1,0.75,0.06,-0.03,0.65
1697353086.06,0.4,0.01,0.87,4.5,2,7.7,0.75,0.06,-0.03,0.66
1697353086.07,0.31,-0.06,0.96,2.1,1.3,6.9,0.75,0.06,-0.03,0.66
1697353086.08,0.32,0.11,1.22,-3.4,0,6.2,0.75,0.06,-0.03,0.66
1697353086.09,0.37,0.33,0.95,-6.6,-1.2,5.8,0.75,0.06,-0.03,0.66
1697353086.1,0.26,0.34,1,-6.3,-1.5,5.8,0.75,0.06,-0.03,0.66
1697353086.11,0.27,0.11,1.02,-2.8,-1.3,5.7,0.75,0.05,-0.03,0.66
1697353086.12,0.29,0.14,1.07,-2.8,-1.3,5.7,0.75,0.05,-0.04,0.66
1697353086.13,0.29,0.14,1.07,-2.8,-1.3,5.7,0.75,0.05,-0.04,0.66
1697353086.14,0.29,0.14,1.07,-2.8,-1.3,5.7,0.75,0.05,-0.04,0.66
1697353086.15,0.29,0.14,1.07,-2.8,-1.3,5.7,0.75,0.05,-0.04,0.66
1697353086.16,0.29,0.14,1.07,-2.8,-1.3,5.7,0.75,0.05,-0.04,0.66
1697353086.17,0.29,0.14,1.07,-2.8,-1.3,5.7,0.75,0.05,-0.04,0.66
1697353086.18,0.29,0.14,1.07,-2.8,-1.3,5.7,0.75,0.05,-0.04,0.66
1697353086.19,0.29,0.14,1.07,-2.8,-1.3,5.7,0.75,0.05,-0.04,0.66
1697353086.2,0.29,0.14,1.07,-2.8,-1.3,5.7,0.75,0.05,-0.04,0.66
1697353086.21,0.29,0.14,1.07,-2.8,-1.3,5.7,0.75,0.05,-0.04,0.66
1697353086.22,0.29,0.14,1.07,-2.8,-1.3,5.7,0.75,0.05,-0.04,0.66
1697353086.23,0.29,0.14,1.07,-2.8,-1.3,5.7,0.75,0.05,-0.04,0.66
1697353086.24,0.29,0.14,1.07,-2.8,-1.3,5.7,0.75,0.05,-0.04,0.66
1697353086.25,0.29,0.14,1.07,-2.8,-1.3,5.7,0.75,0.05,-0.04,0.66
1697353086.26,0.29,0.14,1.07,-2.8,-1.3,5.7,0.75,0.05,-0.04,0.66
1697353086.27,0.35,0.12,0.99,0.9,0.1,8.7,0.74,0.05,-0.04,0.67
1697353086.28,0.21,0.19,0.95,0.9,0.1,8.7,0.74,0.06,-0.04,0.67
1697353086.29,0.21,0.03,0.99,-1.4,1,8.8,0.74,0.05,-0.04,0.67
1697353086.3,0.29,0.31,0.85,-3.7,1.7,8.6,0.74,0.05,-0.04,0.67
1697353086.31,0.31,0.4,1.14,-2.7,1.9,8.3,0.74,0.05,-0.04,0.67
1697353086.32,0.17,0.26,1.28,1.3,1.3,8.9,0.74,0.05,-0.04,0.67
1697353086.33,0.17,0.26,1.28,1.3,1.3,8.9,0.74,0.05,-0.04,0.67
1697353086.34,0.28,0.07,0.98,4.4,1,8.9,0.74,0.05,-0.04,0.67
1697353086.35,0.11,-0.12,0.92,4.3,0.8,8.3,0.74,0.05,-0.04,0.67
1697353086.36,0.31,0.17,1.18,-4.3,0.2,7.2,0.74,0.05,-0.04,0.67
1697353086.37,0.31,0.29,1.27,-5.8,-1.3,6.9,0.74,0.05,-0.04,0.67
1697353086.38,0.18,0.5,0.78,-5.8,-1.3,6.9,0.74,0.05,-0.04,0.67
1697353086.39,0.26,0.24,1.06,0.6,-2.7,7.2,0.74,0.05,-0.04,0.67
1697353086.4,0.26,0.24,1.06,0.6,-2.7,7.2,0.74,0.05,-0.04,0.67
1697353086.41,0.16,-0.04,0.99,5.5,-2.2,6.8,0.74,0.05,-0.04,0.67
1697353086.42,0.18,-0.13,0.95,3.3,-1,6.8,0.74,0.05,-0.04,0.67
1697353086.43,0.21,-0.04,0.95,0.4,0,6.5,0.74,0.05,-0.04,0.67
1697353086.44,0.15,0.12,1.09,-3.6,0.7,5.9,0.74,0.05,-0.04,0.67
1697353086.45,0.25,0.38,0.58,-5,1.1,6.1,0.74,0.05,-0.04,0.67
1697353086.46,0.01,0.35,1.18,1.8,1.5,8,0.73,0.05,-0.04,0.67
1697353086.47,0.04,0.04,1.12,4.8,1.5,8.7,0.73,0.05,-0.04,0.68
1697353086.48,0.22,-0.2,0.49,5.9,1.1,8.8,0.73,0.05,-0.04,0.68
1697353086.49,0.06,-0.16,1.11,3,1.3,8.6,0.73,0.05,-0.04,0.68
1697353086.5,0.05,0.02,1.1,-2.7,1.3,8.5,0.73,0.05,-0.04,0.68
1697353086.51,0.23,0.3,0.66,-6.2,1.6,8.8,0.73,0.05,-0.04,0.68
1697353086.52,0.05,0.43,1.21,-2.6,1.3,8.5,0.73,0.05,-0.04,0.68
1697353086.53,-0.06,0.22,1.34,2.4,0.7,8.7,0.73,0.05,-0.04,0.68
1697353086.54,-0.08,0.14,1.21,4.1,0,8.7,0.73,0.05,-0.04,0.68
1697353086.55,0.18,0.14,1.03,3.9,-0.2,8.6,0.73,0.05,-0.04,0.68
1697353086.56,0.02,-0.01,0.95,2.8,-0.4,8.4,0.73,0.05,-0.04,0.68
1697353086.57,-0.12,0.19,1.32,0,0,7.7,0.73,0.05,-0.04,0.68
1697353086.58,-0.12,0.19,1.32,0,0,7.7,0.73,0.05,-0.04,0.68
1697353086.59,0,0.41,1.03,0.5,1.3,9.9,0.73,0.05,-0.04,0.68
1697353086.6,0,0.41,1.03,0.5,1.3,9.9,0.73,0.05,-0.04,0.68
1697353086.61,-0.02,0.15,0.96,3.6,1.6,10.8,0.73,0.05,-0.04,0.68
1697353086.62,0.16,0.15,0.82,2.4,1.4,11.5,0.73,0.05,-0.04,0.68
1697353086.63,-0.08,0.23,1.17,0.3,0.8,11.6,0.73,0.05,-0.04,0.68
1697353086.64,-0.05,0.31,1.05,-2.5,0.2,11.8,0.73,0.05,-0.04,0.69
1697353086.65,-0.05,0.31,1.05,-2.5,0.2,11.8,0.73,0.05,-0.04,0.69
1697353086.66,-0.05,0.31,1.05,-2.5,0.2,11.8,0.73,0.05,-0.04,0.69
1697353086.67,-0.05,0.31,1.05,-2.5,0.2,11.8,0.73,0.05,-0.04,0.69
1697353086.68,-0.05,0.31,1.05,-2.5,0.2,11.8,0.73,0.05,-0.04,0.69
1697353086.69,-0.05,0.31,1.05,-2.5,0.2,11.8,0.73,0.05,-0.04,0.69
1697353086.7,-0.05,0.31,1.05,-2.5,0.2,11.8,0.73,0.05,-0.04,0.69
1697353086.71,-0.05,0.31,1.05,-2.5,0.2,11.8,0.73,0.05,-0.04,0.69
1697353086.72,-0.05,0.31,1.05,-2.5,0.2,11.8,0.73,0.05,-0.04,0.69
1697353086.73,-0.05,0.31,1.05,-2.5,0.2,11.8,0.73,0.05,-0.04,0.69
1697353086.74,-0.05,0.31,1.05,-2.5,0.2,11.8,0.73,0.05,-0.04,0.69
1697353086.75,-0.05,0.31,1.05,-2.5,0.2,11.8,0.73,0.05,-0.04,0.69
1697353086.76,-0.05,0.31,1.05,-2.5,0.2,11.8,0.73,0.05,-0.04,0.69
1697353086.77,-0.05,0.31,1.05,-2.5,0.2,11.8,0.73,0.05,-0.04,0.69
1697353086.78,-0.08,0.39,1.07,-1.7,-4.4,13.3,0.71,0.05,-0.04,0.7
1697353086.79,-0.08,0.39,1.07,-3.6,-4.3,13.1,0.71,0.05,-0.04,0.7
1697353086.8,-0.04,0.41,1.06,-2.1,-3.8,12.9,0.71,0.05,-0.04,0.7
1697353086.81,-0.26,0.13,1.27,0.2,-2.9,12.7,0.71,0.05,-0.04,0.7
1697353086.82,-0.26,0.13,1.27,3,-0.8,12.4,0.71,0.05,-0.04,0.7
1697353086.83,-0.22,0.03,0.89,1.8,0.4,11.9,0.71,0.05,-0.04,0.7
1697353086.84,-0.29,0.1,0.97,-0.5,1.5,10.8,0.71,0.05,-0.04,0.7
1697353086.85,-0.24,0.22,1.05,-2.5,2.3,9,0.71,0.05,-0.04,0.7
1697353086.86,-0.13,0.23,0.73,-2.4,2.3,7.9,0.71,0.05,-0.04,0.7
1697353086.87,-0.06,0.23,0.8,0,2.1,7.2,0.71,0.05,-0.04,0.7
1697353086.88,-0.04,0.12,1.31,-0.8,1.9,7.3,0.71,0.05,-0.04,0.7
1697353086.89,0.19,0.04,0.61,-1.3,0.7,7.3,0.71,0.05,-0.04,0.7
1697353086.9,-0.01,-0.03,1.3,-2.3,0,7,0.71,0.05,-0.04,0.7
1697353086.91,-0.11,0.15,1.26,-3.7,-0.7,6.6,0.71,0.05,-0.04,0.7
1697353086.92,-0.11,0.14,1.19,-1.7,-1.4,6.3,0.71,0.05,-0.04,0.71
1697353086.93,-0.08,-0.07,1.04,1.3,-1.6,6,0.71,0.05,-0.04,0.71
1697353086.94,-0.12,-0.06,1,2.2,-1.3,5.3,0.71,0.05,-0.04,0.71
1697353086.95,-0.17,-0.02,1.06,1.7,-0.5,5,0.71,0.05,-0.04,0.71
1697353086.96,-0.16,-0.01,1.11,0.5,0,5.1,0.71,0.05,-0.04,0.71
1697353086.97,-0.04,0.17,1.27,-1.1,0.3,5,0.7,0.05,-0.04,0.71
1697353086.98,-0.06,0.24,1.03,-0.9,0,5.3,0.7,0.05,-0.04,0.71
1697353086.99,0.07,0.17,0.91,0.2,-0.3,6,0.7,0.05,-0.04,0.71
1697353087,0.07,0.17,0.91,0.2,-0.3,6,0.7,0.05,-0.04,0.71
1697353087.01,-0.14,0.12,1.17,0.9,-2.6,6.5,0.7,0.05,-0.04,0.71
1697353087.02,-0.14,0.09,0.98,0.9,-2.6,6.5,0.7,0.05,-0.04,0.71
1697353087.03,-0.21,0.09,1.08,0,-2.9,6.4,0.7,0.05,-0.04,0.71
1697353087.04,-0.27,0.24,1.1,-1.2,-2.5,6,0.7,0.05,-0.04,0.71
1697353087.05,-0.25,0.16,0.93,-0.1,-0.9,5.8,0.7,0.05,-0.04,0.71
1697353087.06,-0.21,0.07,1.01,2,1.2,5.8,0.7,0.05,-0.04,0.71
1697353087.07,-0.21,0.07,1.01,2,1.2,5.8,0.7,0.05,-0.04,0.71
1697353087.08,-0.1,-0,1.05,0.9,3.6,4.2,0.7,0.05,-0.04,0.71
1697353087.09,-0.03,0.08,1.07,-0.7,3.8,4.1,0.7,0.05,-0.04,0.71
1697353087.1,-0.03,0.07,1.26,-1.4,4.2,4.1,0.7,0.05,-0.04,0.71
1697353087.11,-0.08,0.24,1.35,-1.3,3.3,4.3,0.7,0.05,-0.04,0.71
1697353087.12,-0.01,0.22,0.96,0.5,2.3,4.7,0.7,0.05,-0.04,0.71
1697353087.13,-0.08,0.13,1.2,1.5,1.1,5.1,0.7,0.05,-0.04,0.71
1697353087.14,-0.05,-0.02,1.01,1.7,-0.1,5.1,0.7,0.05,-0.04,0.71
1697353087.15,-0.11,0.01,1.42,1,0,4.7,0.7,0.05,-0.04,0.71
1697353087.16,0.02,0.05,0.96,-0.9,-0.1,4.9,0.7,0.05,-0.04,0.71
1697353087.17,0.02,0.05,0.96,-0.9,-0.1,4.9,0.7,0.05,-0.04,0.71
1697353087.18,0.02,0.05,0.96,-0.9,-0.1,4.9,0.7,0.05,-0.04,0.71
1697353087.19,0.02,0.05,0.96,-0.9,-0.1,4.9,0.7,0.05,-0.04,0.71
1697353087.2,0.02,0.05,0.96,-0.9,-0.1,4.9,0.7,0.05,-0.04,0.71
1697353087.21,0.02,0.05,0.96,-0.9,-0.1,4.9,0.7,0.05,-0.04,0.71
1697353087.22,0.02,0.05,0.96,-0.9,-0.1,4.9,0.7,0.05,-0.04,0.71
1697353087.23,0.02,0.05,0.96,-0.9,-0.1,4.9,0.7,0.05,-0.04,0.71
1697353087.24,0.02,0.05,0.96,-0.9,-0.1,4.9,0.7,0.05,-0.04,0.71
1697353087.25,0.02,0.05,0.96,-0.9,-0.1,4.9,0.7,0.05,-0.04,0.71
1697353087.26,0.02,0.05,0.96,-0.9,-0.1,4.9,0.7,0.05,-0.04,0.71
1697353087.27,0.02,0.05,0.96,-0.9,-0.1,4.9,0.7,0.05,-0.04,0.71
1697353087.28,0.02,0.05,0.96,-0.9,-0.1,4.9,0.7,0.05,-0.04,0.71
1697353087.29,0.02,0.05,0.96,-0.9,-0.1,4.9,0.7,0.05,-0.04,0.71
1697353087.3,0.02,0.05,0.96,-0.9,-0.1,4.9,0.7,0.05,-0.04,0.71
1697353087.31,-0.1,0.3,0.96,-2.5,0.2,9.9,0.69,0.05,-0.03,0.72
1697353087.32,-0.12,0.41,1.07,-2,-0.4,10.2,0.69,0.05,-0.03,0.72
1697353087.33,-0.09,0.26,1.14,0,-0.6,11.2,0.69,0.05,-0.03,0.72
1697353087.34,-0.02,0.13,0.54,2.2,-0.2,11.3,0.69,0.05,-0.03,0.72
1697353087.35,-0.07,0.1,0.81,3.2,0.1,10.7,0.69,0.05,-0.03,0.72
1697353087.36,-0.15,0.12,1.13,1.9,0.6,10.2,0.69,0.05,-0.03,0.72
1697353087.37,-0.17,0.27,0.93,-0.4,0.6,9.9,0.69,0.05,-0.03,0.72
1697353087.38,-0.16,0.33,1.08,-0.4,0.6,9.9,0.69,0.05,-0.03,0.72
1697353087.39,-0.13,0.31,1.06,0.1,0.9,9.7,0.69,0.05,-0.03,0.72
1697353087.4,0.04,0.24,0.86,1.6,0.6,9.8,0.69,0.05,-0.03,0.72
1697353087.41,-0.07,0.14,0.96,1.4,-0.2,10,0.69,0.05,-0.03,0.72
1697353087.42,-0.04,0.27,0.96,-0.4,-1.2,10,0.69,0.05,-0.03,0.73
1697353087.43,-0.06,0.19,1.08,-0.9,-1.7,9.8,0.69,0.05,-0.03,0.73
1697353087.44,-0.09,0.23,1.16,-1.9,-1.8,9.8,0.68,0.05,-0.03,0.73
1697353087.45,-0,0.17,0.91,-2.2,-1.8,9.5,0.68,0.05,-0.03,0.73
1697353087.46,-0,0.17,0.91,-2.2,-1.8,9.5,0.68,0.05,-0.03,0.73
1697353087.47,-0.06,0.16,1.14,-2,-1.1,8.2,0.68,0.05,-0.03,0.73
1697353087.48,-0.11,0.12,0.8,-0.7,-0.4,7.7,0.68,0.05,-0.03,0.73
1697353087.49,-0.12,0.06,1.13,0,0,6.9,0.68,0.05,-0.03,0.73
1697353087.5,-0.12,0.06,1.13,0,0,6.9,0.68,0.05,-0.03,0.73
1697353087.51,-0.12,0.03,0.94,0.2,0.7,4.4,0.68,0.05,-0.03,0.73
1697353087.52,-0.04,0.03,0.8,-2.2,1.5,4.1,0.68,0.05,-0.03,0.73
1697353087.53,-0.04,0.03,0.8,-2.2,1.5,4.1,0.68,0.05,-0.03,0.73
1697353087.54,-0.07,0.09,1.01,-1.5,1.4,3.7,0.68,0.05,-0.03,0.73
1697353087.55,-0.13,0.06,0.79,-1.5,1.4,3.7,0.68,0.05,-0.03,0.73
1697353087.56,-0.18,-0.01,1.17,-0.1,0.9,3.2,0.68,0.05,-0.03,0.73
1697353087.57,-0.02,0.02,1.01,-0.5,0.3,3.5,0.68,0.05,-0.03,0.73
1697353087.58,-0.02,0.02,1.01,-0.5,0.3,3.5,0.68,0.05,-0.03,0.73
1697353087.59,-0.08,0.07,1.1,-1.3,0,3.7,0.68,0.04,-0.03,0.73
1697353087.6,-0.04,-0.08,1.04,-0.4,-0.6,3.7,0.68,0.05,-0.03,0.73
1697353087.61,-0.12,0.03,1.06,1.2,-0.8,3.7,0.68,0.05,-0.03,0.73
1697353087.62,-0.12,0.03,1.06,0.9,-1.1,3.7,0.68,0.05,-0.03,0.73
1697353087.63,-0.12,-0.03,0.86,1,-0.9,3.1,0.68,0.05,-0.03,0.73
1697353087.64,-0.06,-0.17,0.84,1.2,-0.2,2.8,0.68,0.05,-0.03,0.73
1697353087.65,-0.04,-0.11,0.89,0.5,0.3,2.1,0.68,0.05,-0.03,0.73
1697353087.66,-0.14,-0.14,0.92,-0.3,0.2,1.3,0.68,0.05,-0.03,0.73
1697353087.67,-0.17,-0.28,1.02,-1.6,0.5,0,0.68,0.04,-0.03,0.73
1697353087.68,-0.1,-0.27,1.11,-1.8,0.5,-2.4,0.68,0.04,-0.03,0.73
1697353087.69,-0.16,-0.49,1.36,-3.5,-0.8,-7.5,0.68,0.04,-0.03,0.73
1697353087.7,-0.16,-0.49,1.36,-3.5,-0.8,-7.5,0.68,0.04,-0.03,0.73
1697353087.71,-0.16,-0.49,1.36,-3.5,-0.8,-7.5,0.68,0.04,-0.03,0.73
1697353087.72,-0.16,-0.49,1.36,-3.5,-0.8,-7.5,0.68,0.04,-0.03,0.73
1697353087.73,-0.16,-0.49,1.36,-3.5,-0.8,-7.5,0.68,0.04,-0.03,0.73
1697353087.74,-0.16,-0.49,1.36,-3.5,-0.8,-7.5,0.68,0.04,-0.03,0.73
1697353087.75,-0.16,-0.49,1.36,-3.5,-0.8,-7.5,0.68,0.04,-0.03,0.73
1697353087.76,-0.16,-0.49,1.36,-3.5,-0.8,-7.5,0.68,0.04,-0.03,0.73
1697353087.77,-0.16,-0.49,1.36,-3.5,-0.8,-7.5,0.68,0.04,-0.03,0.73
1697353087.78,-0.16,-0.49,1.36,-3.5,-0.8,-7.5,0.68,0.04,-0.03,0.73
1697353087.79,-0.16,-0.49,1.36,-3.5,-0.8,-7.5,0.68,0.04,-0.03,0.73
1697353087.8,-0.16,-0.49,1.36,-3.5,-0.8,-7.5,0.68,0.04,-0.03,0.73
1697353087.81,-0.16,-0.49,1.36,-3.5,-0.8,-7.5,0.68,0.04,-0.03,0.73
1697353087.82,-0.16,-0.49,1.36,-3.5,-0.8,-7.5,0.68,0.04,-0.03,0.73
1697353087.83,-0.16,-0.49,1.36,-3.5,-0.8,-7.5,0.68,0.04,-0.03,0.73
1697353087.84,-0.16,-0.49,1.36,-3.5,-0.8,-7.5,0.68,0.04,-0.03,0.73
1697353087.85,-0.16,-0.49,1.36,-3.5,-0.8,-7.5,0.68,0.04,-0.03,0.73
1697353087.86,-0.16,-0.49,1.36,-3.5,-0.8,-7.5,0.68,0.04,-0.03,0.73
1697353087.87,-0.16,-0.49,1.36,-3.5,-0.8,-7.5,0.68,0.04,-0.03,0.73
1697353087.88,-0.16,-0.49,1.36,-3.5,-0.8,-7.5,0.68,0.04,-0.03,0.73
1697353087.89,-0.16,-0.49,1.36,-3.5,-0.8,-7.5,0.68,0.04,-0.03,0.73
1697353087.9,-0.16,-0.49,1.36,-3.5,-0.8,-7.5,0.68,0.04,-0.03,0.73
1697353087.91,-0.16,-0.49,1.36,-3.5,-0.8,-7.5,0.68,0.04,-0.03,0.73
1697353087.92,-0.16,-0.49,1.36,-3.5,-0.8,-7.5,0.68,0.04,-0.03,0.73
1697353087.93,-0.16,-0.49,1.36,-3.5,-0.8,-7.5,0.68,0.04,-0.03,0.73
1697353087.94,-0.16,-0.49,1.36,-3.5,-0.8,-7.5,0.68,0.04,-0.03,0.73
1697353087.95,-0.16,-0.49,1.36,-3.5,-0.8,-7.5,0.68,0.04,-0.03,0.73
1697353087.96,-0.16,-0.49,1.36,-3.5,-0.8,-7.5,0.68,0.04,-0.03,0.73
1697353087.97,-0.16,-0.49,1.36,-3.5,-0.8,-7.5,0.68,0.04,-0.03,0.73
1697353087.98,-0.16,-0.49,1.36,-3.5,-0.8,-7.5,0.68,0.04,-0.03,0.73
1697353087.99,-0.16,-0.49,1.36,-3.5,-0.8,-7.5,0.68,0.04,-0.03,0.73
1697353088,-0.16,-0.49,1.36,-3.5,-0.8,-7.5,0.68,0.04,-0.03,0.73
1697353088.01,-0.16,-0.49,1.36,-3.5,-0.8,-7.5,0.68,0.04,-0.03,0.73
1697353088.02,-0.16,-0.49,1.36,-3.5,-0.8,-7.5,0.68,0.04,-0.03,0.73
1697353088.03,-0.16,-0.49,1.36,-3.5,-0.8,-7.5,0.68,0.04,-0.03,0.73
1697353088.04,-0.16,-0.49,1.36,-3.5,-0.8,-7.5,0.68,0.04,-0.03,0.73
1697353088.05,-0.16,-0.49,1.36,-3.5,-0.8,-7.5,0.68,0.04,-0.03,0.73
1697353088.06,-0.16,-0.49,1.36,-3.5,-0.8,-7.5,0.68,0.04,-0.03,0.73
1697353088.07,-0.16,-0.49,1.36,-3.5,-0.8,-7.5,0.68,0.04,-0.03,0.73
1697353088.08,-0.16,-0.49,1.36,-3.5,-0.8,-7.5,0.68,0.04,-0.03,0.73
1697353088.09,-0.16,-0.49,1.36,-3.5,-0.8,-7.5,0.68,0.04,-0.03,0.73
1697353088.1,-0.16,-0.49,1.36,-3.5,-0.8,-7.5,0.68,0.04,-0.03,0.73
1697353088.11,-0.16,-0.49,1.36,-3.5,-0.8,-7.5,0.68,0.04,-0.03,0.73
1697353088.12,-0.16,-0.49,1.36,-3.5,-0.8,-7.5,0.68,0.04,-0.03,0.73
1697353088.13,-0.16,-0.49,1.36,-3.5,-0.8,-7.5,0.68,0.04,-0.03,0.73
1697353088.14,-0.19,-0.01,1.12,1.6,1.2,-15.8,0.75,0.04,-0.03,0.66
1697353088.15,-0.14,0.16,1.04,5.7,1.9,-13.8,0.75,0.04,-0.03,0.66
1697353088.16,-0.13,0.09,0.94,8.6,2.2,-10.2,0.75,0.04,-0.03,0.66
1697353088.17,-0.17,-0.02,1.04,6.9,2.1,-7.5,0.75,0.04,-0.03,0.66
1697353088.18,-0.1,-0.02,1.11,2.8,1.7,-4.6,0.75,0.04,-0.03,0.66
1697353088.19,-0.03,0.18,1.11,0.6,1.6,-1.6,0.75,0.04,-0.03,0.66
1697353088.2,0.07,0.4,0.68,1.8,1.3,1.1,0.75,0.04,-0.03,0.66
1697353088.21,-0.14,0.42,1.25,3.4,0.6,4.2,0.75,0.04,-0.02,0.66
1697353088.22,-0.14,0.42,1.25,3.4,0.6,4.2,0.75,0.04,-0.02,0.66
1697353088.23,-0.01,0.28,1.1,6,-0.1,6.5,0.75,0.05,-0.02,0.66
1697353088.24,-0.19,0.1,1.08,6.6,-0.3,6.9,0.75,0.05,-0.02,0.66
1697353088.25,-0.04,0.23,0.87,6.1,-1.1,8.4,0.75,0.05,-0.02,0.66
1697353088.26,-0.13,0.37,1.33,-2.2,-1.3,8.5,0.75,0.05,-0.02,0.66
1697353088.27,-0.06,0.53,1.17,-2.2,-1.3,8.5,0.75,0.05,-0.02,0.66
1697353088.28,-0.06,0.53,1.17,-2.4,-0.8,8.7,0.75,0.05,-0.02,0.66
1697353088.29,-0.12,0.33,1.13,2.4,-1.9,9.1,0.75,0.05,-0.02,0.66
1697353088.3,-0.12,0.33,1.13,2.4,-1.9,9.1,0.75,0.05,-0.02,0.66
1697353088.31,-0.15,0.18,0.93,3.1,-2,9,0.75,0.05,-0.02,0.66
1697353088.32,-0.15,0.18,0.93,2.8,-0.3,9.2,0.75,0.05,-0.02,0.66
1697353088.33,-0.18,0.13,1.1,1.5,0.5,8.6,0.75,0.05,-0.02,0.66
1697353088.34,-0.07,0.03,1.06,-1.9,0.9,8.8,0.75,0.05,-0.02,0.66
1697353088.35,-0.06,0.16,0.83,-4.5,0.7,8.8,0.75,0.05,-0.02,0.66
1697353088.36,-0.11,0.39,1,-4.5,0,9.6,0.75,0.05,-0.02,0.66
1697353088.37,-0.03,0.43,0.85,-1.4,0.1,10.6,0.75,0.05,-0.02,0.66
1697353088.38,-0.09,0.27,1.03,0.7,-0.7,11.2,0.74,0.05,-0.02,0.67
1697353088.39,-0.05,0.27,0.97,1.3,-0.5,12.2,0.74,0.05,-0.02,0.67
1697353088.4,-0.03,0.09,0.95,0.6,-0.6,12.2,0.74,0.05,-0.02,0.67
1697353088.41,-0.17,0.09,1.28,-0.5,-0.5,11.5,0.74,0.05,-0.02,0.67
1697353088.42,-0.1,0.15,1.16,-1.4,-0.2,11.7,0.74,0.05,-0.02,0.67
1697353088.43,-0.08,0.11,1.11,-1.4,-0.2,11.7,0.74,0.05,-0.02,0.67
1697353088.44,-0,0.17,0.8,-2,0.8,11.7,0.74,0.05,-0.02,0.67
1697353088.45,-0.05,0.27,1.16,-2,0.8,11.7,0.74,0.05,-0.02,0.67
1697353088.46,-0.06,0.16,1.01,1,0.3,11.2,0.74,0.05,-0.02,0.67
1697353088.47,-0.06,0.16,1.01,1,0.3,11.2,0.74,0.05,-0.02,0.67
1697353088.48,-0.09,0.02,0.83,2.4,-0.4,11.4,0.74,0.05,-0.02,0.67
1697353088.49,0.02,0.27,1.04,0.7,-0.2,10.8,0.74,0.05,-0.02,0.67
1697353088.5,-0.21,0.39,1.19,-2.3,0.2,10.3,0.74,0.05,-0.02,0.67
1697353088.51,-0.07,0.44,1.02,-2.3,0.2,10.3,0.74,0.05,-0.02,0.67
1697353088.52,0.01,0.37,0.92,-1.8,0.9,10.4,0.74,0.05,-0.02,0.68
1697353088.53,0.01,0.37,0.92,-1.8,0.9,10.4,0.74,0.05,-0.02,0.68
1697353088.54,0.01,0.37,0.92,-1.8,0.9,10.4,0.74,0.05,-0.02,0.68
1697353088.55,0.01,0.37,0.92,-1.8,0.9,10.4,0.74,0.05,-0.02,0.68
1697353088.56,0.01,0.37,0.92,-1.8,0.9,10.4,0.74,0.05,-0.02,0.68
1697353088.57,0.01,0.37,0.92,-1.8,0.9,10.4,0.74,0.05,-0.02,0.68
1697353088.58,0.01,0.37,0.92,-1.8,0.9,10.4,0.74,0.05,-0.02,0.68
1697353088.59,0.01,0.37,0.92,-1.8,0.9,10.4,0.74,0.05,-0.02,0.68
1697353088.6,0.01,0.37,0.92,-1.8,0.9,10.4,0.74,0.05,-0.02,0.68
1697353088.61,0.01,0.37,0.92,-1.8,0.9,10.4,0.74,0.05,-0.02,0.68
1697353088.62,0.01,0.37,0.92,-1.8,0.9,10.4,0.74,0.05,-0.02,0.68
1697353088.63,0.01,0.37,0.92,-1.8,0.9,10.4,0.74,0.05,-0.02,0.68
1697353088.64,0.01,0.37,0.92,-1.8,0.9,10.4,0.74,0.05,-0.02,0.68
1697353088.65,0.01,0.37,0.92,-1.8,0.9,10.4,0.74,0.05,-0.02,0.68
1697353088.66,0.03,0.22,0.77,-1,0.5,14.8,0.72,0.04,-0.02,0.69
1697353088.67,-0.14,0.29,1.1,-2,0,14.5,0.72,0.04,-0.02,0.69
1697353088.68,-0.06,0.32,0.83,-1.5,-0.4,14.1,0.72,0.04,-0.02,0.69
1697353088.69,-0.2,0.34,0.88,-0.6,-0.6,13.6,0.72,0.04,-0.02,0.69
1697353088.7,-0.13,0.21,0.81,-0.6,-0.3,13.1,0.72,0.04,-0.02,0.69
1697353088.71,-0.13,0.21,0.81,-0.6,-0.3,13.1,0.72,0.04,-0.02,0.69
1697353088.72,-0.13,0.21,0.81,-0.6,-0.3,13.1,0.72,0.04,-0.02,0.69
1697353088.73,-0.13,0.21,0.81,-0.6,-0.3,13.1,0.72,0.04,-0.02,0.69
1697353088.74,-0.13,0.21,0.81,-0.6,-0.3,13.1,0.72,0.04,-0.02,0.69
1697353088.75,-0.13,0.21,0.81,-0.6,-0.3,13.1,0.72,0.04,-0.02,0.69
1697353088.76,0.06,0.11,1.22,0,0.6,12.2,0.72,0.04,-0.02,0.7
1697353088.77,-0.21,0.21,1.16,0.4,1.3,12.7,0.71,0.04,-0.02,0.7
1697353088.78,-0.17,0.15,0.96,0.6,1.9,12.9,0.71,0.04,-0.02,0.7
1697353088.79,0.04,0.16,0.84,0.6,1.9,12.9,0.71,0.04,-0.02,0.7
1697353088.8,0.04,0.16,0.84,0.7,2.3,12.6,0.71,0.04,-0.02,0.7
1697353088.81,-0.08,0.2,1.13,-2,1.7,13.1,0.71,0.04,-0.02,0.7
1697353088.82,-0.1,0.28,1,-1.6,0.5,13.1,0.71,0.04,-0.02,0.7
1697353088.83,-0.1,0.33,0.89,0,0,12.7,0.71,0.04,-0.02,0.7
1697353088.84,-0.1,0.44,0.66,1.3,-0.9,12.8,0.71,0.04,-0.02,0.7
1697353088.85,-0.1,0.44,0.66,1.3,-0.9,12.8,0.71,0.04,-0.02,0.7
1697353088.86,0.05,0.23,0.83,1.9,-1.1,12.6,0.71,0.04,-0.02,0.7
1697353088.87,-0.18,0.21,1.01,1.7,-1,12.1,0.71,0.04,-0.02,0.71
1697353088.88,-0.16,0.17,1.09,0.4,-0.5,12,0.71,0.04,-0.02,0.71
1697353088.89,0.04,0.15,1.01,-0.9,-0.2,12.3,0.71,0.04,-0.02,0.71
1697353088.9,-0.04,0.21,0.97,-0.6,0.4,12.3,0.7,0.04,-0.02,0.71
1697353088.91,-0,0.29,0.98,-0.3,0.3,12.3,0.7,0.04,-0.02,0.71
1697353088.92,-0.15,0.28,0.88,-0.7,1.3,13.1,0.7,0.04,-0.02,0.71
1697353088.93,-0.19,0.26,1.13,1,2.4,13.5,0.7,0.04,-0.02,0.71
1697353088.94,0.02,0.11,0.84,2.4,3,13.8,0.7,0.04,-0.02,0.71
1697353088.95,0.03,0.1,0.95,0.9,3.5,13.6,0.7,0.04,-0.02,0.71
1697353088.96,-0.15,0.17,1.04,-0.9,3.2,13.4,0.7,0.04,-0.02,0.71
1697353088.97,-0.04,0.36,1.01,-1.2,3,13.5,0.7,0.04,-0.02,0.71
1697353088.98,-0.12,0.42,0.94,0,2.6,13.7,0.7,0.04,-0.02,0.71
1697353088.99,0.1,0.41,0.94,1.7,1.6,13.8,0.7,0.04,-0.02,0.72
1697353089,-0.12,0.32,1.25,2.2,0.1,14,0.7,0.04,-0.02,0.72
1697353089.01,-0.18,0.29,1.28,1.3,-0.6,14.3,0.7,0.04,-0.02,0.72
1697353089.02,0.07,0.22,0.84,0.1,-0.7,14.3,0.69,0.04,-0.02,0.72
1697353089.03,-0.07,0.25,0.94,-0.6,-0.4,14.2,0.69,0.04,-0.02,0.72
1697353089.04,-0.15,0.31,1.16,-0.2,-0.2,14.1,0.69,0.04,-0.02,0.72
1697353089.05,-0.15,0.29,1.13,0.3,0.3,14.3,0.69,0.04,-0.02,0.72
1697353089.06,-0.05,0.32,0.72,0.7,0.3,14.8,0.69,0.04,-0.02,0.72
1697353089.07,-0.05,0.34,0.84,2.4,0.1,15,0.69,0.04,-0.02,0.72
1697353089.08,-0.14,0.29,1.18,2.3,-0.1,15.4,0.69,0.04,-0.02,0.72
1697353089.09,0.02,0.34,0.71,1.3,-0.4,15.8,0.69,0.04,-0.02,0.72
1697353089.1,0.02,0.34,0.71,1.3,-0.4,15.8,0.69,0.04,-0.02,0.72
1697353089.11,-0.2,0.27,0.93,-0.2,-1.6,16.5,0.69,0.04,-0.02,0.73
1697353089.12,-0.2,0.27,0.93,-0.2,-1.6,16.5,0.69,0.04,-0.02,0.73
1697353089.13,-0.18,0.46,1.13,-0.3,-1.8,16.5,0.68,0.04,-0.02,0.73
1697353089.14,-0.18,0.46,1.13,-0.4,-1.8,16.8,0.68,0.04,-0.02,0.73
1697353089.15,-0.18,0.46,1.13,-0.4,-1.8,16.8,0.68,0.04,-0.02,0.73
1697353089.16,-0.18,0.46,1.13,-0.4,-1.8,16.8,0.68,0.04,-0.02,0.73
1697353089.17,-0.18,0.46,1.13,-0.4,-1.8,16.8,0.68,0.04,-0.02,0.73
1697353089.18,-0.18,0.46,1.13,-0.4,-1.8,16.8,0.68,0.04,-0.02,0.73
1697353089.19,-0.18,0.46,1.13,-0.4,-1.8,16.8,0.68,0.04,-0.02,0.73
1697353089.2,-0.18,0.46,1.13,-0.4,-1.8,16.8,0.68,0.04,-0.02,0.73
1697353089.21,-0.18,0.46,1.13,-0.4,-1.8,16.8,0.68,0.04,-0.02,0.73
1697353089.22,-0.18,0.46,1.13,-0.4,-1.8,16.8,0.68,0.04,-0.02,0.73
1697353089.23,-0.18,0.46,1.13,-0.4,-1.8,16.8,0.68,0.04,-0.02,0.73
1697353089.24,-0.18,0.46,1.13,-0.4,-1.8,16.8,0.68,0.04,-0.02,0.73
1697353089.25,-0.18,0.46,1.13,-0.4,-1.8,16.8,0.68,0.04,-0.02,0.73
1697353089.26,-0.18,0.46,1.13,-0.4,-1.8,16.8,0.68,0.04,-0.02,0.73
1697353089.27,-0.18,0.46,1.13,-0.4,-1.8,16.8,0.68,0.04,-0.02,0.73
1697353089.28,-0.1,0.34,0.99,-0.9,1.3,17,0.67,0.04,-0.02,0.74
1697353089.29,0,0.42,0.8,-0.4,1.5,16.6,0.66,0.04,-0.02,0.75
1697353089.3,0.06,0.28,0.85,-0.1,1,15.8,0.66,0.04,-0.02,0.75
1697353089.31,-0.08,0.22,1.03,-0.8,0.1,15.3,0.66,0.04,-0.02,0.75
1697353089.32,-0.14,0.22,1.04,-2,-0.8,15.1,0.66,0.04,-0.02,0.75
1697353089.33,0.07,0.23,0.76,-1.9,-1.3,14.7,0.66,0.04,-0.02,0.75
1697353089.34,-0.04,0.24,0.98,-1.5,-1.8,14.6,0.66,0.04,-0.02,0.75
1697353089.35,-0.19,0.16,1.34,-0.6,-2.3,14.4,0.66,0.04,-0.02,0.75
1697353089.36,0.04,0.19,0.8,-0.5,-1.8,14.4,0.66,0.04,-0.02,0.75
1697353089.37,-0.2,0.08,1.06,-0.9,-1,14.3,0.66,0.04,-0.02,0.75
1697353089.38,-0.15,0.21,1,-1.7,0.1,14.2,0.66,0.04,-0.02,0.75
1697353089.39,-0.21,0.32,1.07,0.1,1.8,13.6,0.65,0.04,-0.02,0.75
1697353089.4,-0.06,0.19,0.94,0.7,2.6,13.6,0.65,0.04,-0.02,0.75
1697353089.41,-0.11,0.19,0.96,0.6,2.2,13.5,0.65,0.04,-0.02,0.76
1697353089.42,-0.12,0.23,1.36,0.1,1.4,13.5,0.65,0.04,-0.02,0.76
1697353089.43,0.09,0.23,0.83,-0.9,0.8,13.5,0.65,0.04,-0.02,0.76
1697353089.44,-0.22,0.29,1.28,-0.2,0,13.7,0.65,0.04,-0.02,0.76
1697353089.45,-0.22,0.29,1.28,-0.2,0,13.7,0.65,0.04,-0.02,0.76
1697353089.46,0.02,0.26,0.72,0,-0.7,14.7,0.65,0.04,-0.02,0.76
1697353089.47,-0.09,0.37,0.96,-0.9,-1.3,15.3,0.65,0.04,-0.02,0.76
1697353089.48,-0.09,0.37,0.96,-0.9,-1.3,15.3,0.65,0.04,-0.02,0.76
1697353089.49,-0.18,0.49,1.52,-0.6,-1,16.2,0.65,0.04,-0.02,0.76
1697353089.5,-0.18,0.49,1.52,1.3,-0.5,17.5,0.64,0.04,-0.02,0.76
1697353089.51,-0,0.47,0.74,3,-0.5,18.8,0.64,0.04,-0.02,0.76
1697353089.52,-0.18,0.39,1.37,2.4,-0.3,20,0.64,0.04,-0.02,0.76
1697353089.53,-0,0.33,0.82,1,0,21,0.64,0.04,-0.02,0.77
1697353089.54,-0.01,0.53,0.97,-0.1,0.1,22.4,0.64,0.04,-0.02,0.77
1697353089.55,-0.19,0.54,1.17,0.4,0,23.6,0.64,0.04,-0.02,0.77
1697353089.56,-0.08,0.64,1,1.2,-0.2,24.9,0.64,0.04,-0.02,0.77
1697353089.57,0.04,0.59,0.96,2,-0.4,25.9,0.63,0.04,-0.02,0.77
1697353089.58,0.08,0.53,0.56,2,-0.5,26.2,0.63,0.04,-0.02,0.77
1697353089.59,-0.17,0.54,1.19,1.2,0,27,0.63,0.04,-0.02,0.77
1697353089.6,-0.15,0.53,1.17,0.3,0.2,26.8,0.63,0.04,-0.02,0.78
1697353089.61,0.09,0.51,0.51,-0.7,0,26.8,0.63,0.04,-0.02,0.78
1697353089.62,0.04,0.54,1.12,-1,0,26.7,0.62,0.04,-0.02,0.78
1697353089.63,-0.12,0.64,1.13,-1.4,-0.4,26.4,0.62,0.04,-0.02,0.78
1697353089.64,-0.1,0.65,1.04,-2.2,-1.3,26.4,0.62,0.04,-0.02,0.78
1697353089.65,-0.29,0.7,1.32,-1.5,-2,26.4,0.62,0.04,-0.02,0.78
1697353089.66,-0.09,0.56,0.96,2.1,-2.2,26.9,0.62,0.04,-0.02,0.79
1697353089.67,-0.09,0.56,0.96,2.1,-2.2,26.9,0.62,0.04,-0.02,0.79
1697353089.68,-0.09,0.56,0.96,2.1,-2.2,26.9,0.62,0.04,-0.02,0.79
1697353089.69,-0.09,0.56,0.96,2.1,-2.2,26.9,0.62,0.04,-0.02,0.79
1697353089.7,-0.09,0.56,0.96,2.1,-2.2,26.9,0.62,0.04,-0.02,0.79
1697353089.71,-0.09,0.56,0.96,2.1,-2.2,26.9,0.62,0.04,-0.02,0.79
1697353089.72,-0.09,0.56,0.96,2.1,-2.2,26.9,0.62,0.04,-0.02,0.79
1697353089.73,-0.09,0.56,0.96,2.1,-2.2,26.9,0.62,0.04,-0.02,0.79
1697353089.74,-0.09,0.56,0.96,2.1,-2.2,26.9,0.62,0.04,-0.02,0.79
1697353089.75,-0.09,0.56,0.96,2.1,-2.2,26.9,0.62,0.04,-0.02,0.79
1697353089.76,-0.09,0.56,0.96,2.1,-2.2,26.9,0.62,0.04,-0.02,0.79
1697353089.77,-0.09,0.56,0.96,2.1,-2.2,26.9,0.62,0.04,-0.02,0.79
1697353089.78,-0.09,0.56,0.96,2.1,-2.2,26.9,0.62,0.04,-0.02,0.79
1697353089.79,-0.09,0.56,0.96,2.1,-2.2,26.9,0.62,0.04,-0.02,0.79
1697353089.8,-0.09,0.56,0.96,2.1,-2.2,26.9,0.59,0.04,-0.03,0.8
1697353089.81,-0.15,0.57,1.32,0.8,-0.3,27.5,0.59,0.04,-0.03,0.81
1697353089.82,-0.23,0.5,1.49,1.4,-1.1,27.7,0.59,0.04,-0.03,0.81
1697353089.83,0.17,0.44,0.9,1.4,-1.1,27.7,0.59,0.04,-0.03,0.81
1697353089.84,-0.07,0.41,1.12,0.6,-1.4,27.7,0.58,0.04,-0.03,0.81
1697353089.85,0.06,0.46,0.94,0,-1.6,27.4,0.58,0.04,-0.03,0.81
1697353089.86,0.2,0.43,0.8,-0.5,-2.1,27,0.58,0.04,-0.03,0.81
1697353089.87,0.25,0.32,0.87,-0.4,-2.1,26.4,0.58,0.04,-0.03,0.81
1697353089.88,0.16,0.26,1.05,0.8,-1.6,25.5,0.58,0.04,-0.03,0.82
1697353089.89,0.09,0.36,0.86,1.1,-1.3,23.9,0.58,0.04,-0.03,0.82
1697353089.9,-0.09,0.41,1.07,1.1,-1.3,23.9,0.58,0.04,-0.03,0.82
1697353089.91,-0.04,0.33,0.81,-1.7,-2.7,22.5,0.57,0.04,-0.03,0.82
1697353089.92,-0.04,0.33,0.81,-2.1,-3,22.6,0.57,0.04,-0.03,0.82
1697353089.93,-0.03,0.39,1.23,-3.4,-2.3,22.8,0.57,0.04,-0.03,0.82
1697353089.94,0.01,0.38,0.35,-3.6,-2.2,22.8,0.57,0.04,-0.03,0.82
1697353089.95,0.02,0.13,0.8,-2.6,-1.7,23,0.56,0.04,-0.03,0.82
1697353089.96,-0.09,0.13,1.4,0.1,-0.1,21.9,0.56,0.04,-0.03,0.82
1697353089.97,0.21,0.01,0.98,1,0.3,20.3,0.56,0.04,-0.03,0.83
1697353089.98,0.2,0.11,1.08,-0.3,0,18.8,0.56,0.04,-0.03,0.83
1697353089.99,0.18,0.27,0.92,-2.2,-0.3,17,0.56,0.04,-0.03,0.83
1697353090,0.07,0.31,1.06,-2.2,-0.9,15.6,0.56,0.04,-0.03,0.83
1697353090.01,0.15,0.26,0.73,-0.6,-1.2,14.7,0.56,0.04,-0.03,0.83
1697353090.02,-0.1,0.13,1.1,2,-1.3,14,0.56,0.04,-0.03,0.83
1697353090.03,-0.14,-0.17,1.44,3.8,-1.4,14.5,0.56,0.04,-0.03,0.83
1697353090.04,-0.18,-0.24,0.85,3.6,-0.5,14.5,0.55,0.04,-0.03,0.83
1697353090.05,-0.18,-0.24,0.85,-2.7,0.8,13.8,0.55,0.04,-0.03,0.83
1697353090.06,-0.12,0.08,1.2,-6.7,2,12.3,0.55,0.04,-0.03,0.83
1697353090.07,0.3,0.02,0.64,-6,2.6,10.9,0.55,0.04,-0.03,0.83
1697353090.08,-0.04,0,1.31,-3.3,2,9.2,0.55,0.04,-0.03,0.83
1697353090.09,0.07,-0.1,0.98,-1,1.9,7.2,0.55,0.04,-0.03,0.83
1697353090.1,0.07,-0.1,0.98,1.2,0.8,5.4,0.55,0.04,-0.03,0.83
1697353090.11,0.12,-0.16,0.79,1.2,0.8,5.4,0.55,0.04,-0.03,0.83
1697353090.12,0.18,-0.22,0.75,0.6,-2.2,1.2,0.55,0.04,-0.03,0.83
1697353090.13,0.18,-0.22,0.75,-2,-2.7,-0.5,0.55,0.04,-0.03,0.83
1697353090.14,-0.06,-0.09,1.07,-2,-2.7,-0.5,0.55,0.04,-0.03,0.83
1697353090.15,-0.06,-0.17,1.26,-3.5,-2.7,-1.9,0.55,0.04,-0.03,0.83
1697353090.16,-0.01,-0.15,0.61,-3.5,-2.4,-3.1,0.55,0.04,-0.03,0.83
1697353090.17,-0.2,-0.23,1.59,-2.4,-1.9,-4.1,0.55,0.04,-0.03,0.83
1697353090.18,0.17,-0.28,0.58,-0.7,-1.1,-5.3,0.55,0.04,-0.03,0.83
1697353090.19,-0,-0.32,1.11,0.6,0,-6.6,0.55,0.04,-0.03,0.83
1697353090.2,-0,-0.32,1.11,0.6,0,-6.6,0.55,0.04,-0.03,0.83
1697353090.21,-0,-0.32,1.11,0.6,0,-6.6,0.55,0.04,-0.03,0.83
1697353090.22,-0,-0.32,1.11,0.6,0,-6.6,0.55,0.04,-0.03,0.83
1697353090.23,-0,-0.32,1.11,0.6,0,-6.6,0.55,0.04,-0.03,0.83
1697353090.24,-0,-0.32,1.11,0.6,0,-6.6,0.55,0.04,-0.03,0.83
1697353090.25,-0,-0.32,1.11,0.6,0,-6.6,0.55,0.04,-0.03,0.83
1697353090.26,-0,-0.32,1.11,0.6,0,-6.6,0.55,0.04,-0.03,0.83
1697353090.27,-0,-0.32,1.11,0.6,0,-6.6,0.55,0.04,-0.03,0.83
1697353090.28,-0,-0.32,1.11,0.6,0,-6.6,0.55,0.04,-0.03,0.83
1697353090.29,-0,-0.32,1.11,0.6,0,-6.6,0.55,0.04,-0.03,0.83
1697353090.3,-0,-0.32,1.11,0.6,0,-6.6,0.55,0.04,-0.03,0.83
1697353090.31,-0,-0.32,1.11,0.6,0,-6.6,0.55,0.04,-0.03,0.83
1697353090.32,-0,-0.32,1.11,0.6,0,-6.6,0.55,0.04,-0.03,0.83
1697353090.33,-0.12,-0.69,1.22,-1.9,-1.2,-19.9,0.57,0.04,-0.03,0.82
1697353090.34,-0.08,-0.68,0.81,-1.8,-0.8,-22.3,0.57,0.04,-0.03,0.82
1697353090.35,0.01,-0.6,0.55,-2.4,-0.1,-25,0.57,0.04,-0.03,0.82
1697353090.36,-0.24,-0.79,1.57,-4,0,-26.9,0.57,0.04,-0.03,0.82
1697353090.37,0.06,-0.84,0.64,-4.3,0.6,-28.6,0.57,0.04,-0.03,0.82
1697353090.38,-0.14,-0.86,1.26,-4.7,0.2,-30.9,0.57,0.04,-0.03,0.82
1697353090.39,-0.2,-0.84,1,-5.5,0.4,-33.5,0.58,0.04,-0.03,0.81
1697353090.4,-0.2,-0.84,1,-5.5,0.4,-33.5,0.58,0.04,-0.03,0.81
1697353090.41,-0.3,-0.76,1.47,-7.8,0.5,-37.4,0.58,0.04,-0.03,0.81
1697353090.42,-0.3,-0.76,1.47,-7.8,0.5,-37.4,0.58,0.04,-0.03,0.81
1697353090.43,-0.1,-0.65,1,-4,0.3,-39.2,0.59,0.04,-0.03,0.81
1697353090.44,0.16,-0.86,0.35,-4,0.3,-39.2,0.59,0.04,-0.03,0.81
1697353090.45,-0.3,-0.92,1.28,0,0.4,-39.4,0.59,0.04,-0.03,0.8
1697353090.46,-0.28,-0.96,1.31,0.4,0.4,-39.8,0.6,0.04,-0.03,0.8
1697353090.47,-0.06,-0.94,0.77,-0.6,0.3,-40.2,0.6,0.04,-0.03,0.8
1697353090.48,0.01,-0.78,0.77,-2.6,0.5,-41,0.6,0.04,-0.03,0.8
1697353090.49,0.01,-0.78,0.77,-3.5,1,-41.4,0.6,0.04,-0.03,0.8
1697353090.5,-0.24,-0.72,1.32,-2.7,1.3,-41.2,0.61,0.04,-0.03,0.79
1697353090.51,-0.09,-0.81,1.02,-0.5,1.1,-41.2,0.61,0.04,-0.03,0.79
1697353090.52,0.14,-0.73,0.8,1.6,0.8,-41.6,0.61,0.04,-0.03,0.79
1697353090.53,0.24,-0.81,0.65,2,0.9,-41.2,0.62,0.04,-0.03,0.79
1697353090.54,0.03,-0.89,1,1.8,0.8,-40.9,0.62,0.04,-0.03,0.78
1697353090.55,0.01,-0.81,0.95,0.1,0.8,-40.8,0.62,0.04,-0.03,0.78
1697353090.56,0.11,-0.79,0.71,-1.9,1.2,-40.6,0.62,0.04,-0.03,0.78
1697353090.57,-0.01,-0.59,0.81,-2.8,2.1,-40.9,0.62,0.04,-0.03,0.78
1697353090.58,-0.13,-0.76,1.22,-2.7,2.2,-41,0.63,0.04,-0.03,0.77
1697353090.59,-0.13,-0.62,0.8,-1.4,2.8,-41.3,0.63,0.04,-0.03,0.77
1697353090.6,-0.25,-0.78,0.86,-0.2,3.1,-42.3,0.64,0.04,-0.03,0.77
1697353090.61,0.06,-0.93,1.13,-1.3,2.2,-43.1,0.64,0.04,-0.03,0.77
1697353090.62,0.02,-0.6,0.91,-1.4,1.6,-43.7,0.64,0.04,-0.03,0.77
1697353090.63,-0.2,-0.76,1.09,0,0,-43.6,0.64,0.04,-0.03,0.77
1697353090.64,0.06,-0.76,0.92,0.5,-1.2,-44,0.65,0.04,-0.03,0.76
1697353090.65,0.13,-0.72,0.95,0.4,-1.4,-43.7,0.65,0.04,-0.03,0.76
1697353090.66,0,-0.79,1.15,-0.7,-1.4,-41.6,0.65,0.04,-0.03,0.76
1697353090.67,0.01,-0.78,1.14,-1.5,-1,-41.1,0.66,0.04,-0.03,0.75
1697353090.68,0.06,-0.79,0.87,-2.5,-0.2,-40.8,0.66,0.04,-0.03,0.75
1697353090.69,0.04,-0.82,0.9,-2.8,0.9,-41,0.66,0.04,-0.03,0.75
1697353090.7,-0.23,-0.87,0.89,-3,2.4,-41.7,0.66,0.04,-0.03,0.75
1697353090.71,-0.23,-0.87,0.89,-3,2.4,-41.7,0.66,0.04,-0.03,0.75
1697353090.72,-0.23,-0.87,0.89,-3,2.4,-41.7,0.66,0.04,-0.03,0.75
1697353090.73,-0.23,-0.87,0.89,-3,2.4,-41.7,0.66,0.04,-0.03,0.75
1697353090.74,-0.23,-0.87,0.89,-3,2.4,-41.7,0.66,0.04,-0.03,0.75
1697353090.75,-0.23,-0.87,0.89,-3,2.4,-41.7,0.66,0.04,-0.03,0.75
1697353090.76,-0.23,-0.87,0.89,-3,2.4,-41.7,0.66,0.04,-0.03,0.75
1697353090.77,-0.23,-0.87,0.89,-3,2.4,-41.7,0.66,0.04,-0.03,0.75
1697353090.78,-0.23,-0.87,0.89,-3,2.4,-41.7,0.66,0.04,-0.03,0.75
1697353090.79,-0.23,-0.87,0.89,-3,2.4,-41.7,0.66,0.04,-0.03,0.75
1697353090.8,-0.23,-0.87,0.89,-3,2.4,-41.7,0.66,0.04,-0.03,0.75
1697353090.81,-0.23,-0.87,0.89,-3,2.4,-41.7,0.66,0.04,-0.03,0.75
1697353090.82,-0.23,-0.87,0.89,-3,2.4,-41.7,0.66,0.04,-0.03,0.75
1697353090.83,-0.23,-0.87,0.89,-3,2.4,-41.7,0.66,0.04,-0.03,0.75
1697353090.84,-0.23,-0.87,0.89,-3,2.4,-41.7,0.66,0.04,-0.03,0.75
1697353090.85,-0.23,-0.87,0.89,-3,2.4,-41.7,0.66,0.04,-0.03,0.75
1697353090.86,-0.23,-0.87,0.89,-3,2.4,-41.7,0.66,0.04,-0.03,0.75
1697353090.87,-0.23,-0.87,0.89,-3,2.4,-41.7,0.66,0.04,-0.03,0.75
1697353090.88,-0.1,-0.77,0.89,1.6,1.5,-50.6,0.72,0.04,-0.03,0.69
1697353090.89,-0.03,-1.04,1.12,3.7,1.5,-50.1,0.72,0.04,-0.03,0.69
1697353090.9,0.13,-1.1,0.78,3.3,1.6,-50.3,0.72,0.04,-0.03,0.69
1697353090.91,-0.17,-0.95,1.1,0.5,1.5,-50.8,0.73,0.04,-0.03,0.68
1697353090.92,-0,-0.83,0.86,-2.4,1.8,-50.5,0.73,0.04,-0.03,0.68
1697353090.93,0.05,-0.76,0.87,-2.1,2.5,-50.2,0.73,0.04,-0.03,0.68
1697353090.94,-0.18,-0.76,1.05,1.9,2.9,-50.5,0.74,0.04,-0.03,0.68
1697353090.95,-0.2,-1.06,1.49,1.9,2.9,-50.5,0.74,0.04,-0.03,0.68
1697353090.96,-0.05,-1.11,1.15,3.2,1.9,-51.7,0.74,0.04,-0.03,0.67
1697353090.97,-0.12,-0.9,1.01,-0.3,1.7,-52.5,0.74,0.04,-0.03,0.67
1697353090.98,-0.11,-0.8,1.02,-1.9,1.4,-52.2,0.75,0.04,-0.02,0.67
1697353090.99,0.11,-0.77,0.7,-1.2,1.5,-52,0.75,0.04,-0.02,0.66
1697353091,-0.14,-0.8,1.18,0.5,2,-51.3,0.75,0.04,-0.02,0.66
1697353091.01,-0.06,-0.95,1.08,1.5,2.4,-50.4,0.76,0.04,-0.02,0.65
1697353091.02,0.33,-1.02,0.53,0.3,2.5,-49.8,0.76,0.04,-0.02,0.65
1697353091.03,-0.3,-0.82,1.43,-2.7,2.8,-49.1,0.76,0.04,-0.02,0.65
1697353091.04,0.03,-0.76,0.84,-2.4,2.9,-48.9,0.76,0.04,-0.02,0.64
1697353091.05,0.11,-0.66,0.76,0,3,-48.3,0.77,0.04,-0.02,0.64
1697353091.06,-0.13,-0.71,1.07,2.7,3.1,-46.9,0.77,0.04,-0.02,0.64
1697353091.07,0.04,-0.74,1.05,4.1,2.7,-46,0.77,0.04,-0.02,0.63
1697353091.08,0.09,-0.84,0.7,4.9,2.7,-45.3,0.77,0.04,-0.02,0.63
1697353091.09,-0.12,-0.74,1.15,5.1,2.7,-44.7,0.78,0.04,-0.02,0.63
1697353091.1,0.06,-0.91,0.95,5.5,2.3,-43.8,0.78,0.04,-0.02,0.62
1697353091.11,0.07,-0.9,0.67,3.5,1.7,-43,0.78,0.04,-0.02,0.62
1697353091.12,-0.15,-0.48,1.03,0.2,1.1,-42.7,0.78,0.04,-0.02,0.62
1697353091.13,0.29,-0.61,0.62,0,1.1,-41.7,0.79,0.04,-0.02,0.62
1697353091.14,0.17,-0.59,0.69,1.8,1.2,-40.4,0.79,0.04,-0.02,0.61
1697353091.15,0.05,-0.5,0.61,3.2,1.1,-39.4,0.79,0.04,-0.02,0.61
1697353091.16,0.05,-0.5,0.61,3.2,1.1,-39.4,0.79,0.04,-0.02,0.61
1697353091.17,0.11,-0.79,0.89,1.7,0.6,-37.9,0.8,0.04,-0.02,0.6
1697353091.18,-0.04,-0.61,0.91,-0.7,0.5,-37.8,0.8,0.04,-0.02,0.6
1697353091.19,-0.07,-0.45,1.36,-3,0.5,-37.5,0.8,0.04,-0.02,0.6
1697353091.2,-0.07,-0.45,1.36,-3,0.5,-37.5,0.8,0.04,-0.02,0.6
1697353091.21,0.23,-0.35,0.52,2.9,0.3,-35.6,0.8,0.04,-0.02,0.59
1697353091.22,0.23,-0.35,0.52,2.9,0.3,-35.6,0.8,0.04,-0.02,0.59
1697353091.23,-0.1,-0.6,1.08,7,1.8,-33,0.81,0.04,-0.02,0.59
1697353091.24,0.14,-0.54,0.91,7,1.8,-33,0.81,0.04,-0.02,0.59
1697353091.25,0.17,-0.53,0.77,4.6,2.2,-31.8,0.81,0.04,-0.01,0.58
1697353091.26,0.17,-0.53,0.77,2.4,2.6,-30.2,0.81,0.04,-0.01,0.58
1697353091.27,-0,-0.41,1.17,2.4,2.6,-30.2,0.81,0.04,-0.01,0.58
1697353091.28,-0,-0.41,1.17,2.4,2.6,-30.2,0.81,0.04,-0.01,0.58
1697353091.29,-0,-0.41,1.17,2.4,2.6,-30.2,0.81,0.04,-0.01,0.58
1697353091.3,-0,-0.41,1.17,2.4,2.6,-30.2,0.81,0.04,-0.01,0.58
1697353091.31,-0,-0.41,1.17,2.4,2.6,-30.2,0.81,0.04,-0.01,0.58
1697353091.32,-0,-0.41,1.17,2.4,2.6,-30.2,0.81,0.04,-0.01,0.58
1697353091.33,-0,-0.41,1.17,2.4,2.6,-30.2,0.81,0.04,-0.01,0.58
1697353091.34,-0,-0.41,1.17,2.4,2.6,-30.2,0.81,0.04,-0.01,0.58
1697353091.35,-0,-0.41,1.17,2.4,2.6,-30.2,0.81,0.04,-0.01,0.58
1697353091.36,-0,-0.41,1.17,2.4,2.6,-30.2,0.81,0.04,-0.01,0.58
1697353091.37,-0,-0.41,1.17,2.4,2.6,-30.2,0.81,0.04,-0.01,0.58
1697353091.38,-0,-0.41,1.17,2.4,2.6,-30.2,0.81,0.04,-0.01,0.58
1697353091.39,-0,-0.41,1.17,2.4,2.6,-30.2,0.81,0.04,-0.01,0.58
1697353091.4,-0,-0.41,1.17,2.4,2.6,-30.2,0.81,0.04,-0.01,0.58
1697353091.41,-0,-0.41,1.17,2.4,2.6,-30.2,0.81,0.04,-0.01,0.58
1697353091.42,-0,-0.41,1.17,2.4,2.6,-30.2,0.81,0.04,-0.01,0.58
1697353091.43,-0,-0.41,1.17,2.4,2.6,-30.2,0.81,0.04,-0.01,0.58
1697353091.44,-0,-0.41,1.17,2.4,2.6,-30.2,0.81,0.04,-0.01,0.58
1697353091.45,-0,-0.41,1.17,2.4,2.6,-30.2,0.81,0.04,-0.01,0.58
1697353091.46,-0.04,0.82,1.08,7.1,0.5,17.2,0.82,0.05,-0.01,0.57
1697353091.47,-0.04,0.82,1.08,7.1,0.5,17.2,0.82,0.05,-0.01,0.57
1697353091.48,0.11,0.82,0.71,7.5,0.4,20.4,0.82,0.05,-0.01,0.57
1697353091.49,0.11,0.82,0.71,5.6,0.2,23.7,0.82,0.05,-0.01,0.58
1697353091.5,0.16,0.86,1.06,3.4,0.2,27.8,0.82,0.05,-0.01,0.58
1697353091.51,0.08,1,0.65,3.4,-0.1,31.6,0.81,0.05,-0.01,0.58
1697353091.52,-0.19,0.95,1.29,4.4,-0.3,35.2,0.81,0.05,-0.01,0.58
1697353091.53,0.09,0.89,1.01,6.3,-0.6,38.1,0.81,0.05,-0.01,0.59
1697353091.54,0.09,0.89,1.01,6.3,-0.6,38.1,0.81,0.05,-0.01,0.59
1697353091.55,-0.01,0.79,1.16,3.3,-1,41,0.81,0.05,-0.01,0.59
1697353091.56,-0.12,0.79,1.09,1.8,-1.3,41.9,0.8,0.05,-0.01,0.59
1697353091.57,0.02,0.69,1.16,1.3,-1.6,42.1,0.8,0.05,-0.01,0.59
1697353091.58,0.07,0.75,0.72,-0.7,-2.3,41.9,0.8,0.05,-0.01,0.6
1697353091.59,0.08,1.03,0.83,-4.4,-2.6,41.4,0.8,0.05,-0.01,0.6
1697353091.6,-0.1,1.14,0.9,-4.4,-2.6,41.4,0.8,0.05,-0.01,0.6
1697353091.61,-0.11,1.03,1.18,0.1,-1.8,42.1,0.79,0.05,-0.01,0.61
1697353091.62,0.1,0.98,0.5,3.3,-1,42.6,0.79,0.05,-0.01,0.61
1697353091.63,-0.08,0.86,1.09,4.4,0.1,43.4,0.79,0.05,-0.01,0.61
1697353091.64,-0.16,0.86,1.02,2.5,1.2,44.2,0.79,0.05,-0.01,0.62
1697353091.65,0.09,0.89,0.64,0,1.4,45.1,0.78,0.05,-0.01,0.62
1697353091.66,0.02,0.99,0.85,-0.9,1.8,46.3,0.78,0.05,-0.01,0.62
1697353091.67,0.1,0.92,0.98,-0.2,2,47.2,0.78,0.05,-0.01,0.63
1697353091.68,-0.09,1.03,1.23,1,2.3,48.3,0.78,0.05,-0.01,0.63
1697353091.69,0.06,0.83,0.87,2.2,2.1,48.8,0.77,0.05,-0.01,0.63
1697353091.7,0.03,0.83,0.94,2.6,1.6,49.2,0.77,0.05,-0.01,0.63
1697353091.71,-0.26,0.87,1.45,1.6,1.7,49.6,0.77,0.05,-0.01,0.64
1697353091.72,0.08,0.85,0.56,1.1,1.8,49.5,0.76,0.05,-0.01,0.64
1697353091.73,-0.2,0.74,1.48,-1,1.9,49.2,0.76,0.05,-0.01,0.65
1697353091.74,0.08,0.85,0.67,-2.7,1.7,49,0.76,0.05,-0.01,0.65
1697353091.75,0.02,0.98,0.87,-2.7,1.7,49,0.76,0.05,-0.01,0.65
1697353091.76,-0.14,1.11,1.01,0.6,1.6,48.8,0.75,0.05,-0.01,0.66
1697353091.77,-0.11,1.11,1.17,0.6,1.6,48.8,0.75,0.05,-0.01,0.66
1697353091.78,0.19,0.76,0.58,5.1,-0.3,48.5,0.75,0.05,-0.01,0.66
1697353091.79,0.19,0.76,0.58,5.1,-0.3,48.5,0.74,0.05,-0.01,0.67
1697353091.8,-0.24,0.7,1.12,1.5,-0.4,48.4,0.74,0.05,-0.01,0.67
1697353091.81,-0.09,0.66,1.22,-2.1,-0.5,48.4,0.74,0.05,-0.01,0.67
1697353091.82,-0.15,1.05,0.98,-2.5,-0.2,48.4,0.74,0.05,-0.01,0.68
1697353091.83,0.05,0.94,1.11,-0.1,0.2,48.4,0.73,0.05,-0.02,0.68
1697353091.84,-0.08,0.98,0.98,0.1,0.7,49.2,0.73,0.05,-0.02,0.68
1697353091.85,-0.19,0.89,1.36,0,0.8,49.6,0.73,0.05,-0.02,0.68
1697353091.86,-0.19,0.89,1.36,0,0.8,49.6,0.73,0.05,-0.02,0.68
1697353091.87,-0.19,0.89,1.36,0,0.8,49.6,0.73,0.05,-0.02,0.68
1697353091.88,-0.19,0.89,1.36,0,0.8,49.6,0.73,0.05,-0.02,0.68
1697353091.89,-0.19,0.89,1.36,0,0.8,49.6,0.73,0.05,-0.02,0.68
1697353091.9,-0.19,0.89,1.36,0,0.8,49.6,0.73,0.05,-0.02,0.68
1697353091.91,-0.19,0.89,1.36,0,0.8,49.6,0.73,0.05,-0.02,0.68
1697353091.92,-0.19,0.89,1.36,0,0.8,49.6,0.73,0.05,-0.02,0.68
1697353091.93,-0.19,0.89,1.36,0,0.8,49.6,0.73,0.05,-0.02,0.68
1697353091.94,-0.19,0.89,1.36,0,0.8,49.6,0.73,0.05,-0.02,0.68
1697353091.95,-0.19,0.89,1.36,0,0.8,49.6,0.73,0.05,-0.02,0.68
1697353091.96,-0.19,0.89,1.36,0,0.8,49.6,0.73,0.05,-0.02,0.68
1697353091.97,-0.19,0.89,1.36,0,0.8,49.6,0.73,0.05,-0.02,0.68
1697353091.98,-0.19,0.89,1.36,0,0.8,49.6,0.73,0.05,-0.02,0.68
1697353091.99,-0.19,0.89,1.36,0,0.8,49.6,0.73,0.05,-0.02,0.68
1697353092,-0.19,0.89,1.36,0,0.8,49.6,0.73,0.05,-0.02,0.68
1697353092.01,-0.19,0.89,1.36,0,0.8,49.6,0.73,0.05,-0.02,0.68
1697353092.02,-0.19,0.89,1.36,0,0.8,49.6,0.73,0.05,-0.02,0.68
1697353092.03,-0.19,0.89,1.36,0,0.8,49.6,0.73,0.05,-0.02,0.68
1697353092.04,-0.09,1.05,0.54,-4.2,1.6,51.3,0.67,0.05,-0.02,0.74
1697353092.05,-0.11,1.1,1.13,-1,1.2,51.5,0.66,0.05,-0.02,0.75
1697353092.06,-0.12,0.98,0.53,-1,1.2,51.5,0.66,0.05,-0.02,0.75
1697353092.07,-0.27,0.73,1.5,2.8,0.4,51.6,0.66,0.05,-0.02,0.75
1697353092.08,-0.27,0.73,1.5,5,0.2,51.5,0.65,0.05,-0.02,0.76
1697353092.09,-0.43,0.7,1.1,-1.3,0,50.9,0.65,0.05,-0.02,0.76
1697353092.1,-0.43,0.7,1.1,-1.3,0,50.9,0.65,0.05,-0.02,0.76
1697353092.11,-0.47,0.93,0.67,-3.8,0,49.7,0.64,0.05,-0.02,0.76
1697353092.12,-0.45,1.11,1.11,-4.9,1,49.2,0.64,0.05,-0.02,0.77
1697353092.13,-0.23,0.95,0.79,-1.1,1.6,48.6,0.64,0.05,-0.02,0.77
1697353092.14,-0.23,0.95,0.79,3.1,2.1,48.9,0.63,0.05,-0.02,0.77
1697353092.15,-0.16,0.76,1.29,4,1.7,49.1,0.63,0.05,-0.02,0.77
1697353092.16,-0.12,0.67,1.05,1.2,1.7,49.5,0.63,0.05,-0.02,0.78
1697353092.17,0.11,0.7,0.71,-2.3,1.3,49.5,0.62,0.04,-0.02,0.78
1697353092.18,-0.12,0.86,0.87,-5.2,1.3,49.7,0.62,0.04,-0.02,0.78
1697353092.19,-0.14,1.01,1.11,-5.9,0.9,50.1,0.62,0.04,-0.02,0.79
1697353092.2,-0.13,1.11,0.93,-2.8,0.8,50.4,0.61,0.04,-0.02,0.79
1697353092.21,-0.18,0.96,1.45,1.4,0.5,50.7,0.61,0.04,-0.02,0.79
1697353092.22,-0.18,0.96,1.45,1.4,0.5,50.7,0.61,0.04,-0.02,0.79
1697353092.23,-0.21,0.54,1.12,5.8,-0.1,50.5,0.6,0.04,-0.02,0.8
1697353092.24,-0.19,0.33,1.03,1.7,-0.3,49.6,0.6,0.04,-0.02,0.8
1697353092.25,-0.06,0.62,0.41,-3.7,0.4,47.8,0.6,0.04,-0.02,0.8
1697353092.26,-0.03,0.73,0.54,-7.9,2,46,0.59,0.04,-0.02,0.8
1697353092.27,-0.19,0.67,1.48,-6.7,3.4,44.1,0.59,0.04,-0.02,0.81
1697353092.28,0.12,0.58,0.48,-3.4,3.7,41.7,0.59,0.04,-0.02,0.81
1697353092.29,-0.21,0.31,1.61,-0.9,4.1,39.1,0.58,0.04,-0.02,0.81
1697353092.3,0.05,0.07,1.01,0.7,3.2,35.9,0.58,0.04,-0.02,0.81
1697353092.31,-0.13,0.1,0.98,-0.9,2.7,32.6,0.58,0.04,-0.02,0.81
1697353092.32,-0.25,0.08,1.79,-0.9,2.7,32.6,0.58,0.04,-0.02,0.81
1697353092.33,-0.09,0.09,0.76,-7.2,1.1,24.1,0.57,0.04,-0.02,0.82
1697353092.34,-0.17,0.09,0.89,-7.6,1.5,21,0.57,0.04,-0.02,0.82
1697353092.35,-0.14,-0.07,0.75,-5.4,1.5,17.3,0.57,0.04,-0.02,0.82
1697353092.36,-0.2,-0.35,1.07,-3.4,1,13.2,0.57,0.04,-0.02,0.82
1697353092.37,-0.08,-0.54,1,-3.1,0.9,8.4,0.57,0.04,-0.02,0.82
1697353092.38,-0.07,-0.5,0.86,-4.9,0.9,3.6,0.57,0.04,-0.03,0.82
1697353092.39,-0.11,-0.55,1.17,-8.2,0.4,-0.2,0.57,0.04,-0.03,0.82
1697353092.4,0.11,-0.39,0.73,-9.3,-0.4,-3.9,0.57,0.04,-0.03,0.82
1697353092.41,-0,-0.49,0.75,-9.6,-1,-6.2,0.57,0.04,-0.03,0.82
1697353092.42,-0,-0.49,0.75,-9.6,-1,-6.2,0.57,0.04,-0.03,0.82
1697353092.43,0.07,-0.55,0.85,-8,-1.9,-9.2,0.57,0.04,-0.03,0.82
1697353092.44,0.07,-0.55,0.85,-8,-1.9,-9.2,0.57,0.04,-0.03,0.82
1697353092.45,0.07,-0.55,0.85,-8,-1.9,-9.2,0.57,0.04,-0.03,0.82
1697353092.46,0.07,-0.55,0.85,-8,-1.9,-9.2,0.57,0.04,-0.03,0.82
1697353092.47,0.07,-0.55,0.85,-8,-1.9,-9.2,0.57,0.04,-0.03,0.82
1697353092.48,0.07,-0.55,0.85,-8,-1.9,-9.2,0.57,0.04,-0.03,0.82
1697353092.49,0.07,-0.55,0.85,-8,-1.9,-9.2,0.57,0.04,-0.03,0.82
1697353092.5,0.07,-0.55,0.85,-8,-1.9,-9.2,0.57,0.04,-0.03,0.82
1697353092.51,0.07,-0.55,0.85,-8,-1.9,-9.2,0.57,0.04,-0.03,0.82
1697353092.52,0.07,-0.55,0.85,-8,-1.9,-9.2,0.57,0.04,-0.03,0.82
1697353092.53,0.07,-0.55,0.85,-8,-1.9,-9.2,0.57,0.04,-0.03,0.82
1697353092.54,0.07,-0.55,0.85,-8,-1.9,-9.2,0.57,0.04,-0.03,0.82
1697353092.55,0.07,-0.55,0.85,-8,-1.9,-9.2,0.57,0.04,-0.03,0.82
1697353092.56,0.07,-0.55,0.85,-8,-1.9,-9.2,0.57,0.04,-0.03,0.82
1697353092.57,0.07,-0.55,0.85,-8,-1.9,-9.2,0.57,0.04,-0.03,0.82
1697353092.58,0.07,-0.55,0.85,-8,-1.9,-9.2,0.57,0.04,-0.03,0.82
1697353092.59,0.07,-0.55,0.85,-8,-1.9,-9.2,0.57,0.04,-0.03,0.82
1697353092.6,0.07,-0.55,0.85,-8,-1.9,-9.2,0.57,0.04,-0.03,0.82
1697353092.61,0.07,-0.55,0.85,-8,-1.9,-9.2,0.57,0.04,-0.03,0.82
1697353092.62,-0.17,-0.97,1.31,-1.3,0.4,-37.7,0.61,0.04,-0.03,0.79
1697353092.63,-0.13,-0.7,1.35,-7.1,-2.3,-41.1,0.61,0.04,-0.03,0.79
1697353092.64,-0.03,-0.54,0.26,-6.6,-3.6,-41.5,0.61,0.04,-0.03,0.79
1697353092.65,-0.48,-0.81,1.49,-1.1,-2.4,-41.5,0.62,0.04,-0.03,0.79
1697353092.66,0.09,-1.13,0.4,4.8,0.3,-42,0.62,0.04,-0.03,0.78
1697353092.67,-0.22,-1.47,1.02,4.8,0.3,-42,0.62,0.04,-0.03,0.78
1697353092.68,-0.08,-1.28,1.31,0.3,1.7,-47.4,0.63,0.04,-0.03,0.78
1697353092.69,-0.07,-1.19,0.7,-6.1,1.5,-48.6,0.63,0.04,-0.03,0.78
1697353092.7,-0.24,-0.67,1.39,-7.9,1.3,-51,0.64,0.04,-0.03,0.77
1697353092.71,0.09,-0.59,0.9,-5.5,0.5,-51.7,0.64,0.04,-0.03,0.77
1697353092.72,-0.07,-0.79,0.53,1,0.1,-51.7,0.64,0.04,-0.03,0.77
1697353092.73,-0.2,-1.13,1.62,3.7,-0.6,-52.2,0.64,0.04,-0.03,0.76
1697353092.74,-0.1,-1.09,0.59,3.7,-0.6,-52.2,0.64,0.04,-0.03,0.76
1697353092.75,-0.17,-0.98,1.03,-1.5,-0.6,-52.2,0.65,0.04,-0.03,0.76
1697353092.76,-0.2,-0.86,1.03,-4.4,-0.1,-51.7,0.66,0.04,-0.03,0.75
1697353092.77,-0.2,-0.77,0.99,-4.2,0.4,-51.2,0.66,0.04,-0.03,0.75
1697353092.78,-0.23,-0.8,1.14,-2,1,-50.4,0.66,0.04,-0.03,0.75
1697353092.79,-0.18,-0.85,0.99,0.2,1.3,-49.9,0.67,0.04,-0.03,0.74
1697353092.8,0,-0.93,0.69,1.5,1.7,-49.6,0.67,0.04,-0.03,0.74
1697353092.81,-0.15,-0.95,0.98,0.8,2.1,-49.7,0.67,0.04,-0.03,0.74
1697353092.82,-0.28,-0.89,1.02,-0.5,2.7,-50,0.68,0.04,-0.03,0.73
1697353092.83,0.1,-0.76,0.57,0.6,2.5,-50,0.68,0.04,-0.03,0.73
1697353092.84,0.1,-0.76,0.57,0.6,2.5,-50,0.68,0.04,-0.03,0.73
1697353092.85,-0.06,-0.86,1.1,3.1,2.3,-49.9,0.68,0.04,-0.03,0.73
1697353092.86,-0.18,-0.9,0.86,1.5,0.9,-50.4,0.69,0.04,-0.03,0.73
1697353092.87,-0.18,-0.9,0.86,1.5,0.9,-50.4,0.69,0.04,-0.03,0.72
1697353092.88,-0.17,-0.78,0.82,0.4,0.2,-50.7,0.69,0.04,-0.03,0.72
1697353092.89,-0.17,-0.78,0.82,0.4,0.2,-50.7,0.7,0.04,-0.03,0.72
1697353092.9,-0.11,-0.83,1.12,0.3,0.2,-50.7,0.7,0.04,-0.03,0.71
1697353092.91,-0.29,-0.73,0.82,-0.1,0.5,-50.6,0.7,0.04,-0.03,0.71
1697353092.92,-0.29,-0.73,0.82,0,1.2,-50,0.71,0.04,-0.03,0.71
1697353092.93,-0.13,-0.69,1.06,0.7,1.9,-49.4,0.71,0.04,-0.03,0.7
1697353092.94,-0.2,-0.84,0.88,0.1,2.3,-49.1,0.71,0.04,-0.03,0.7
1697353092.95,-0.13,-0.85,1.06,-1.3,2.3,-48.9,0.72,0.04,-0.02,0.7
1697353092.96,-0.28,-0.83,1.03,-2.2,2.1,-49.1,0.72,0.04,-0.02,0.69
1697353092.97,-0.04,-0.78,1,-2.2,1.5,-49.1,0.72,0.04,-0.02,0.69
1697353092.98,-0.27,-0.8,1.34,-1.1,0.5,-49.1,0.72,0.04,-0.02,0.69
1697353092.99,0.09,-0.8,0.68,0.7,-0.1,-49.4,0.73,0.04,-0.02,0.68
1697353093,0.09,-0.8,0.68,0.7,-0.1,-49.4,0.73,0.04,-0.02,0.68
1697353093.01,0.09,-0.8,0.68,0.7,-0.1,-49.4,0.73,0.04,-0.02,0.68
1697353093.02,0.09,-0.8,0.68,0.7,-0.1,-49.4,0.73,0.04,-0.02,0.68
1697353093.03,0.09,-0.8,0.68,0.7,-0.1,-49.4,0.73,0.04,-0.02,0.68
1697353093.04,0.09,-0.8,0.68,0.7,-0.1,-49.4,0.73,0.04,-0.02,0.68
1697353093.05,0.09,-0.8,0.68,0.7,-0.1,-49.4,0.73,0.04,-0.02,0.68
1697353093.06,0.09,-0.8,0.68,0.7,-0.1,-49.4,0.73,0.04,-0.02,0.68
1697353093.07,0.09,-0.8,0.68,0.7,-0.1,-49.4,0.73,0.04,-0.02,0.68
1697353093.08,0.09,-0.8,0.68,0.7,-0.1,-49.4,0.73,0.04,-0.02,0.68
1697353093.09,0.09,-0.8,0.68,0.7,-0.1,-49.4,0.73,0.04,-0.02,0.68
1697353093.1,0.09,-0.8,0.68,0.7,-0.1,-49.4,0.73,0.04,-0.02,0.68
1697353093.11,0.09,-0.8,0.68,0.7,-0.1,-49.4,0.73,0.04,-0.02,0.68
1697353093.12,-0.29,-0.76,1.3,-1.2,2.5,-48.6,0.77,0.04,-0.02,0.64
1697353093.13,-0.29,-0.76,1.3,-1.2,2.5,-48.6,0.77,0.04,-0.02,0.64
1697353093.14,-0.23,-0.81,1.33,2.1,1.5,-48.8,0.77,0.04,-0.02,0.63
1697353093.15,-0.02,-0.75,0.89,3,0.7,-49.2,0.77,0.04,-0.02,0.63
1697353093.16,-0.02,-0.75,0.89,3,0.7,-49.2,0.77,0.04,-0.02,0.63
1697353093.17,-0.14,-0.86,1.11,2.8,-0.1,-49.4,0.78,0.04,-0.02,0.63
1697353093.18,-0.18,-0.83,1.14,-0.6,-0.8,-49.2,0.78,0.04,-0.02,0.62
1697353093.19,-0.07,-0.68,1.14,-1.1,-0.9,-48.5,0.79,0.04,-0.02,0.62
1697353093.2,-0.08,-0.53,0.89,-1.1,-0.9,-48.5,0.79,0.04,-0.02,0.62
1697353093.21,0.04,-0.47,0.79,-0.1,-1.1,-45.2,0.79,0.04,-0.02,0.61
1697353093.22,0.04,-0.47,0.79,-0.1,-1.1,-45.2,0.79,0.04,-0.02,0.61
1697353093.23,0.06,-0.24,0.62,2.3,-0.3,-39.4,0.79,0.04,-0.02,0.61
1697353093.24,0.06,-0.24,0.62,2.3,-0.3,-39.4,0.79,0.04,-0.02,0.6
1697353093.25,-0.26,-0.47,1.13,3.9,-0.2,-36.4,0.8,0.04,-0.02,0.6
1697353093.26,-0.09,-0.2,0.84,3.7,0,-32.6,0.8,0.04,-0.02,0.6
1697353093.27,-0.15,-0.16,1.13,3.4,0,-28.8,0.8,0.04,-0.02,0.6
1697353093.28,0.02,-0.07,0.84,3.9,0.2,-25.2,0.8,0.04,-0.02,0.6
1697353093.29,0,0.1,0.49,4.7,0.2,-20.2,0.8,0.04,-0.02,0.59
1697353093.3,-0.09,0.14,1.15,6,0.1,-16,0.8,0.04,-0.02,0.59
1697353093.31,-0.12,0.36,0.94,7.1,0.4,-11.5,0.8,0.04,-0.02,0.59
1697353093.32,-0.12,0.48,1.39,8.1,-0.1,-6.5,0.8,0.04,-0.02,0.59
1697353093.33,0,0.54,0.52,7.8,0,-1.4,0.81,0.04,-0.02,0.59
1697353093.34,-0.09,0.56,1.41,7.9,-0.6,3.3,0.81,0.04,-0.02,0.59
1697353093.35,-0.07,0.69,0.96,8.1,-1.2,8,0.8,0.05,-0.02,0.59
1697353093.36,0,0.55,0.98,8.1,-1.9,11.6,0.8,0.05,-0.02,0.59
1697353093.37,-0.07,0.66,0.89,6.9,-2.8,14.5,0.8,0.05,-0.02,0.59
1697353093.38,-0.01,0.6,0.92,5,-2.6,17.3,0.8,0.05,-0.02,0.59
1697353093.39,-0.1,0.62,0.81,4.2,-2.2,18.7,0.8,0.05,-0.02,0.6
1697353093.4,-0.11,0.68,1.22,3.4,-2,20.2,0.8,0.05,-0.02,0.6
1697353093.41,-0.18,0.7,0.94,3.4,-1.7,21.8,0.8,0.05,-0.02,0.6
1697353093.42,-0.14,0.74,1.21,3.8,-1.4,23.2,0.8,0.05,-0.02,0.6
1697353093.43,-0.11,0.72,0.8,3,-1.4,24.6,0.8,0.05,-0.02,0.6
1697353093.44,-0.12,0.66,1.03,1.4,-1.4,25.8,0.8,0.05,-0.02,0.6
1697353093.45,-0.2,0.62,0.81,0,-1.3,27,0.79,0.05,-0.02,0.61
1697353093.46,-0.19,0.67,1.09,-1,-1.1,28.5,0.79,0.05,-0.02,0.61
1697353093.47,-0.03,0.7,1.14,-1,-1.1,28.5,0.79,0.05,-0.02,0.61
1697353093.48,-0.05,0.56,0.87,0.2,-0.3,29.9,0.79,0.05,-0.02,0.61
1697353093.49,-0.05,0.56,0.87,0.2,-0.3,29.9,0.79,0.05,-0.02,0.61
1697353093.5,-0.18,0.46,1.1,-2,0.3,30.4,0.79,0.05,-0.02,0.62
1697353093.51,-0.18,0.46,1.1,-2,0.3,30.4,0.79,0.05,-0.02,0.62
1697353093.52,-0.18,0.46,1.1,-2,0.3,30.4,0.79,0.05,-0.02,0.62
1697353093.53,-0.18,0.46,1.1,-2,0.3,30.4,0.79,0.05,-0.02,0.62
1697353093.54,-0.18,0.46,1.1,-2,0.3,30.4,0.79,0.05,-0.02,0.62
1697353093.55,-0.18,0.46,1.1,-2,0.3,30.4,0.79,0.05,-0.02,0.62
1697353093.56,-0.18,0.46,1.1,-2,0.3,30.4,0.79,0.05,-0.02,0.62
1697353093.57,-0.18,0.46,1.1,-2,0.3,30.4,0.79,0.05,-0.02,0.62
1697353093.58,-0.18,0.46,1.1,-2,0.3,30.4,0.79,0.05,-0.02,0.62
1697353093.59,-0.18,0.46,1.1,-2,0.3,30.4,0.79,0.05,-0.02,0.62
1697353093.6,-0.18,0.46,1.1,-2,0.3,30.4,0.79,0.05,-0.02,0.62
1697353093.61,-0.18,0.46,1.1,-2,0.3,30.4,0.79,0.05,-0.02,0.62
1697353093.62,-0.18,0.46,1.1,-2,0.3,30.4,0.79,0.05,-0.02,0.62
1697353093.63,0.14,0.25,0.58,0.3,-2.5,29.5,0.77,0.05,-0.02,0.64
1697353093.64,0.02,0.25,1.02,-0.2,-1.5,28,0.76,0.05,-0.02,0.64
1697353093.65,-0.06,0.27,1.12,-1.7,-0.5,26.9,0.76,0.05,-0.02,0.65
1697353093.66,-0.09,0.29,0.83,-0.5,1.7,24.9,0.76,0.05,-0.02,0.65
1697353093.67,-0.04,0.22,1.39,-0.7,2.4,24.3,0.76,0.05,-0.02,0.65
1697353093.68,-0.09,0.18,1.06,-0.7,2.4,24.3,0.76,0.05,-0.02,0.65
1697353093.69,0.13,0.2,1.06,-1.6,2,22.2,0.76,0.05,-0.02,0.65
1697353093.7,0.03,0.19,0.94,-1.2,1.4,21.1,0.75,0.05,-0.02,0.65
1697353093.71,0.21,0.21,0.99,-0.8,0.7,19.8,0.75,0.05,-0.02,0.66
1697353093.72,0.3,0.23,0.7,-1.3,-0.2,18.6,0.75,0.05,-0.02,0.66
1697353093.73,0.1,0.28,1.04,-1.7,-0.4,17.8,0.75,0.05,-0.02,0.66
1697353093.74,0.19,0.33,0.91,-0.8,-0.3,17.5,0.75,0.05,-0.02,0.66
1697353093.75,0.09,0.25,1.16,-0.9,-0.2,18.2,0.75,0.05,-0.02,0.66
1697353093.76,0.04,0.32,0.75,-0.3,-0.3,18.8,0.75,0.05,-0.02,0.66
1697353093.77,0.07,0.36,1.2,0.5,0.2,19.6,0.75,0.05,-0.02,0.66
1697353093.78,-0.1,0.33,0.88,1,0.5,20.6,0.75,0.05,-0.02,0.66
1697353093.79,-0.1,0.33,0.88,1,0.5,20.6,0.75,0.05,-0.02,0.66
1697353093.8,0.11,0.27,0.96,0.3,0,21.8,0.74,0.05,-0.02,0.67
1697353093.81,0.02,0.23,1.14,0.1,-0.7,21.7,0.74,0.05,-0.02,0.67
1697353093.82,0.02,0.23,1.14,0.1,-0.7,21.7,0.74,0.05,-0.02,0.67
1697353093.83,0.3,0.33,0.88,1,-0.8,20.9,0.74,0.05,-0.02,0.67
1697353093.84,0.02,0.31,1.27,0.9,-0.4,20.3,0.74,0.05,-0.02,0.67
1697353093.85,0.07,0.27,0.9,0.1,0.3,19.8,0.74,0.05,-0.02,0.67
1697353093.86,0.05,0.25,0.93,-0.4,0.6,19.7,0.74,0.05,-0.02,0.68
1697353093.87,0.05,0.25,0.93,-0.4,0.6,19.7,0.74,0.05,-0.02,0.68
1697353093.88,0.07,0.17,1.29,-1.6,0.3,18.5,0.73,0.05,-0.02,0.68
1697353093.89,0.07,0.17,1.29,-1.6,0.3,18.5,0.73,0.05,-0.02,0.68
1697353093.9,0.11,0.21,0.79,-1.4,-0.1,16.8,0.73,0.05,-0.02,0.68
1697353093.91,-0.06,0.05,1.31,-1.4,-0.1,16.8,0.73,0.05,-0.02,0.68
1697353093.92,-0.06,0.05,1.31,-1.9,-0.2,15.1,0.73,0.05,-0.02,0.68
1697353093.93,0.17,0.2,0.93,-1.7,0,13.6,0.73,0.05,-0.02,0.68
1697353093.94,0.01,0.12,0.99,-1,0,11.9,0.73,0.05,-0.02,0.68
1697353093.95,0.05,-0.01,1.32,-0.2,0.4,10.2,0.73,0.05,-0.02,0.68
1697353093.96,0.09,-0.04,0.94,0,0.5,8.5,0.73,0.05,-0.02,0.68
1697353093.97,0.05,-0.06,0.93,-1.2,0.9,7.2,0.73,0.05,-0.02,0.68
1697353093.98,0.03,0.01,1.23,-2.2,1.5,6.6,0.73,0.04,-0.02,0.69
1697353093.99,-0.03,0.06,1.53,-1.6,2.2,6.7,0.73,0.04,-0.02,0.69
