time,accel_x,accel_y,accel_z,gyro_x,gyro_y,gyro_z,quat_w,quat_x,quat_y,quat_z
1697354499.25,0.11,0.22,0.98,0.3,-0.1,40.7,0.92,0.02,-0.03,-0.39
1697354499.26,-0.01,0.12,0.95,0,-0.6,40.4,0.92,0.02,-0.03,-0.39
1697354499.27,-0.02,0.2,1.01,-0.2,-0.9,39.8,0.92,0.02,-0.03,-0.38
1697354499.28,-0.08,0.21,1.08,-1.4,-1.1,39.5,0.92,0.02,-0.03,-0.38
1697354499.29,-0.06,0.21,0.81,-2,-0.9,39.6,0.93,0.02,-0.03,-0.38
1697354499.3,-0.11,0.26,1.21,-2.1,-0.6,39.6,0.93,0.02,-0.03,-0.37
1697354499.31,-0.07,0.26,1.04,-1.8,-0.2,39.8,0.93,0.02,-0.03,-0.37
1697354499.32,-0.06,0.24,0.94,-1.2,0,40.1,0.93,0.02,-0.03,-0.37
1697354499.33,-0.07,0.22,1.19,-0.2,0,40.1,0.93,0.02,-0.03,-0.36
1697354499.34,-0.07,0.22,1.19,-0.2,0,40.1,0.93,0.02,-0.03,-0.36
1697354499.35,-0.01,0.19,0.94,-0.4,-0.1,39.7,0.93,0.02,-0.03,-0.36
1697354499.36,-0.01,0.19,0.94,-0.4,-0.1,39.7,0.93,0.02,-0.03,-0.35
1697354499.37,0.03,0.21,0.86,-1,-0.8,38.7,0.94,0.02,-0.03,-0.35
1697354499.38,0.03,0.21,0.86,-1,-0.8,38.7,0.94,0.02,-0.03,-0.35
1697354499.39,-0.01,0.26,0.98,-1.1,-0.9,38.7,0.94,0.02,-0.03,-0.34
1697354499.4,-0.01,0.24,0.91,-0.1,-1.1,38.7,0.94,0.02,-0.03,-0.34
1697354499.41,-0.01,0.24,0.91,0.6,-1,38.7,0.94,0.02,-0.03,-0.34
1697354499.42,-0.01,0.24,0.91,0.6,-1,38.7,0.94,0.02,-0.03,-0.34
1697354499.43,-0.01,0.24,0.91,0.6,-1,38.7,0.94,0.02,-0.03,-0.34
1697354499.44,-0.01,0.24,0.91,0.6,-1,38.7,0.94,0.02,-0.03,-0.34
1697354499.45,-0.01,0.24,0.91,0.6,-1,38.7,0.94,0.02,-0.03,-0.34
1697354499.46,-0.01,0.24,0.91,0.6,-1,38.7,0.94,0.02,-0.03,-0.34
1697354499.47,-0.01,0.24,0.91,0.6,-1,38.7,0.94,0.02,-0.03,-0.34
1697354499.48,-0.01,0.24,0.91,0.6,-1,38.7,0.94,0.02,-0.03,-0.34
1697354499.49,-0.01,0.24,0.91,0.6,-1,38.7,0.94,0.02,-0.03,-0.34
1697354499.5,-0.01,0.24,0.91,0.6,-1,38.7,0.94,0.02,-0.03,-0.34
1697354499.51,-0.01,0.24,0.91,0.6,-1,38.7,0.94,0.02,-0.03,-0.34
1697354499.52,-0.01,0.24,0.91,0.6,-1,38.7,0.94,0.02,-0.03,-0.34
1697354499.53,-0.01,0.24,0.91,0.6,-1,38.7,0.94,0.02,-0.03,-0.34
1697354499.54,-0.01,0.24,0.91,0.6,-1,38.7,0.94,0.02,-0.03,-0.34
1697354499.55,-0.02,0.18,0.96,-0.7,0.4,38.8,0.96,0.02,-0.03,-0.29
1697354499.56,-0.01,0.23,0.89,-0.6,0.3,38.7,0.96,0.02,-0.03,-0.29
1697354499.57,-0.03,0.21,1.1,-0.1,0.1,38.8,0.96,0.02,-0.03,-0.29
1697354499.58,0,0.21,0.95,0.4,-0.1,38.9,0.96,0.02,-0.03,-0.28
1697354499.59,0.02,0.17,1.01,1.1,-0.4,38.6,0.96,0.02,-0.03,-0.28
1697354499.6,0.01,0.19,1.09,1.4,-0.6,38.5,0.96,0.02,-0.03,-0.28
1697354499.61,0.01,0.14,1.12,0.7,-0.9,38.4,0.96,0.02,-0.03,-0.27
1697354499.62,-0.01,0.19,1,0,-0.5,38.5,0.96,0.02,-0.03,-0.27
1697354499.63,-0.07,0.19,0.98,-0.4,-0.3,38.6,0.96,0.02,-0.03,-0.27
1697354499.64,-0.07,0.25,0.99,-0.1,-0.1,38.7,0.96,0.02,-0.03,-0.26
1697354499.65,-0.03,0.23,0.98,0.5,0.3,38.7,0.96,0.02,-0.03,-0.26
1697354499.66,-0.06,0.18,1.09,0.7,0.7,38.9,0.97,0.02,-0.03,-0.26
1697354499.67,-0.01,0.21,0.89,0.3,1,38.9,0.97,0.02,-0.03,-0.25
1697354499.68,-0.01,0.19,0.96,0.4,1.3,39,0.97,0.02,-0.03,-0.25
1697354499.69,-0.02,0.19,1,0,1,38.8,0.97,0.02,-0.03,-0.25
1697354499.7,0.03,0.19,1.03,0,1,38.8,0.97,0.02,-0.03,-0.24
1697354499.71,0.03,0.19,1.03,0.2,0.9,38.6,0.97,0.02,-0.03,-0.24
1697354499.72,-0.03,0.21,1.05,0.1,0.7,38.5,0.97,0.02,-0.03,-0.24
1697354499.73,0.01,0.22,0.87,0.2,0.2,38.2,0.97,0.02,-0.03,-0.23
1697354499.74,0.01,0.22,0.87,0.6,0,38.2,0.97,0.02,-0.03,-0.23
1697354499.75,-0.06,0.18,1.11,0.6,-0.2,38.1,0.97,0.02,-0.03,-0.23
1697354499.76,-0.02,0.17,1.01,0.3,-0.2,38,0.97,0.02,-0.03,-0.22
1697354499.77,-0.04,0.19,1.07,0,-0.3,38.1,0.97,0.02,-0.03,-0.22
1697354499.78,-0,0.2,0.82,-0.6,-0.2,38,0.98,0.02,-0.03,-0.22
1697354499.79,-0.09,0.19,1.1,-0.7,-0.1,38,0.98,0.02,-0.03,-0.21
1697354499.8,0.02,0.14,0.97,-0.7,-0.1,37.8,0.98,0.02,-0.03,-0.21
1697354499.81,0.03,0.16,0.93,-0.5,0,37.8,0.98,0.02,-0.03,-0.21
1697354499.82,-0.03,0.16,1.08,-0.8,0.1,37.6,0.98,0.02,-0.03,-0.2
1697354499.83,0,0.17,0.93,-0.8,0.6,37.5,0.98,0.02,-0.03,-0.2
1697354499.84,-0.01,0.16,1.05,-0.4,0.8,37.5,0.98,0.02,-0.03,-0.2
1697354499.85,0.02,0.13,0.85,-0.2,0.8,37.5,0.98,0.02,-0.03,-0.19
1697354499.86,-0.04,0.19,1.17,0.1,1.1,37.5,0.98,0.02,-0.03,-0.19
1697354499.87,-0,0.14,0.89,0.6,1.4,37.6,0.98,0.02,-0.03,-0.19
1697354499.88,-0.05,0.17,1.06,0.5,1.6,37.6,0.98,0.02,-0.03,-0.18
1697354499.89,0,0.21,0.93,0,1.5,37.7,0.98,0.02,-0.03,-0.18
1697354499.9,0.01,0.19,0.92,0.5,1.4,37.6,0.98,0.02,-0.03,-0.18
1697354499.91,-0.02,0.18,0.99,0.6,1.3,37.5,0.98,0.02,-0.03,-0.18
1697354499.92,0.03,0.17,0.99,0,1.2,37.6,0.98,0.02,-0.03,-0.17
1697354499.93,0.06,0.22,0.9,-0.6,0.9,37.3,0.98,0.02,-0.03,-0.17
1697354499.94,0.06,0.22,0.9,-0.6,0.9,37.3,0.98,0.02,-0.03,-0.17
1697354499.95,0.06,0.22,0.9,-0.6,0.9,37.3,0.98,0.02,-0.03,-0.17
1697354499.96,0.06,0.22,0.9,-0.6,0.9,37.3,0.98,0.02,-0.03,-0.17
1697354499.97,0.06,0.22,0.9,-0.6,0.9,37.3,0.98,0.02,-0.03,-0.17
1697354499.98,0.06,0.22,0.9,-0.6,0.9,37.3,0.98,0.02,-0.03,-0.17
1697354499.99,0.06,0.22,0.9,-0.6,0.9,37.3,0.98,0.02,-0.03,-0.17
1697354500,0.06,0.22,0.9,-0.6,0.9,37.3,0.98,0.02,-0.03,-0.17
1697354500.01,0.06,0.22,0.9,-0.6,0.9,37.3,0.98,0.02,-0.03,-0.17
1697354500.02,0.06,0.22,0.9,-0.6,0.9,37.3,0.98,0.02,-0.03,-0.17
1697354500.03,0.06,0.22,0.9,-0.6,0.9,37.3,0.98,0.02,-0.03,-0.17
1697354500.04,0.06,0.22,0.9,-0.6,0.9,37.3,0.98,0.02,-0.03,-0.17
1697354500.05,0.06,0.22,0.9,-0.6,0.9,37.3,0.98,0.02,-0.03,-0.17
1697354500.06,0.06,0.22,0.9,-0.6,0.9,37.3,0.98,0.02,-0.03,-0.17
1697354500.07,-0.01,0.12,1.11,-0.7,2.2,37.5,0.99,0.02,-0.03,-0.13
1697354500.08,0.03,0.18,0.87,-0.8,2.4,37.3,0.99,0.02,-0.03,-0.12
1697354500.09,-0.05,0.18,1,-0.1,2.7,37.3,0.99,0.02,-0.03,-0.12
1697354500.1,0.02,0.16,0.85,0.2,2.8,37.2,0.99,0.02,-0.03,-0.12
1697354500.11,-0,0.18,1.03,1,2.9,36.7,0.99,0.02,-0.03,-0.11
1697354500.12,0.01,0.13,1.11,0.9,2.9,36.5,0.99,0.02,-0.03,-0.11
1697354500.13,0.06,0.09,0.87,0.9,2.9,36.5,0.99,0.02,-0.03,-0.11
1697354500.14,0.01,0.21,1.03,-0.4,2.6,35.9,0.99,0.02,-0.03,-0.1
1697354500.15,0.04,0.18,0.91,-0.8,2.4,35.9,0.99,0.02,-0.03,-0.1
1697354500.16,0.04,0.18,0.91,-0.8,2.4,35.9,0.99,0.02,-0.03,-0.1
1697354500.17,0.01,0.15,0.96,0.6,2.1,36,0.99,0.02,-0.03,-0.09
1697354500.18,0.01,0.15,0.96,0.6,2.1,36,1,0.02,-0.03,-0.09
1697354500.19,-0.01,0.16,1.02,0.5,2.2,36.2,1,0.02,-0.03,-0.09
1697354500.2,-0.06,0.16,1.13,0.3,2.3,36.5,1,0.02,-0.03,-0.08
1697354500.21,-0,0.16,0.93,-0.1,2.7,36.9,1,0.02,-0.03,-0.08
1697354500.22,-0,0.16,0.93,-0.1,2.7,36.9,1,0.02,-0.02,-0.08
1697354500.23,0.01,0.17,1.06,0,2.9,37.1,1,0.02,-0.02,-0.07
1697354500.24,-0.02,0.15,1.19,0.4,2.9,37.1,1,0.02,-0.02,-0.07
1697354500.25,0.01,0.15,1.07,0.4,2.9,37.1,1,0.02,-0.02,-0.07
1697354500.26,0.01,0.15,1.07,0.3,2.8,36.8,1,0.02,-0.02,-0.06
1697354500.27,-0.01,0.17,0.97,-0.7,2.8,36.5,1,0.02,-0.02,-0.06
1697354500.28,-0.01,0.17,0.97,-0.7,2.8,36.5,1,0.02,-0.02,-0.06
1697354500.29,-0.01,0.2,0.97,-1.1,3,36.4,1,0.02,-0.02,-0.06
1697354500.3,-0.01,0.16,1.05,-0.8,3.2,36.5,1,0.02,-0.02,-0.05
1697354500.31,-0.01,0.17,1.07,-0.7,3,36.5,1,0.02,-0.02,-0.05
1697354500.32,-0.01,0.14,0.96,-0.7,3.3,36.5,1,0.02,-0.02,-0.05
1697354500.33,-0.03,0.14,1.01,-0.4,3.1,36.7,1,0.02,-0.02,-0.04
1697354500.34,0.01,0.17,1,-0.2,2.8,36.6,1,0.02,-0.02,-0.04
1697354500.35,0.05,0.14,0.86,0.1,2.4,36.6,1,0.03,-0.02,-0.04
1697354500.36,0.04,0.12,0.95,0,2.1,36.4,1,0.03,-0.02,-0.03
1697354500.37,0.01,0.13,1.02,-0.4,1.8,36.4,1,0.03,-0.02,-0.03
1697354500.38,-0.04,0.14,1.17,-0.5,1.8,36.5,1,0.03,-0.02,-0.03
1697354500.39,0.01,0.14,1.04,-0.6,1.6,36.5,1,0.03,-0.02,-0.02
1697354500.4,0.02,0.2,1.05,-0.5,1.6,36.4,1,0.03,-0.02,-0.02
1697354500.41,-0.01,0.18,0.91,-0.3,1.8,36.5,1,0.03,-0.02,-0.02
1697354500.42,-0.06,0.15,1.13,0.1,1.9,36.5,1,0.03,-0.02,-0.02
1697354500.43,0.01,0.14,0.89,0.5,2.1,36.4,1,0.03,-0.02,-0.01
1697354500.44,-0.03,0.11,1.06,0,2.1,36.3,1,0.03,-0.02,-0.01
1697354500.45,-0.03,0.11,1.06,0,2.1,36.3,1,0.03,-0.02,-0.01
1697354500.46,-0.03,0.11,1.06,0,2.1,36.3,1,0.03,-0.02,-0.01
1697354500.47,-0.03,0.11,1.06,0,2.1,36.3,1,0.03,-0.02,-0.01
1697354500.48,-0.03,0.11,1.06,0,2.1,36.3,1,0.03,-0.02,-0.01
1697354500.49,-0.03,0.11,1.06,0,2.1,36.3,1,0.03,-0.02,-0.01
1697354500.5,-0.03,0.11,1.06,0,2.1,36.3,1,0.03,-0.02,-0.01
1697354500.51,-0.03,0.11,1.06,0,2.1,36.3,1,0.03,-0.02,-0.01
1697354500.52,-0.03,0.11,1.06,0,2.1,36.3,1,0.03,-0.02,-0.01
1697354500.53,-0.03,0.11,1.06,0,2.1,36.3,1,0.03,-0.02,-0.01
1697354500.54,-0.03,0.11,1.06,0,2.1,36.3,1,0.03,-0.02,-0.01
1697354500.55,-0.03,0.11,1.06,0,2.1,36.3,1,0.03,-0.02,-0.01
1697354500.56,-0.03,0.11,1.06,0,2.1,36.3,1,0.03,-0.02,-0.01
1697354500.57,-0.01,0.16,0.97,0.7,2,37,1,0.03,-0.02,0.03
1697354500.58,0.02,0.15,0.9,0,2.1,37,1,0.03,-0.02,0.04
1697354500.59,0,0.16,1.07,-0.2,1.9,37,1,0.03,-0.02,0.04
1697354500.6,0.04,0.16,0.98,0.4,1.7,36.8,1,0.03,-0.02,0.04
1697354500.61,0,0.18,0.89,0.9,1.7,36.7,1,0.03,-0.02,0.05
1697354500.62,0.01,0.17,1.03,1.4,1.7,36.6,1,0.03,-0.02,0.05
1697354500.63,0,0.17,1.02,1.4,1.3,36.6,1,0.03,-0.02,0.05
1697354500.64,-0.02,0.15,1.04,1.1,1.1,36.6,1,0.03,-0.02,0.06
1697354500.65,-0.03,0.17,1.07,0.6,0.7,36.8,1,0.03,-0.02,0.06
1697354500.66,0,0.14,1.01,-0.1,0.7,36.9,1,0.03,-0.02,0.06
1697354500.67,0.03,0.19,0.93,-0.3,0.6,37,1,0.03,-0.02,0.07
1697354500.68,0.01,0.18,0.98,0.2,0.6,37.1,1,0.03,-0.02,0.07
1697354500.69,0.03,0.16,0.88,0.9,0.7,37,1,0.03,-0.02,0.07
1697354500.7,0.03,0.16,1.02,0.8,0.9,36.8,1,0.03,-0.02,0.08
1697354500.71,0,0.07,1.16,0.3,1.3,36.5,1,0.03,-0.02,0.08
1697354500.72,0.04,0.09,0.91,0,1.6,36.2,1,0.03,-0.02,0.08
1697354500.73,0.04,0.15,0.86,-0.4,2,36.4,1,0.03,-0.02,0.09
1697354500.74,0.02,0.15,0.82,0,2.5,36.2,1,0.03,-0.02,0.09
1697354500.75,0.04,0.23,0.87,0.9,2.5,36.4,0.99,0.03,-0.02,0.09
1697354500.76,-0.02,0.18,1.12,1,2.4,36.8,0.99,0.03,-0.02,0.1
1697354500.77,-0.02,0.24,1.08,0.3,2.3,37.1,0.99,0.03,-0.02,0.1
1697354500.78,-0.02,0.24,1.08,0.3,2.3,37.1,0.99,0.03,-0.02,0.1
1697354500.79,0.04,0.16,0.84,-0.3,2.2,37.4,0.99,0.03,-0.02,0.1
1697354500.8,-0.06,0.19,1.12,-1,0.9,37.7,0.99,0.03,-0.02,0.11
1697354500.81,-0.06,0.19,1.12,-1,0.9,37.7,0.99,0.03,-0.02,0.11
1697354500.82,0.06,0.18,1.08,-0.1,0.1,37.4,0.99,0.03,-0.02,0.12
1697354500.83,0.05,0.16,1.01,-0.1,0.1,37.4,0.99,0.03,-0.02,0.12
1697354500.84,0.01,0.11,1,-0.7,-0.2,36.9,0.99,0.03,-0.02,0.12
1697354500.85,0.01,0.11,1,-0.7,-0.2,36.9,0.99,0.03,-0.02,0.12
1697354500.86,-0.02,0.14,1.07,-1.1,-0.5,36.8,0.99,0.03,-0.02,0.13
1697354500.87,0.01,0.18,0.84,-1.3,-0.4,36.9,0.99,0.03,-0.02,0.13
1697354500.88,-0.04,0.17,1.06,-0.8,-0.2,36.8,0.99,0.03,-0.02,0.13
1697354500.89,0.03,0.15,1.01,0,0,37.2,0.99,0.03,-0.02,0.14
1697354500.9,0.03,0.13,0.98,0,0,37.2,0.99,0.03,-0.02,0.14
1697354500.91,-0.04,0.1,0.95,-0.2,0.3,37.2,0.99,0.03,-0.02,0.14
1697354500.92,-0.04,0.1,0.95,-0.5,0.3,37.4,0.99,0.03,-0.02,0.15
1697354500.93,0.01,0.14,1.02,-0.8,0.3,37.5,0.99,0.03,-0.02,0.15
1697354500.94,0.03,0.17,0.95,-0.8,0.3,37.5,0.99,0.03,-0.02,0.15
1697354500.95,-0.03,0.19,1.07,-0.4,0.2,37.4,0.99,0.03,-0.02,0.16
1697354500.96,0,0.21,0.94,0.1,0.4,37.5,0.99,0.03,-0.02,0.16
1697354500.97,0,0.21,0.94,0.1,0.4,37.5,0.99,0.03,-0.02,0.16
1697354500.98,0,0.21,0.94,0.1,0.4,37.5,0.99,0.03,-0.02,0.16
1697354500.99,0,0.21,0.94,0.1,0.4,37.5,0.99,0.03,-0.02,0.16
1697354501,0,0.21,0.94,0.1,0.4,37.5,0.99,0.03,-0.02,0.16
1697354501.01,0,0.21,0.94,0.1,0.4,37.5,0.99,0.03,-0.02,0.16
1697354501.02,0,0.21,0.94,0.1,0.4,37.5,0.99,0.03,-0.02,0.16
1697354501.03,0,0.21,0.94,0.1,0.4,37.5,0.99,0.03,-0.02,0.16
1697354501.04,0,0.21,0.94,0.1,0.4,37.5,0.99,0.03,-0.02,0.16
1697354501.05,0,0.21,0.94,0.1,0.4,37.5,0.99,0.03,-0.02,0.16
1697354501.06,0,0.21,0.94,0.1,0.4,37.5,0.99,0.03,-0.02,0.16
1697354501.07,0,0.21,0.94,0.1,0.4,37.5,0.99,0.03,-0.02,0.16
1697354501.08,0,0.21,0.94,0.1,0.4,37.5,0.99,0.03,-0.02,0.16
1697354501.09,0,0.21,0.94,0.1,0.4,37.5,0.99,0.03,-0.02,0.16
1697354501.1,-0.01,0.18,1.01,1.1,0,38.7,0.98,0.04,-0.01,0.21
1697354501.11,-0.02,0.16,1.04,0.6,0.2,38.7,0.98,0.04,-0.01,0.21
1697354501.12,-0.01,0.1,1.01,0.6,0.4,38.6,0.98,0.04,-0.01,0.21
1697354501.13,-0,0.16,1,0.7,0.2,38.4,0.98,0.04,-0.01,0.22
1697354501.14,0.01,0.14,0.95,0.7,0.3,38.3,0.97,0.04,-0.01,0.22
1697354501.15,0.01,0.17,1.01,1.1,0.2,38.1,0.97,0.04,-0.01,0.22
1697354501.16,0.01,0.15,1.09,1.1,0,38,0.97,0.04,-0.01,0.22
1697354501.17,-0,0.13,1.06,0.8,-0.1,38,0.97,0.04,-0.01,0.23
1697354501.18,-0,0.13,1.06,0.8,-0.1,38,0.97,0.04,-0.01,0.23
1697354501.19,0,0.2,0.93,0.5,-0.2,38,0.97,0.04,-0.01,0.23
1697354501.2,-0.01,0.15,1.14,0.4,-0.3,38.4,0.97,0.04,-0.01,0.24
1697354501.21,-0.01,0.15,1.14,0.4,-0.3,38.4,0.97,0.04,-0.01,0.24
1697354501.22,-0.05,0.21,1.12,-0.4,-0.5,38.5,0.97,0.04,-0.01,0.24
1697354501.23,-0.05,0.21,1.12,-0.4,-0.5,38.5,0.97,0.04,-0.01,0.25
1697354501.24,-0.03,0.15,1.05,-0.7,-0.7,38.8,0.97,0.04,-0.02,0.25
1697354501.25,0.01,0.19,0.93,-0.4,-0.7,38.7,0.97,0.04,-0.02,0.25
1697354501.26,-0.06,0.2,0.98,-0.2,-0.7,38.7,0.97,0.04,-0.02,0.26
1697354501.27,-0,0.21,1.03,0.3,-0.7,38.6,0.96,0.04,-0.02,0.26
1697354501.28,0.01,0.17,1.11,0.8,-0.1,38.5,0.96,0.04,-0.02,0.26
1697354501.29,0.03,0.13,0.9,0.6,0,38.4,0.96,0.04,-0.02,0.27
1697354501.3,0.02,0.16,0.91,0.5,0.1,37.9,0.96,0.04,-0.02,0.27
1697354501.31,-0.01,0.19,0.86,0.1,0.4,37.9,0.96,0.04,-0.02,0.27
1697354501.32,-0.04,0.17,1.12,-0.2,0.6,38.1,0.96,0.04,-0.02,0.28
1697354501.33,0.04,0.17,0.99,-0.6,0.6,38.3,0.96,0.04,-0.02,0.28
1697354501.34,-0.01,0.17,0.95,-0.4,0.2,38.4,0.96,0.04,-0.02,0.28
1697354501.35,-0.03,0.18,1.03,-0.3,0.1,38.7,0.96,0.04,-0.02,0.29
1697354501.36,-0.03,0.15,1.08,-0.2,-0.1,38.9,0.96,0.04,-0.02,0.29
1697354501.37,0.01,0.14,0.99,-0.2,-0.6,39,0.95,0.04,-0.02,0.29
1697354501.38,-0.01,0.15,1.16,-0.5,-0.9,39.1,0.95,0.04,-0.02,0.29
1697354501.39,0.03,0.15,0.93,-0.4,-1.2,38.8,0.95,0.04,-0.02,0.3
1697354501.4,-0.02,0.16,1.13,-0.5,-1.3,38.6,0.95,0.04,-0.02,0.3
1697354501.41,0.02,0.17,0.98,-0.5,-1.3,38.6,0.95,0.04,-0.02,0.3
1697354501.42,0.03,0.13,0.93,-0.3,-1.1,38.5,0.95,0.04,-0.02,0.31
1697354501.43,-0.01,0.17,0.97,-0.4,-0.9,38.1,0.95,0.04,-0.02,0.31
1697354501.44,-0.03,0.19,0.92,-0.4,-0.9,38.1,0.95,0.04,-0.02,0.31
1697354501.45,-0.06,0.15,1.03,-0.8,-0.3,38.4,0.95,0.04,-0.02,0.32
1697354501.46,-0.04,0.16,1.02,-0.7,-0.2,38.5,0.95,0.04,-0.02,0.32
1697354501.47,-0.01,0.14,0.96,-0.5,-0.1,38.8,0.94,0.04,-0.02,0.33
1697354501.48,0.03,0.17,0.99,-0.5,0.2,38.8,0.94,0.04,-0.02,0.33
1697354501.49,0.03,0.17,0.99,-0.5,0.2,38.8,0.94,0.04,-0.02,0.33
1697354501.5,0.03,0.17,0.99,-0.5,0.2,38.8,0.94,0.04,-0.02,0.33
1697354501.51,0.03,0.17,0.99,-0.5,0.2,38.8,0.94,0.04,-0.02,0.33
1697354501.52,0.03,0.17,0.99,-0.5,0.2,38.8,0.94,0.04,-0.02,0.33
1697354501.53,0.03,0.17,0.99,-0.5,0.2,38.8,0.94,0.04,-0.02,0.33
1697354501.54,0.03,0.17,0.99,-0.5,0.2,38.8,0.94,0.04,-0.02,0.33
1697354501.55,0.03,0.17,0.99,-0.5,0.2,38.8,0.94,0.04,-0.02,0.33
1697354501.56,0.03,0.17,0.99,-0.5,0.2,38.8,0.94,0.04,-0.02,0.33
1697354501.57,0.03,0.17,0.99,-0.5,0.2,38.8,0.94,0.04,-0.02,0.33
1697354501.58,0.03,0.17,0.99,-0.5,0.2,38.8,0.94,0.04,-0.02,0.33
1697354501.59,0.03,0.17,0.99,-0.5,0.2,38.8,0.94,0.04,-0.02,0.33
1697354501.6,0.03,0.17,0.99,-0.5,0.2,38.8,0.94,0.04,-0.02,0.33
1697354501.61,0.03,0.17,0.99,-0.5,0.2,38.8,0.94,0.04,-0.02,0.33
1697354501.62,0.03,0.17,0.99,-0.5,0.2,38.8,0.94,0.04,-0.02,0.33
1697354501.63,0.03,0.17,0.99,-0.5,0.2,38.8,0.93,0.04,-0.02,0.38
1697354501.64,0.06,0.09,0.99,-0.2,0.8,38.7,0.92,0.04,-0.02,0.38
1697354501.65,-0.02,0.15,1.02,-0.2,0.6,38.8,0.92,0.04,-0.02,0.38
1697354501.66,0.04,0.16,0.89,-0.7,0.4,38.6,0.92,0.04,-0.02,0.39
1697354501.67,-0,0.18,0.99,-0.7,0.4,38.7,0.92,0.04,-0.02,0.39
1697354501.68,-0.02,0.2,1.02,-0.3,0.1,38.8,0.92,0.04,-0.02,0.39
1697354501.69,-0.02,0.15,1.09,-0.4,0.3,38.7,0.92,0.04,-0.02,0.39
1697354501.7,0.05,0.2,0.98,-0.5,0.3,38.9,0.92,0.04,-0.02,0.4
1697354501.71,0.09,0.17,0.89,0.2,0,38.8,0.92,0.04,-0.02,0.4
1697354501.72,0.06,0.19,0.96,0.5,0,39,0.91,0.04,-0.02,0.4
1697354501.73,-0.03,0.13,0.99,0.7,-0.3,39.1,0.91,0.04,-0.02,0.41
1697354501.74,0.02,0.21,0.9,0.5,0,39.2,0.91,0.04,-0.02,0.41
1697354501.75,-0.01,0.18,0.9,0.9,-0.1,39.6,0.91,0.04,-0.02,0.41
1697354501.76,-0.05,0.15,1.01,0.5,-0.2,39.7,0.91,0.04,-0.02,0.42
1697354501.77,0,0.18,1.05,-0.2,0.1,39.8,0.91,0.04,-0.02,0.42
1697354501.78,0.07,0.19,0.81,-0.2,0,39.8,0.9,0.04,-0.02,0.42
1697354501.79,-0.04,0.23,1.06,0.2,0.1,39.8,0.9,0.04,-0.02,0.43
1697354501.8,0.01,0.19,1.15,0.6,0.2,39.7,0.9,0.04,-0.02,0.43
1697354501.81,0.03,0.18,0.91,0.6,0.2,39.5,0.9,0.04,-0.02,0.43
1697354501.82,0.04,0.16,0.94,0.1,0,39.2,0.9,0.04,-0.02,0.43
1697354501.83,-0.01,0.13,1.11,-0.2,0.4,39.1,0.9,0.04,-0.02,0.44
1697354501.84,0.01,0.17,0.95,-0.9,0.5,39.1,0.9,0.04,-0.02,0.44
1697354501.85,-0.01,0.16,0.96,-0.6,0.6,39.2,0.89,0.04,-0.02,0.45
1697354501.86,-0.01,0.16,0.96,-0.6,0.6,39.2,0.89,0.04,-0.02,0.45
1697354501.87,0.01,0.12,1.06,-0.2,0.6,39.4,0.89,0.04,-0.02,0.45
1697354501.88,0.01,0.12,1.06,-0.2,0.6,39.4,0.89,0.04,-0.02,0.45
1697354501.89,0.05,0.18,0.86,0,0.5,39.5,0.89,0.04,-0.02,0.46
1697354501.9,-0.06,0.15,1.12,0.1,0.2,39.6,0.89,0.04,-0.02,0.46
1697354501.91,0.02,0.12,1.1,0.4,0,39.7,0.89,0.04,-0.02,0.46
1697354501.92,0.02,0.12,1.1,0.6,-0.2,39.6,0.88,0.04,-0.02,0.46
1697354501.93,-0,0.11,0.91,-0.3,-0.5,39.5,0.88,0.04,-0.02,0.47
1697354501.94,-0.03,0.11,0.92,-1.6,0,39.6,0.88,0.04,-0.02,0.47
1697354501.95,0,0.21,0.95,-1.6,0,39.9,0.88,0.04,-0.02,0.47
1697354501.96,-0.01,0.2,0.92,-1,0.4,39.7,0.88,0.04,-0.02,0.48
1697354501.97,-0.04,0.25,0.98,0,0.8,40,0.88,0.04,-0.02,0.48
1697354501.98,0.03,0.22,0.94,0.4,1,40.1,0.87,0.04,-0.02,0.48
1697354501.99,-0.01,0.12,1.05,0.4,0.8,39.7,0.87,0.04,-0.02,0.49
1697354502,0.04,0.18,1.1,-0.2,0.8,40,0.87,0.04,-0.02,0.49
1697354502.01,0.01,0.15,0.95,-0.8,0.8,39.9,0.87,0.04,-0.02,0.49
1697354502.02,0,0.22,0.98,-1.1,0.5,40,0.87,0.04,-0.02,0.5
1697354502.03,0.04,0.18,1.23,-1.1,0.5,40,0.87,0.04,-0.02,0.5
1697354502.04,0.04,0.18,1.23,-1.1,0.5,40,0.87,0.04,-0.02,0.5
1697354502.05,0.04,0.18,1.23,-1.1,0.5,40,0.87,0.04,-0.02,0.5
1697354502.06,0.04,0.18,1.23,-1.1,0.5,40,0.87,0.04,-0.02,0.5
1697354502.07,0.04,0.18,1.23,-1.1,0.5,40,0.87,0.04,-0.02,0.5
1697354502.08,0.04,0.18,1.23,-1.1,0.5,40,0.87,0.04,-0.02,0.5
1697354502.09,0.04,0.18,1.23,-1.1,0.5,40,0.87,0.04,-0.02,0.5
1697354502.1,0.04,0.18,1.23,-1.1,0.5,40,0.87,0.04,-0.02,0.5
1697354502.11,0.04,0.18,1.23,-1.1,0.5,40,0.87,0.04,-0.02,0.5
1697354502.12,0.04,0.18,1.23,-1.1,0.5,40,0.87,0.04,-0.02,0.5
1697354502.13,0.04,0.18,1.23,-1.1,0.5,40,0.87,0.04,-0.02,0.5
1697354502.14,0.04,0.18,1.23,-1.1,0.5,40,0.87,0.04,-0.02,0.5
1697354502.15,0.04,0.18,1.23,-1.1,0.5,40,0.87,0.04,-0.02,0.5
1697354502.16,0.02,0.25,0.92,0,1,39.7,0.84,0.04,-0.02,0.54
1697354502.17,-0.01,0.23,1.11,0.8,0.8,40,0.84,0.04,-0.02,0.54
1697354502.18,0.01,0.18,1.07,0.9,0.7,40.2,0.84,0.04,-0.02,0.54
1697354502.19,0.05,0.12,1.04,0.6,0,40.6,0.84,0.04,-0.02,0.55
1697354502.2,0.02,0.14,1.05,0.2,-0.4,40.3,0.84,0.04,-0.02,0.55
1697354502.21,0.03,0.14,0.94,0.2,-0.4,40.3,0.83,0.04,-0.02,0.55
1697354502.22,0.04,0.14,1.05,-1.2,-0.9,39.5,0.83,0.04,-0.02,0.55
1697354502.23,0.01,0.12,1.01,-0.8,-0.9,38.6,0.83,0.04,-0.02,0.56
1697354502.24,0.02,0.11,0.99,-0.8,-0.9,38.6,0.83,0.04,-0.02,0.56
1697354502.25,0.02,0.11,0.99,-0.4,-0.9,37.9,0.83,0.04,-0.02,0.56
1697354502.26,0.04,0.14,0.95,0,-0.5,37.2,0.82,0.04,-0.02,0.56
1697354502.27,0,0.12,1.04,0,-0.1,36.8,0.82,0.04,-0.02,0.57
1697354502.28,0,0.12,1.04,0,0.3,36.5,0.82,0.04,-0.02,0.57
1697354502.29,0.04,0.17,0.98,-0.3,0.6,36.5,0.82,0.04,-0.02,0.57
1697354502.3,0.04,0.17,0.98,-0.7,0.8,36.7,0.82,0.04,-0.02,0.58
1697354502.31,-0.02,0.19,1.1,0,0.9,37.1,0.81,0.04,-0.02,0.58
1697354502.32,0.07,0.13,0.84,0.7,1,37.4,0.81,0.04,-0.02,0.58
1697354502.33,0.02,0.17,1.11,1,1,37.6,0.81,0.04,-0.02,0.58
1697354502.34,0.07,0.1,0.91,0.5,0.5,37.6,0.81,0.04,-0.02,0.59
1697354502.35,0.02,0.13,1.01,0,0.3,37.6,0.81,0.04,-0.02,0.59
1697354502.36,0.03,0.14,1.11,-0.2,-0.2,37.4,0.8,0.04,-0.02,0.59
1697354502.37,0.1,0.18,0.88,0.2,-0.5,37.2,0.8,0.04,-0.02,0.6
1697354502.38,0,0.16,1.21,0.2,-0.3,37,0.8,0.04,-0.02,0.6
1697354502.39,0.04,0.15,1.03,0.6,-0.4,36.7,0.8,0.04,-0.02,0.6
1697354502.4,0.01,0.13,1.14,0.3,-0.1,36.1,0.8,0.04,-0.02,0.6
1697354502.41,0.03,0.12,0.98,0,0,35.8,0.8,0.04,-0.02,0.6
1697354502.42,0.05,0.11,1,-0.4,0.1,35.3,0.79,0.04,-0.02,0.61
1697354502.43,0.05,0.11,1,-0.4,0.1,35.3,0.79,0.04,-0.02,0.61
1697354502.44,0.01,0.12,0.98,-0.1,0,34.6,0.79,0.04,-0.02,0.61
1697354502.45,0.03,0.11,0.96,-0.1,-0.2,34.4,0.79,0.04,-0.02,0.61
1697354502.46,0.07,0.12,0.93,-0.3,-0.3,34.1,0.79,0.04,-0.02,0.62
1697354502.47,0.07,0.12,0.93,-0.3,-0.3,34.1,0.79,0.04,-0.02,0.62
1697354502.48,0.04,0.08,0.94,-0.1,-1,33.7,0.78,0.04,-0.02,0.62
1697354502.49,0.04,0.13,1.07,-0.3,-1,33.6,0.78,0.04,-0.02,0.62
1697354502.5,0.01,0.08,0.87,0.5,-0.7,33.5,0.78,0.04,-0.02,0.63
1697354502.51,0.01,0.08,0.87,0.5,-0.7,33.5,0.78,0.04,-0.02,0.63
1697354502.52,-0.08,0,1.07,0.9,0.2,33.1,0.78,0.04,-0.02,0.63
1697354502.53,0.06,-0.03,1.17,0.5,0.6,32.6,0.77,0.04,-0.02,0.63
1697354502.54,0.06,0.07,0.83,-1.4,0.7,32.2,0.77,0.04,-0.02,0.63
1697354502.55,-0.01,0.11,1.21,-2.5,0.5,31.7,0.77,0.03,-0.02,0.64
1697354502.56,-0.01,0.11,1.21,-2.5,0.5,31.7,0.77,0.03,-0.02,0.64
1697354502.57,-0.01,0.11,1.21,-2.5,0.5,31.7,0.77,0.03,-0.02,0.64
1697354502.58,-0.01,0.11,1.21,-2.5,0.5,31.7,0.77,0.03,-0.02,0.64
1697354502.59,-0.01,0.11,1.21,-2.5,0.5,31.7,0.77,0.03,-0.02,0.64
1697354502.6,-0.01,0.11,1.21,-2.5,0.5,31.7,0.77,0.03,-0.02,0.64
1697354502.61,-0.01,0.11,1.21,-2.5,0.5,31.7,0.77,0.03,-0.02,0.64
1697354502.62,-0.01,0.11,1.21,-2.5,0.5,31.7,0.77,0.03,-0.02,0.64
1697354502.63,-0.01,0.11,1.21,-2.5,0.5,31.7,0.77,0.03,-0.02,0.64
1697354502.64,-0.01,0.11,1.21,-2.5,0.5,31.7,0.77,0.03,-0.02,0.64
1697354502.65,-0.01,0.11,1.21,-2.5,0.5,31.7,0.77,0.03,-0.02,0.64
1697354502.66,-0.01,0.11,1.21,-2.5,0.5,31.7,0.77,0.03,-0.02,0.64
1697354502.67,-0.01,0.11,1.21,-2.5,0.5,31.7,0.77,0.03,-0.02,0.64
1697354502.68,-0.01,0.11,1.21,-2.5,0.5,31.7,0.77,0.03,-0.02,0.64
1697354502.69,0.04,0.04,0.94,-0.9,0.7,25.9,0.75,0.03,-0.02,0.66
1697354502.7,0.07,0.04,1.04,-1.4,0.7,25.6,0.75,0.03,-0.02,0.67
1697354502.71,0.02,0.1,1.06,-1.3,0.8,25.3,0.74,0.03,-0.02,0.67
1697354502.72,0.02,0.09,1.02,-0.7,0.4,25,0.74,0.03,-0.02,0.67
1697354502.73,0.11,0.08,1.02,0.1,0.1,24.6,0.74,0.03,-0.02,0.67
1697354502.74,0.13,0.07,0.98,0.3,-0.3,24.1,0.74,0.03,-0.02,0.67
1697354502.75,0.05,0.02,0.98,0.5,-0.7,23.6,0.74,0.03,-0.02,0.67
1697354502.76,0.12,0.03,0.98,0.1,-1.1,23.2,0.74,0.03,-0.02,0.67
1697354502.77,0.1,0.05,0.83,0,-1,22.8,0.74,0.03,-0.02,0.68
1697354502.78,0.12,0.06,0.79,0.9,-1.3,22.2,0.73,0.03,-0.02,0.68
1697354502.79,0.02,0.02,1.09,1.5,-1.2,21.7,0.73,0.03,-0.02,0.68
1697354502.8,0.11,-0.01,0.89,1.5,-0.9,21.3,0.73,0.03,-0.02,0.68
1697354502.81,0.08,-0.06,1.12,0.9,-0.5,20.9,0.73,0.03,-0.02,0.68
1697354502.82,0.04,-0.02,0.95,0,-0.8,20.5,0.73,0.03,-0.02,0.68
1697354502.83,0.08,0.02,0.89,-0.6,-0.5,20,0.73,0.03,-0.02,0.68
1697354502.84,0,0.09,1.31,-0.4,-0.5,19.6,0.73,0.03,-0.02,0.69
1697354502.85,0.04,0.15,0.89,0.9,-1,19.2,0.73,0.03,-0.02,0.69
1697354502.86,0.03,-0.02,1.13,2.6,-0.4,18.9,0.72,0.04,-0.02,0.69
1697354502.87,0.09,-0.13,1,3.5,-0.1,18.3,0.72,0.04,-0.02,0.69
1697354502.88,0.11,-0.12,0.8,3.5,-0.1,18.3,0.72,0.04,-0.02,0.69
1697354502.89,0,-0.07,1.22,-2.2,0.6,16.7,0.72,0.03,-0.02,0.69
1697354502.9,0.14,0.11,0.75,-4.4,0.8,16.1,0.72,0.03,-0.02,0.69
1697354502.91,0.02,0.19,1.15,-3.4,0.9,15.8,0.72,0.03,-0.02,0.69
1697354502.92,0.12,0.09,0.91,-1.1,0.7,15.4,0.72,0.03,-0.02,0.69
1697354502.93,0.02,-0.01,1.17,1.3,0.6,14.8,0.72,0.03,-0.02,0.69
1697354502.94,0.11,-0.1,0.9,2.1,0.3,14.3,0.72,0.03,-0.02,0.7
1697354502.95,0.08,-0.13,0.94,0.8,0.1,13.7,0.72,0.03,-0.02,0.7
1697354502.96,0.06,-0.11,1.09,-2.2,0.2,12.5,0.72,0.03,-0.02,0.7
1697354502.97,0.1,-0.01,0.91,-2.5,0.1,12.1,0.71,0.03,-0.02,0.7
1697354502.98,0.02,-0.01,1.2,-2.1,0.3,11.4,0.71,0.03,-0.02,0.7
1697354502.99,0.11,-0.04,0.83,-0.7,0.5,10.8,0.71,0.03,-0.02,0.7
1697354503,0.07,-0.08,1.02,0.1,0.9,10.3,0.71,0.03,-0.02,0.7
1697354503.01,0.09,-0.12,0.94,0.5,1,9.6,0.71,0.03,-0.02,0.7
1697354503.02,0.04,-0.12,1.08,0.6,1,8.9,0.71,0.03,-0.02,0.7
1697354503.03,0.08,-0.05,0.89,-0.2,1.2,8.4,0.71,0.03,-0.02,0.7
1697354503.04,0.04,0.01,1.14,-0.6,1.6,7.9,0.71,0.03,-0.02,0.7
1697354503.05,0.11,-0.05,0.83,0.4,1.5,7.5,0.71,0.03,-0.02,0.7
1697354503.06,0.11,-0.05,0.83,0.4,1.5,7.5,0.71,0.03,-0.02,0.7
1697354503.07,0.09,-0.15,1.02,1.1,1.5,6.3,0.71,0.03,-0.02,0.7
1697354503.08,0.09,-0.15,1.02,1.1,1.5,6.3,0.71,0.03,-0.02,0.7
1697354503.09,0.09,-0.15,1.02,1.1,1.5,6.3,0.71,0.03,-0.02,0.7
1697354503.1,0.09,-0.15,1.02,1.1,1.5,6.3,0.71,0.03,-0.02,0.7
1697354503.11,0.09,-0.15,1.02,1.1,1.5,6.3,0.71,0.03,-0.02,0.7
1697354503.12,0.09,-0.15,1.02,1.1,1.5,6.3,0.71,0.03,-0.02,0.7
1697354503.13,0.09,-0.15,1.02,1.1,1.5,6.3,0.71,0.03,-0.02,0.7
1697354503.14,0.09,-0.15,1.02,1.1,1.5,6.3,0.71,0.03,-0.02,0.7
1697354503.15,0.09,-0.15,1.02,1.1,1.5,6.3,0.71,0.03,-0.02,0.7
1697354503.16,0.09,-0.15,1.02,1.1,1.5,6.3,0.71,0.03,-0.02,0.7
1697354503.17,0.09,-0.15,1.02,1.1,1.5,6.3,0.71,0.03,-0.02,0.7
1697354503.18,0.09,-0.15,1.02,1.1,1.5,6.3,0.71,0.03,-0.02,0.7
1697354503.19,0.09,-0.15,1.02,1.1,1.5,6.3,0.71,0.03,-0.02,0.7
1697354503.2,0.09,-0.15,1.02,1.1,1.5,6.3,0.71,0.03,-0.02,0.7
1697354503.21,0.07,-0.18,1.01,0.4,-0.2,-2.8,0.71,0.03,-0.03,0.71
1697354503.22,0.07,-0.18,1.01,0.4,-0.2,-2.8,0.71,0.03,-0.03,0.71
1697354503.23,0.07,-0.18,1.01,0.4,-0.2,-2.8,0.71,0.03,-0.03,0.71
1697354503.24,0.07,-0.18,1.01,0.4,-0.2,-2.8,0.71,0.03,-0.03,0.71
1697354503.25,0.07,-0.18,1.01,0.4,-0.2,-2.8,0.71,0.03,-0.03,0.71
1697354503.26,0.01,-0.12,1.18,-0.1,-0.5,-5.4,0.71,0.03,-0.03,0.7
1697354503.27,0.07,-0.15,1.19,0,-0.4,-6.1,0.71,0.03,-0.03,0.7
1697354503.28,0.11,-0.18,0.79,-0.7,-0.3,-6.5,0.71,0.03,-0.03,0.7
1697354503.29,0.01,-0.14,1.1,-1.4,0,-7.1,0.71,0.03,-0.03,0.7
1697354503.3,0.09,0.07,1.05,-1.4,0,-7.1,0.71,0.03,-0.03,0.7
1697354503.31,0.12,-0.09,1.05,0.4,0.4,-7.6,0.71,0.03,-0.03,0.7
1697354503.32,0,-0.11,0.98,3.1,0.6,-7.7,0.71,0.03,-0.03,0.7
1697354503.33,0.04,-0.2,0.91,2.9,0.5,-7.9,0.71,0.03,-0.03,0.7
1697354503.34,0.04,-0.38,1.19,2.9,0.5,-8.2,0.71,0.03,-0.03,0.7
1697354503.35,0.08,-0.23,0.93,-0.8,0,-8.8,0.71,0.03,-0.03,0.7
1697354503.36,0.09,-0.06,0.91,-3.2,0,-9.6,0.71,0.03,-0.03,0.7
1697354503.37,0.08,0,1.02,-2.9,-0.6,-9.9,0.71,0.03,-0.03,0.7
1697354503.38,0.05,0.05,0.88,-0.6,-1.2,-10.4,0.71,0.03,-0.03,0.7
1697354503.39,0.03,-0.15,1.07,2.5,-1.1,-10.6,0.72,0.03,-0.03,0.7
1697354503.4,0.02,-0.19,0.94,2.4,-1.3,-11,0.72,0.03,-0.03,0.7
1697354503.41,0.1,-0.26,1.05,-0.8,-0.9,-11.7,0.72,0.03,-0.03,0.7
1697354503.42,0.03,-0.15,1.14,-2.6,-0.8,-12,0.72,0.03,-0.03,0.7
1697354503.43,0.05,-0.08,1.04,-2.2,-0.9,-12.3,0.72,0.03,-0.03,0.69
1697354503.44,-0.03,-0.09,1.11,-1,-0.8,-12.6,0.72,0.03,-0.03,0.69
1697354503.45,0,-0.18,1.01,1,-0.7,-12.9,0.72,0.03,-0.03,0.69
1697354503.46,0.07,-0.24,0.96,1,-0.7,-12.9,0.72,0.03,-0.03,0.69
1697354503.47,0.04,-0.24,1.05,0.6,-0.6,-14,0.72,0.03,-0.03,0.69
1697354503.48,0.04,-0.24,1.05,0.6,-0.6,-14,0.72,0.03,-0.03,0.69
1697354503.49,-0.01,-0.2,0.9,-0.4,-0.7,-14.5,0.72,0.03,-0.03,0.69
1697354503.5,-0.01,-0.2,0.9,-0.2,-0.9,-14.9,0.72,0.03,-0.03,0.69
1697354503.51,0,-0.13,1,0.4,-0.8,-15.1,0.73,0.03,-0.03,0.69
1697354503.52,0.14,-0.2,0.82,1.5,-1,-15.2,0.73,0.03,-0.03,0.69
1697354503.53,0.05,-0.2,1.07,2.2,-1.4,-15.4,0.73,0.03,-0.03,0.69
1697354503.54,0.07,-0.26,1.01,1.6,-1.3,-15.6,0.73,0.03,-0.03,0.68
1697354503.55,-0.04,-0.19,0.89,-1,-1.1,-16.6,0.73,0.03,-0.03,0.68
1697354503.56,-0.04,-0.19,0.89,-1,-1.1,-16.6,0.73,0.03,-0.03,0.68
1697354503.57,0.09,-0.1,1,-1.4,-0.9,-16.9,0.73,0.03,-0.03,0.68
1697354503.58,0.09,-0.1,1,-0.8,-1.3,-17.6,0.73,0.03,-0.03,0.68
1697354503.59,0.12,-0.12,0.78,1.4,-0.8,-18.3,0.73,0.03,-0.03,0.68
1697354503.6,-0.14,-0.31,1.1,1.9,0.1,-19,0.73,0.03,-0.03,0.68
1697354503.61,-0.03,-0.27,0.95,0.4,1.8,-19.9,0.73,0.03,-0.03,0.68
1697354503.62,0.11,-0.19,0.94,-2.6,3.3,-20.6,0.74,0.03,-0.03,0.68
1697354503.63,0,-0.13,1.04,-2.9,3.3,-20.9,0.74,0.03,-0.03,0.68
1697354503.64,0.07,-0.12,0.91,-0.7,2.9,-21.3,0.74,0.03,-0.03,0.67
1697354503.65,0.07,-0.12,0.91,-0.7,2.9,-21.3,0.74,0.03,-0.03,0.67
1697354503.66,0.07,-0.12,0.91,-0.7,2.9,-21.3,0.74,0.03,-0.03,0.67
1697354503.67,0.07,-0.12,0.91,-0.7,2.9,-21.3,0.74,0.03,-0.03,0.67
1697354503.68,0.07,-0.12,0.91,-0.7,2.9,-21.3,0.74,0.03,-0.03,0.67
1697354503.69,0.07,-0.12,0.91,-0.7,2.9,-21.3,0.74,0.03,-0.03,0.67
1697354503.7,0.07,-0.12,0.91,-0.7,2.9,-21.3,0.74,0.03,-0.03,0.67
1697354503.71,0.07,-0.12,0.91,-0.7,2.9,-21.3,0.74,0.03,-0.03,0.67
1697354503.72,0.07,-0.12,0.91,-0.7,2.9,-21.3,0.74,0.03,-0.03,0.67
1697354503.73,0.07,-0.12,0.91,-0.7,2.9,-21.3,0.74,0.03,-0.03,0.67
1697354503.74,0.07,-0.12,0.91,-0.7,2.9,-21.3,0.74,0.03,-0.03,0.67
1697354503.75,0.07,-0.12,0.91,-0.7,2.9,-21.3,0.74,0.03,-0.03,0.67
1697354503.76,0.07,-0.12,0.91,-0.7,2.9,-21.3,0.74,0.03,-0.03,0.67
1697354503.77,0.03,-0.16,0.83,-0.8,0.1,-21.5,0.75,0.03,-0.03,0.66
1697354503.78,0.07,-0.11,1.02,0,0.4,-21.9,0.76,0.03,-0.03,0.65
1697354503.79,-0,-0.19,1.31,0,0.4,-21.9,0.76,0.03,-0.03,0.65
1697354503.8,0.06,-0.17,0.99,-0.6,0.8,-22.4,0.76,0.03,-0.03,0.65
1697354503.81,0.05,-0.17,1,-0.6,0.8,-22.4,0.76,0.03,-0.03,0.65
1697354503.82,0.05,-0.17,1,-1,0.3,-22.5,0.76,0.03,-0.03,0.65
1697354503.83,0.04,-0.14,1.12,-0.9,-0.3,-22.6,0.76,0.03,-0.03,0.65
1697354503.84,0.04,-0.17,1.17,-0.3,-1.5,-22.6,0.76,0.03,-0.03,0.65
1697354503.85,0.01,-0.19,1.08,-0.3,-1.9,-22.5,0.77,0.03,-0.03,0.64
1697354503.86,0.05,-0.16,0.71,-0.6,-1.9,-22.4,0.77,0.03,-0.03,0.64
1697354503.87,-0.03,-0.23,0.91,-0.5,-1.6,-22.3,0.77,0.03,-0.03,0.64
1697354503.88,-0.02,-0.14,1.21,-1,-1.2,-22.3,0.77,0.03,-0.03,0.64
1697354503.89,0.03,-0.12,1.23,-0.8,-0.5,-22,0.77,0.03,-0.03,0.64
1697354503.9,-0.03,-0.17,1.1,0.5,0.3,-22.1,0.77,0.03,-0.03,0.64
1697354503.91,0.03,-0.18,0.65,1.2,1.3,-22.2,0.77,0.03,-0.03,0.64
1697354503.92,0.04,-0.21,0.72,1,1.8,-22.4,0.77,0.03,-0.03,0.63
1697354503.93,0.06,-0.23,0.98,0.3,1.6,-22.6,0.77,0.03,-0.03,0.63
1697354503.94,0.04,-0.21,1.34,-0.2,0.9,-22.8,0.78,0.03,-0.03,0.63
1697354503.95,0.13,-0.18,1.05,-0.3,0.3,-23.1,0.78,0.03,-0.03,0.63
1697354503.96,0,-0.17,0.66,0.1,0,-23,0.78,0.03,-0.03,0.63
1697354503.97,0.03,-0.15,0.69,1.1,-0.3,-23.1,0.78,0.03,-0.03,0.63
1697354503.98,0.03,-0.27,1.06,1.4,-0.5,-23.2,0.78,0.03,-0.03,0.62
1697354503.99,0.04,-0.34,1.16,0.4,-0.9,-23.3,0.78,0.03,-0.03,0.62
1697354504,-0.01,-0.27,1.05,-3,-1.1,-23.9,0.78,0.03,-0.03,0.62
1697354504.01,-0.03,-0.13,1.01,-5.3,-0.8,-24.2,0.78,0.03,-0.03,0.62
1697354504.02,-0.04,0.02,0.87,-4.4,-0.4,-24.5,0.79,0.03,-0.03,0.62
1697354504.03,0.1,-0.15,0.63,-0.2,-0.2,-24.3,0.79,0.03,-0.03,0.62
1697354504.04,0.06,-0.29,1.29,2.9,-0.4,-24.6,0.79,0.03,-0.03,0.61
1697354504.05,0,-0.43,1.07,3,-0.8,-25.3,0.79,0.03,-0.03,0.61
1697354504.06,0.02,-0.43,1.1,0.6,-0.6,-25.8,0.79,0.03,-0.03,0.61
1697354504.07,-0.03,-0.32,0.9,-2.1,-0.5,-26.6,0.79,0.03,-0.03,0.61
1697354504.08,0.04,-0.17,0.75,-2.9,-0.1,-27.1,0.79,0.03,-0.03,0.61
1697354504.09,0.03,-0.11,1.13,-1.1,0,-27.2,0.8,0.03,-0.03,0.6
1697354504.1,-0.03,-0.14,0.98,2.1,0.2,-27.2,0.8,0.03,-0.03,0.6
1697354504.11,-0.01,-0.2,1.17,3.4,0.4,-27.1,0.8,0.03,-0.03,0.6
1697354504.12,0.01,-0.26,1.37,2.8,0.5,-27.1,0.8,0.03,-0.03,0.6
1697354504.13,0.01,-0.26,1.37,2.8,0.5,-27.1,0.8,0.03,-0.03,0.6
1697354504.14,0.02,-0.26,0.78,-1,0.3,-26.9,0.8,0.03,-0.02,0.59
1697354504.15,0.02,-0.26,0.78,-1,0.3,-26.9,0.8,0.03,-0.02,0.59
1697354504.16,0.02,-0.26,0.78,-1,0.3,-26.9,0.8,0.03,-0.02,0.59
1697354504.17,0.02,-0.26,0.78,-1,0.3,-26.9,0.8,0.03,-0.02,0.59
1697354504.18,0.02,-0.26,0.78,-1,0.3,-26.9,0.8,0.03,-0.02,0.59
1697354504.19,0.02,-0.26,0.78,-1,0.3,-26.9,0.8,0.03,-0.02,0.59
1697354504.2,0.02,-0.26,0.78,-1,0.3,-26.9,0.8,0.03,-0.02,0.59
1697354504.21,0.02,-0.26,0.78,-1,0.3,-26.9,0.8,0.03,-0.02,0.59
1697354504.22,0.02,-0.26,0.78,-1,0.3,-26.9,0.8,0.03,-0.02,0.59
1697354504.23,0.02,-0.26,0.78,-1,0.3,-26.9,0.8,0.03,-0.02,0.59
1697354504.24,0.02,-0.26,0.78,-1,0.3,-26.9,0.8,0.03,-0.02,0.59
1697354504.25,0.02,-0.26,0.78,-1,0.3,-26.9,0.8,0.03,-0.02,0.59
1697354504.26,0.02,-0.26,0.78,-1,0.3,-26.9,0.8,0.03,-0.02,0.59
1697354504.27,0.02,-0.26,0.78,-1,0.3,-26.9,0.8,0.03,-0.02,0.59
1697354504.28,0.02,-0.26,0.78,-1,0.3,-26.9,0.8,0.03,-0.02,0.59
1697354504.29,-0,-0.17,1.12,0,2,-28.2,0.82,0.03,-0.02,0.56
1697354504.3,0.03,-0.23,1.18,0.3,1.8,-28,0.83,0.03,-0.02,0.56
1697354504.31,0.06,-0.27,1.2,-0.4,1.3,-27.7,0.83,0.03,-0.02,0.56
1697354504.32,0.04,-0.27,0.9,-2.2,0.9,-27.5,0.83,0.03,-0.02,0.56
1697354504.33,0.02,-0.21,0.62,-3.1,0.7,-27.4,0.83,0.03,-0.02,0.56
1697354504.34,0.02,-0.15,0.72,-1,0.9,-27.3,0.83,0.03,-0.02,0.55
1697354504.35,0.04,-0.18,0.89,3.2,0.7,-27.7,0.83,0.03,-0.02,0.55
1697354504.36,0.01,-0.43,1.24,1.2,-0.2,-28.3,0.83,0.03,-0.02,0.55
1697354504.37,0.11,-0.36,1.06,-2.1,-0.8,-28.7,0.84,0.03,-0.02,0.55
1697354504.38,0.01,-0.32,1.12,-4,-0.9,-28.7,0.84,0.03,-0.02,0.55
1697354504.39,-0.05,-0.2,1.05,-3,-0.8,-29,0.84,0.03,-0.02,0.54
1697354504.4,0.01,-0.06,0.72,-0.5,-0.5,-29,0.84,0.03,-0.02,0.54
1697354504.41,0.07,-0.1,1.01,1.2,-0.5,-28.9,0.84,0.03,-0.02,0.54
1697354504.42,0.02,-0.2,1.06,1.5,0,-28.9,0.84,0.03,-0.02,0.54
1697354504.43,-0,-0.24,1.12,-0.3,0,-28.9,0.84,0.03,-0.02,0.53
1697354504.44,0.04,-0.23,1.15,-1.7,0.6,-28.7,0.85,0.03,-0.02,0.53
1697354504.45,0.04,-0.23,1.15,-1.7,0.6,-28.7,0.85,0.03,-0.02,0.53
1697354504.46,0.03,-0.2,0.81,-1.4,0.9,-28.5,0.85,0.03,-0.02,0.53
1697354504.47,0.04,-0.14,0.83,-0.4,0.7,-28.2,0.85,0.03,-0.02,0.53
1697354504.48,0.06,-0.19,0.88,-0.4,0.7,-28.2,0.85,0.03,-0.02,0.53
1697354504.49,0,-0.24,0.83,0.5,0.1,-28.4,0.85,0.03,-0.02,0.52
1697354504.5,0.09,-0.3,1.04,0.5,0.1,-28.4,0.85,0.03,-0.02,0.52
1697354504.51,0.09,-0.3,1.04,0.4,0.2,-28.4,0.85,0.03,-0.02,0.52
1697354504.52,-0.05,-0.19,1.12,-0.5,-0.1,-28.6,0.86,0.03,-0.02,0.52
1697354504.53,-0.05,-0.19,1.12,-1,-0.4,-28.7,0.86,0.03,-0.02,0.51
1697354504.54,0,-0.25,0.94,-0.7,-0.3,-28.9,0.86,0.03,-0.02,0.51
1697354504.55,0,-0.25,0.94,0.6,-0.2,-29,0.86,0.03,-0.02,0.51
1697354504.56,0.01,-0.21,1.02,1.9,-0.3,-29,0.86,0.03,-0.02,0.51
1697354504.57,-0.05,-0.27,1.22,2.2,-0.6,-29.1,0.86,0.03,-0.02,0.51
1697354504.58,-0.01,-0.28,1.09,2.1,-0.4,-29.1,0.86,0.03,-0.02,0.5
1697354504.59,-0.05,-0.21,1.22,1.4,0,-29.1,0.86,0.03,-0.02,0.5
1697354504.6,0.03,-0.23,0.93,1.4,0.1,-29.1,0.87,0.03,-0.02,0.5
1697354504.61,-0.01,-0.22,0.94,0.9,0.6,-29.1,0.87,0.03,-0.02,0.5
1697354504.62,0.06,-0.35,0.83,1.1,0.9,-28.9,0.87,0.03,-0.02,0.49
1697354504.63,0,-0.27,1.13,-0.3,0.7,-29,0.87,0.03,-0.02,0.49
1697354504.64,0.07,-0.21,1.09,-2,0.3,-29.3,0.87,0.03,-0.02,0.49
1697354504.65,0.04,-0.15,1.04,-1.6,-0.3,-29.2,0.87,0.03,-0.02,0.49
1697354504.66,-0.06,-0.16,1.02,-0.7,-0.7,-29.3,0.87,0.03,-0.02,0.49
1697354504.67,0.02,-0.24,0.8,1,-0.9,-29.3,0.87,0.03,-0.02,0.48
1697354504.68,0.02,-0.24,0.8,1,-0.9,-29.3,0.87,0.03,-0.02,0.48
1697354504.69,0.02,-0.24,0.8,1,-0.9,-29.3,0.87,0.03,-0.02,0.48
1697354504.7,0.02,-0.24,0.8,1,-0.9,-29.3,0.87,0.03,-0.02,0.48
1697354504.71,0.02,-0.24,0.8,1,-0.9,-29.3,0.87,0.03,-0.02,0.48
1697354504.72,0.02,-0.24,0.8,1,-0.9,-29.3,0.87,0.03,-0.02,0.48
1697354504.73,0.02,-0.24,0.8,1,-0.9,-29.3,0.87,0.03,-0.02,0.48
1697354504.74,0.02,-0.24,0.8,1,-0.9,-29.3,0.87,0.03,-0.02,0.48
1697354504.75,0.02,-0.24,0.8,1,-0.9,-29.3,0.87,0.03,-0.02,0.48
1697354504.76,0.02,-0.24,0.8,1,-0.9,-29.3,0.87,0.03,-0.02,0.48
1697354504.77,0.02,-0.24,0.8,1,-0.9,-29.3,0.87,0.03,-0.02,0.48
1697354504.78,0.02,-0.24,0.8,1,-0.9,-29.3,0.87,0.03,-0.02,0.48
1697354504.79,0.02,-0.24,0.8,1,-0.9,-29.3,0.87,0.03,-0.02,0.48
1697354504.8,0.02,-0.24,0.8,1,-0.9,-29.3,0.87,0.03,-0.02,0.48
1697354504.81,0.01,-0.26,1,1,-0.9,-29.3,0.87,0.03,-0.02,0.48
1697354504.82,0.08,-0.22,0.77,-0.3,-1.7,-29.4,0.89,0.03,-0.02,0.45
1697354504.83,0.08,-0.22,0.77,-0.1,-1.5,-29.4,0.89,0.03,-0.02,0.45
1697354504.84,-0,-0.23,0.98,0.7,-1,-29.4,0.89,0.03,-0.02,0.45
1697354504.85,0.02,-0.23,0.98,1.4,-0.1,-29.4,0.9,0.03,-0.02,0.44
1697354504.86,0.02,-0.23,0.98,1.2,0.7,-29.3,0.9,0.03,-0.02,0.44
1697354504.87,0.01,-0.25,1.04,1,1,-29.3,0.9,0.03,-0.02,0.44
1697354504.88,-0.02,-0.27,1.21,-0.1,1.5,-29.3,0.9,0.03,-0.02,0.44
1697354504.89,-0.02,-0.14,1.27,0.4,1.3,-29.2,0.9,0.03,-0.02,0.43
1697354504.9,-0.03,-0.2,1.03,1.4,1.2,-29.4,0.9,0.03,-0.02,0.43
1697354504.91,0.01,-0.2,0.89,1.8,1,-29.3,0.9,0.03,-0.02,0.43
1697354504.92,-0.02,-0.3,1.15,1.3,0.9,-29.7,0.9,0.03,-0.02,0.43
1697354504.93,0.05,-0.21,0.97,0.2,1.1,-29.7,0.9,0.03,-0.02,0.43
1697354504.94,0.04,-0.22,1.07,-0.5,1.7,-29.6,0.91,0.03,-0.02,0.42
1697354504.95,0.01,-0.2,1.17,-0.2,1.8,-29.4,0.91,0.03,-0.02,0.42
1697354504.96,-0.03,-0.23,0.93,0.3,1.6,-29.3,0.91,0.03,-0.02,0.42
1697354504.97,-0.01,-0.2,0.89,0.7,1.5,-29,0.91,0.03,-0.02,0.42
1697354504.98,-0,-0.22,0.98,0.7,1.5,-29,0.91,0.03,-0.02,0.42
1697354504.99,0.03,-0.26,0.84,1.4,1.2,-28.9,0.91,0.03,-0.02,0.41
1697354505,-0.03,-0.27,0.9,0.7,1,-29,0.91,0.03,-0.02,0.41
1697354505.01,0.02,-0.25,0.89,0.5,1.1,-29,0.91,0.03,-0.02,0.41
1697354505.02,0.07,-0.28,1.07,-0.2,0.3,-29.2,0.91,0.03,-0.02,0.41
1697354505.03,0.01,-0.23,1.27,-1.2,-0.2,-29.3,0.92,0.03,-0.02,0.4
1697354505.04,-0.01,-0.21,1.05,-1.3,-0.4,-29.2,0.92,0.03,-0.02,0.4
1697354505.05,0,-0.21,1.02,-0.3,-0.7,-29,0.92,0.03,-0.02,0.4
1697354505.06,-0.01,-0.22,1.02,0.6,-0.7,-29,0.92,0.03,-0.02,0.39
1697354505.07,0.03,-0.19,0.97,0.7,-0.5,-28.9,0.92,0.03,-0.02,0.39
1697354505.08,-0.06,-0.22,1.02,0.1,-0.1,-28.7,0.92,0.03,-0.02,0.39
1697354505.09,0.03,-0.18,0.99,-0.8,0.4,-28.7,0.92,0.03,-0.02,0.39
1697354505.1,0.05,-0.17,1.12,-1.3,0.9,-28.6,0.92,0.03,-0.02,0.38
1697354505.11,0.07,-0.13,0.98,-1.4,1.5,-28.4,0.92,0.03,-0.02,0.38
1697354505.12,0.02,-0.14,0.96,0.6,1.9,-27.9,0.92,0.03,-0.02,0.38
1697354505.13,-0.02,-0.19,0.86,0.7,1.7,-27.9,0.93,0.03,-0.02,0.38
1697354505.14,0.04,-0.2,0.89,0.1,1.4,-27.7,0.93,0.03,-0.02,0.37
1697354505.15,0.01,-0.21,1.04,-0.3,1,-27.5,0.93,0.03,-0.02,0.37
1697354505.16,0.04,-0.21,1.08,-0.4,0.3,-27.3,0.93,0.03,-0.02,0.37
1697354505.17,0.07,-0.23,1.05,-0.3,0.1,-27.1,0.93,0.03,-0.02,0.37
1697354505.18,0.07,-0.23,1.05,-0.3,0.1,-27.1,0.93,0.03,-0.02,0.37
1697354505.19,0.1,-0.16,0.84,-0.2,0.2,-27.1,0.93,0.03,-0.02,0.37
1697354505.2,0,-0.15,0.98,0.4,-0.1,-26.8,0.93,0.03,-0.02,0.37
1697354505.21,0,-0.15,0.98,0.4,-0.1,-26.8,0.93,0.03,-0.02,0.37
1697354505.22,0,-0.15,0.98,0.4,-0.1,-26.8,0.93,0.03,-0.02,0.37
1697354505.23,0,-0.15,0.98,0.4,-0.1,-26.8,0.93,0.03,-0.02,0.37
1697354505.24,0,-0.15,0.98,0.4,-0.1,-26.8,0.93,0.03,-0.02,0.37
1697354505.25,0,-0.15,0.98,0.4,-0.1,-26.8,0.93,0.03,-0.02,0.37
1697354505.26,0,-0.15,0.98,0.4,-0.1,-26.8,0.93,0.03,-0.02,0.37
1697354505.27,0,-0.15,0.98,0.4,-0.1,-26.8,0.93,0.03,-0.02,0.37
1697354505.28,0,-0.15,0.98,0.4,-0.1,-26.8,0.93,0.03,-0.02,0.37
1697354505.29,0,-0.15,0.98,0.4,-0.1,-26.8,0.93,0.03,-0.02,0.37
1697354505.3,0,-0.15,0.98,0.4,-0.1,-26.8,0.93,0.03,-0.02,0.37
1697354505.31,0,-0.15,0.98,0.4,-0.1,-26.8,0.93,0.03,-0.02,0.37
1697354505.32,0,-0.15,0.98,0.4,-0.1,-26.8,0.93,0.03,-0.02,0.37
1697354505.33,-0.01,-0.34,1.04,4.2,-5.7,-26.4,0.94,0.03,-0.02,0.34
1697354505.34,0.02,-0.34,1,3.2,-5.8,-27.1,0.94,0.03,-0.02,0.33
1697354505.35,-0.01,-0.26,0.98,3.2,-5.8,-27.1,0.94,0.03,-0.02,0.33
1697354505.36,0.01,-0.25,0.91,-1.2,-3.3,-27.2,0.94,0.03,-0.02,0.33
1697354505.37,-0.02,-0.15,0.96,-1.5,-2,-27.2,0.94,0.03,-0.02,0.33
1697354505.38,-0.04,-0.06,1.01,-0.2,-0.8,-26.8,0.95,0.03,-0.02,0.32
1697354505.39,-0.04,-0.06,1.05,-0.2,-0.8,-26.8,0.95,0.03,-0.02,0.32
1697354505.4,0.04,-0.13,0.87,1.3,1,-26.2,0.95,0.03,-0.02,0.32
1697354505.41,-0.02,-0.19,0.84,0.4,1.4,-26.3,0.95,0.03,-0.02,0.32
1697354505.42,0.03,-0.2,0.76,-0.3,1.5,-26.4,0.95,0.03,-0.02,0.31
1697354505.43,0.03,-0.2,0.76,-0.3,1.5,-26.4,0.95,0.03,-0.02,0.31
1697354505.44,0.08,-0.12,0.92,-1,1.3,-26.6,0.95,0.03,-0.02,0.31
1697354505.45,0.01,-0.17,1.06,-1,1.3,-26.6,0.95,0.03,-0.02,0.31
1697354505.46,0.02,-0.23,1,0.2,1.1,-26.5,0.95,0.03,-0.02,0.31
1697354505.47,0.06,-0.22,1.03,0.2,1.1,-26.5,0.95,0.03,-0.02,0.31
1697354505.48,0.06,-0.22,1.03,0.5,1.1,-26.6,0.95,0.03,-0.02,0.3
1697354505.49,-0.02,-0.22,1.06,0.7,0.9,-26.5,0.95,0.03,-0.02,0.3
1697354505.5,0.04,-0.2,0.95,0,0.7,-26.5,0.95,0.03,-0.02,0.3
1697354505.51,0.03,-0.18,1.04,-0.4,0.7,-26.3,0.95,0.03,-0.02,0.3
1697354505.52,0.05,-0.11,1.02,-0.4,0.8,-26,0.96,0.03,-0.02,0.29
1697354505.53,0.05,-0.11,1.02,0.1,1.2,-25.4,0.96,0.03,-0.02,0.29
1697354505.54,0.05,-0.11,0.94,0.8,1.1,-25.1,0.96,0.03,-0.02,0.29
1697354505.55,-0.03,-0.17,1.21,1,0.9,-24.7,0.96,0.03,-0.02,0.29
1697354505.56,0.03,-0.16,1.02,0.6,0.7,-24.4,0.96,0.03,-0.02,0.29
1697354505.57,0.04,-0.17,0.96,-0.2,0.5,-24.2,0.96,0.03,-0.02,0.28
1697354505.58,0.07,-0.09,0.86,-0.4,0.2,-23.9,0.96,0.03,-0.02,0.28
1697354505.59,0.04,-0.1,0.87,-0.2,0.2,-23.6,0.96,0.03,-0.02,0.28
1697354505.6,0.06,-0.1,0.91,0.5,0.4,-23.3,0.96,0.03,-0.02,0.28
1697354505.61,0.04,-0.15,0.97,1.4,0.8,-23.1,0.96,0.03,-0.02,0.28
1697354505.62,0.02,-0.15,0.9,1.9,1.6,-22.8,0.96,0.03,-0.02,0.27
1697354505.63,0.01,-0.09,1.13,2,2.3,-22.6,0.96,0.03,-0.01,0.27
1697354505.64,-0.03,-0.18,0.91,3.3,3.6,-22.3,0.96,0.03,-0.01,0.27
1697354505.65,-0.02,-0.16,1.09,4.8,4.8,-21.9,0.96,0.03,-0.01,0.27
1697354505.66,0.03,-0.16,0.96,6.1,6.1,-21.4,0.96,0.03,-0.01,0.27
1697354505.67,-0.03,-0.25,1.08,7.6,6.7,-20.9,0.96,0.03,-0.01,0.26
1697354505.68,0.07,-0.26,0.94,6.7,6.8,-20.2,0.96,0.03,-0.01,0.26
1697354505.69,0.07,-0.18,0.97,4.5,6.4,-19.9,0.96,0.03,-0.01,0.26
1697354505.7,0.12,-0.1,1.01,2.8,5.1,-19.2,0.97,0.03,-0.01,0.26
1697354505.71,0.17,0.07,0.89,1.9,3.3,-18.1,0.97,0.03,-0.01,0.26
1697354505.72,0.17,0.07,0.89,1.9,3.3,-18.1,0.97,0.03,-0.01,0.26
1697354505.73,0.17,0.07,0.89,1.9,3.3,-18.1,0.97,0.03,-0.01,0.26
1697354505.74,0.17,0.07,0.89,1.9,3.3,-18.1,0.97,0.03,-0.01,0.26
1697354505.75,0.17,0.07,0.89,1.9,3.3,-18.1,0.97,0.03,-0.01,0.26
1697354505.76,0.17,0.07,0.89,1.9,3.3,-18.1,0.97,0.03,-0.01,0.26
1697354505.77,0.17,0.07,0.89,1.9,3.3,-18.1,0.97,0.03,-0.01,0.26
1697354505.78,0.17,0.07,0.89,1.9,3.3,-18.1,0.97,0.03,-0.01,0.26
1697354505.79,0.17,0.07,0.89,1.9,3.3,-18.1,0.97,0.03,-0.01,0.26
1697354505.8,0.17,0.07,0.89,1.9,3.3,-18.1,0.97,0.03,-0.01,0.26
1697354505.81,0.17,0.07,0.89,1.9,3.3,-18.1,0.97,0.03,-0.01,0.26
1697354505.82,0.17,0.07,0.89,1.9,3.3,-18.1,0.97,0.03,-0.01,0.26
1697354505.83,0.17,0.07,0.89,1.9,3.3,-18.1,0.97,0.03,-0.01,0.26
1697354505.84,0.09,-0.03,1.04,-1.5,0.7,-14,0.97,0.03,-0.01,0.24
1697354505.85,0.09,-0.03,1.04,-1.5,0.7,-14,0.97,0.03,-0.01,0.24
1697354505.86,0.03,-0.09,0.92,-0.2,0.3,-13.3,0.97,0.03,-0.01,0.24
1697354505.87,0.05,-0.07,0.99,0.5,0,-12.7,0.97,0.03,-0.01,0.24
1697354505.88,-0.01,-0.14,1.04,0.6,-0.5,-12.2,0.97,0.03,-0.01,0.24
1697354505.89,-0.01,-0.14,1.04,0,-1,-11.8,0.97,0.03,-0.01,0.24
1697354505.9,0.05,-0.09,0.87,0,-1,-11.8,0.97,0.03,-0.01,0.24
1697354505.91,0.04,-0.09,0.81,-0.7,-0.9,-11.5,0.97,0.03,-0.01,0.23
1697354505.92,-0.03,-0.07,1.06,-0.5,-1,-11.4,0.97,0.03,-0.01,0.23
1697354505.93,0.03,-0.05,0.88,0,-0.9,-11.3,0.97,0.03,-0.01,0.23
1697354505.94,0.14,-0.06,0.79,0.5,-0.5,-11.2,0.97,0.03,-0.01,0.23
1697354505.95,-0.01,-0.08,1.14,1,-0.5,-11.3,0.97,0.03,-0.01,0.23
1697354505.96,0.03,-0.09,1.08,0.9,-0.4,-11.3,0.97,0.03,-0.01,0.23
1697354505.97,0.03,-0.09,0.91,0.2,-0.2,-11.3,0.97,0.03,-0.01,0.23
1697354505.98,0.04,0.01,1.01,-0.7,-0.1,-11.4,0.97,0.03,-0.01,0.23
1697354505.99,0.02,-0.06,0.86,-1.2,-0.1,-11.2,0.97,0.03,-0.01,0.23
1697354506,-0.07,-0.03,1.07,-0.9,0.2,-11.2,0.97,0.03,-0.01,0.23
1697354506.01,-0.01,-0.03,0.99,-0.2,0.2,-10.8,0.97,0.03,-0.01,0.22
1697354506.02,0.06,-0.07,0.84,0.3,0.3,-10.5,0.97,0.03,-0.01,0.22
1697354506.03,0.07,-0.1,0.8,0.6,0.1,-10.5,0.97,0.03,-0.01,0.22
1697354506.04,0.11,-0.17,1.05,1,0,-10.4,0.97,0.03,-0.01,0.22
1697354506.05,0.06,-0.11,1.01,0.6,-0.1,-10.5,0.98,0.03,-0.01,0.22
1697354506.06,0.03,-0.1,1.03,0.1,-0.1,-10.5,0.98,0.03,-0.01,0.22
1697354506.07,0,-0.07,1.01,0.5,-0.4,-10.6,0.98,0.03,-0.01,0.22
1697354506.08,-0.06,-0.11,1.06,0.8,-0.2,-10.6,0.98,0.03,-0.01,0.22
1697354506.09,0.01,-0.11,0.91,1.4,-0.4,-10.8,0.98,0.03,-0.01,0.22
1697354506.1,-0.01,-0.07,0.94,1.4,-0.5,-10.8,0.98,0.03,-0.01,0.22
1697354506.11,-0.01,-0.1,1.13,1.4,-0.6,-10.7,0.98,0.03,-0.01,0.21
1697354506.12,0.05,-0.07,0.94,1.1,-0.8,-10.8,0.98,0.03,-0.01,0.21
1697354506.13,-0.05,-0.09,1.21,0.8,-0.7,-10.6,0.98,0.03,-0.01,0.21
1697354506.14,-0.02,-0.09,1.03,0.6,-0.5,-10.7,0.98,0.03,-0.01,0.21
1697354506.15,0.01,-0.04,1.03,0,-0.2,-10.7,0.98,0.03,-0.01,0.21
1697354506.16,-0,-0.07,1.19,0.1,-0.2,-10.7,0.98,0.03,-0.01,0.21
1697354506.17,-0,-0.1,1.16,0.7,0.4,-10.7,0.98,0.03,-0.01,0.21
1697354506.18,0.07,-0.12,0.96,0.3,1.1,-10.7,0.98,0.03,-0.01,0.21
1697354506.19,0,-0.15,1.07,-0.6,1.8,-10.8,0.98,0.03,-0.01,0.21
1697354506.2,-0.01,-0.07,1.03,-2.6,1.6,-11,0.98,0.03,-0.01,0.21
1697354506.21,0.01,-0.01,0.93,-2.6,1.6,-11,0.98,0.03,-0.01,0.21
1697354506.22,0.01,-0.01,0.93,-1.9,0.9,-10.9,0.98,0.03,-0.01,0.2
1697354506.23,0.01,-0.01,0.93,-1.9,0.9,-10.9,0.98,0.03,-0.01,0.2
1697354506.24,0.01,-0.01,0.93,-1.9,0.9,-10.9,0.98,0.03,-0.01,0.2
1697354506.25,0.01,-0.01,0.93,-1.9,0.9,-10.9,0.98,0.03,-0.01,0.2
1697354506.26,0.01,-0.01,0.93,-1.9,0.9,-10.9,0.98,0.03,-0.01,0.2
1697354506.27,0.01,-0.01,0.93,-1.9,0.9,-10.9,0.98,0.03,-0.01,0.2
1697354506.28,0.01,-0.01,0.93,-1.9,0.9,-10.9,0.98,0.03,-0.01,0.2
1697354506.29,0.01,-0.01,0.93,-1.9,0.9,-10.9,0.98,0.03,-0.01,0.2
1697354506.3,0.01,-0.01,0.93,-1.9,0.9,-10.9,0.98,0.03,-0.01,0.2
1697354506.31,0.01,-0.01,0.93,-1.9,0.9,-10.9,0.98,0.03,-0.01,0.2
1697354506.32,0.01,-0.01,0.93,-1.9,0.9,-10.9,0.98,0.03,-0.01,0.2
1697354506.33,0.01,-0.01,0.93,-1.9,0.9,-10.9,0.98,0.03,-0.01,0.2
1697354506.34,0.01,-0.01,0.93,-1.9,0.9,-10.9,0.98,0.03,-0.01,0.2
1697354506.35,-0.01,-0.12,1.03,-1.3,1.5,-10.3,0.98,0.02,-0.01,0.19
1697354506.36,0.03,0.04,0.99,-0.6,1.7,-10,0.98,0.02,-0.01,0.19
1697354506.37,0.06,0.04,1.02,0.7,1.8,-9.5,0.98,0.02,-0.01,0.19
1697354506.38,0.06,0,1.09,2.5,1.3,-9.4,0.98,0.02,-0.01,0.19
1697354506.39,0.02,-0.04,1.13,3.6,0.7,-9.2,0.98,0.02,-0.01,0.19
1697354506.4,0.03,-0.16,1.08,2.3,0.3,-9.2,0.98,0.02,-0.01,0.19
1697354506.41,-0.02,-0.14,1.04,0.9,0.1,-9.3,0.98,0.02,-0.01,0.19
1697354506.42,0.02,-0.11,0.99,-0.1,0.3,-9.3,0.98,0.02,-0.01,0.19
1697354506.43,0.06,-0.03,1.05,0,0.8,-9.3,0.98,0.02,-0.01,0.19
1697354506.44,0.08,0.04,0.94,0.9,0.8,-8.8,0.98,0.02,-0.01,0.19
1697354506.45,0.05,-0.03,0.83,0.5,0.3,-8.8,0.98,0.02,-0.01,0.18
1697354506.46,0.06,-0.02,1.18,0.1,0,-8.7,0.98,0.02,-0.01,0.18
1697354506.47,0.03,-0.02,0.79,0.4,0,-8.3,0.98,0.02,-0.01,0.18
1697354506.48,0.03,-0.02,0.79,0.4,0,-8.3,0.98,0.02,-0.01,0.18
1697354506.49,-0.06,-0.01,0.92,1.7,0.9,-8,0.98,0.02,-0.01,0.18
1697354506.5,-0.06,-0.01,0.92,1.7,0.9,-8,0.98,0.02,-0.01,0.18
1697354506.51,0.1,-0.14,1.02,2.2,3,-8.1,0.98,0.02,-0.01,0.18
1697354506.52,0.1,-0.14,1.02,2.2,3,-8.1,0.98,0.02,-0.01,0.18
1697354506.53,0.04,-0.03,0.95,0.1,3.1,-8.2,0.98,0.02,-0.01,0.18
1697354506.54,0.04,-0.03,0.95,-0.5,2.7,-8,0.98,0.02,-0.01,0.18
1697354506.55,0.08,0.03,1.12,0,2,-7.5,0.98,0.02,-0.01,0.18
1697354506.56,0.08,0.03,1.12,1.2,1.1,-7.2,0.98,0.02,-0.01,0.18
1697354506.57,0.02,-0,1.04,2.1,0.2,-6.6,0.98,0.02,-0.01,0.18
1697354506.58,0.03,-0.07,1.04,1.2,0,-6.5,0.98,0.02,-0.01,0.18
1697354506.59,0.06,-0.04,0.96,-0.2,0.1,-6.6,0.98,0.02,-0.01,0.18
1697354506.6,0,-0.13,0.93,-1.3,0.3,-6.7,0.98,0.02,-0.01,0.17
1697354506.61,-0.08,0.04,1.17,-1.2,0.5,-6.8,0.98,0.02,-0.01,0.17
1697354506.62,0.06,0.1,0.88,0.3,0.9,-6.8,0.98,0.02,-0.01,0.17
1697354506.63,0.03,0.02,1,0.9,1.1,-6.9,0.98,0.02,-0.01,0.17
1697354506.64,0.02,-0.01,0.7,0,2,-6.8,0.98,0.02,-0.01,0.17
1697354506.65,-0.03,-0.13,0.94,-1.8,2.6,-6.8,0.98,0.02,-0.01,0.17
1697354506.66,0.05,0.01,0.98,-1.8,2.6,-6.8,0.98,0.02,-0.01,0.17
1697354506.67,0.04,0.05,0.99,-1.6,3,-5.8,0.99,0.02,-0.01,0.17
1697354506.68,0.1,0.08,0.98,0,2.3,-5.8,0.99,0.02,-0.01,0.17
1697354506.69,0.1,-0.06,0.97,0.3,1.6,-5.5,0.99,0.02,-0.01,0.17
1697354506.7,0.06,-0.13,1.05,-0.1,0.9,-5.6,0.99,0.02,-0.01,0.17
1697354506.71,0.15,-0.12,0.87,-1.4,0.3,-5.8,0.99,0.02,-0.01,0.17
1697354506.72,0.07,-0.07,1.09,-2,-0.1,-5.9,0.99,0.02,-0.01,0.17
1697354506.73,0.07,0,0.89,-1.4,0.1,-5.6,0.99,0.02,-0.01,0.17
1697354506.74,0.07,0,0.89,-1.4,0.1,-5.6,0.99,0.02,-0.01,0.17
1697354506.75,0.07,0,0.89,-1.4,0.1,-5.6,0.99,0.02,-0.01,0.17
1697354506.76,0.07,0,0.89,-1.4,0.1,-5.6,0.99,0.02,-0.01,0.17
1697354506.77,0.07,0,0.89,-1.4,0.1,-5.6,0.99,0.02,-0.01,0.17
1697354506.78,0.07,0,0.89,-1.4,0.1,-5.6,0.99,0.02,-0.01,0.17
1697354506.79,0.07,0,0.89,-1.4,0.1,-5.6,0.99,0.02,-0.01,0.17
1697354506.8,0.07,0,0.89,-1.4,0.1,-5.6,0.99,0.02,-0.01,0.17
1697354506.81,0.07,0,0.89,-1.4,0.1,-5.6,0.99,0.02,-0.01,0.17
1697354506.82,0.07,0,0.89,-1.4,0.1,-5.6,0.99,0.02,-0.01,0.17
1697354506.83,0.07,0,0.89,-1.4,0.1,-5.6,0.99,0.02,-0.01,0.17
1697354506.84,0.07,0,0.89,-1.4,0.1,-5.6,0.99,0.02,-0.01,0.17
1697354506.85,0.07,0,0.89,-1.4,0.1,-5.6,0.99,0.02,-0.01,0.17
1697354506.86,0.07,0,0.89,-1.4,0.1,-5.6,0.99,0.02,-0,0.16
1697354506.87,0.05,-0.02,1.01,1.7,0,-4.7,0.99,0.02,-0,0.16
1697354506.88,0.03,-0.1,0.9,2.3,-0.6,-4.7,0.99,0.02,-0,0.16
1697354506.89,0.03,-0.14,1.1,-1.3,0,-4.8,0.99,0.02,-0,0.16
1697354506.9,0.03,-0.14,1.1,-1.3,0,-4.8,0.99,0.02,-0,0.16
1697354506.91,0.04,-0.04,1.01,-2.3,0.1,-4.9,0.99,0.02,-0,0.16
1697354506.92,0.14,0.1,0.99,-0.9,0.3,-4.8,0.99,0.02,-0,0.16
1697354506.93,0.1,0.04,1.17,1.2,0.1,-4.7,0.99,0.02,-0,0.16
1697354506.94,0.06,-0.02,0.96,2.9,-0.1,-4.7,0.99,0.02,-0,0.16
1697354506.95,0.08,-0.01,1.12,3.9,-0.5,-4.7,0.99,0.02,-0,0.16
1697354506.96,-0.04,-0.18,1.21,2.4,-0.9,-4.8,0.99,0.02,-0,0.16
1697354506.97,0.01,-0.11,1.08,2.4,-0.9,-4.8,0.99,0.02,-0,0.16
1697354506.98,0.05,-0.13,1,-0.7,-0.9,-4.7,0.99,0.02,-0.01,0.16
1697354506.99,0.07,-0.06,0.86,-1.3,-1.2,-4.8,0.99,0.02,-0.01,0.16
1697354507,0.06,0.07,0.78,-0.9,-1.3,-4.5,0.99,0.02,-0.01,0.16
1697354507.01,0.02,-0.01,0.94,0,-1,-4.5,0.99,0.02,-0.01,0.16
1697354507.02,0.01,0.1,0.93,0.9,-1,-4.2,0.99,0.02,-0.01,0.16
1697354507.03,-0.01,-0.09,1.02,0.9,-1,-4.2,0.99,0.02,-0.01,0.16
1697354507.04,0.03,-0.05,0.9,0.5,-0.1,-4.4,0.99,0.02,-0.01,0.15
1697354507.05,0.03,-0.05,0.9,0.5,-0.1,-4.4,0.99,0.02,-0.01,0.15
1697354507.06,0.08,-0.05,0.91,-0.8,0.2,-4.8,0.99,0.02,-0.01,0.15
1697354507.07,0.08,-0.05,0.91,-0.8,0.2,-4.8,0.99,0.02,-0.01,0.15
1697354507.08,0.04,-0.03,0.88,-1,0,-4.6,0.99,0.02,-0.01,0.15
1697354507.09,0.06,0.04,1.04,-0.7,-0.1,-4.6,0.99,0.02,-0.01,0.15
1697354507.1,0.04,0.01,1.01,0.1,-0.4,-4.6,0.99,0.02,-0.01,0.15
1697354507.11,-0.02,-0.01,1.02,0.2,-0.5,-4.5,0.99,0.02,-0.01,0.15
1697354507.12,0.05,-0.01,0.98,0.2,-1,-4.5,0.99,0.02,-0.01,0.15
1697354507.13,0.05,-0.01,0.97,0,-1.2,-4.6,0.99,0.02,-0.01,0.15
1697354507.14,0.04,-0.04,0.98,0.2,-1.6,-4.6,0.99,0.02,-0.01,0.15
1697354507.15,0.04,-0.03,1.05,0.2,-1.8,-4.7,0.99,0.02,-0.01,0.15
1697354507.16,-0.03,-0.02,1.29,0,-1.7,-4.6,0.99,0.02,-0.01,0.15
1697354507.17,-0.01,-0.03,0.96,0.3,-1.4,-4.7,0.99,0.02,-0.01,0.15
1697354507.18,0.01,-0.01,1,0.1,-1.1,-4.6,0.99,0.02,-0.01,0.15
1697354507.19,0.04,-0.04,0.92,-0.2,-0.5,-4.4,0.99,0.02,-0.01,0.15
1697354507.2,0.06,-0.05,0.86,0,0,-4.5,0.99,0.02,-0.01,0.15
1697354507.21,-0.01,-0.06,1.13,0.2,0.4,-4.5,0.99,0.02,-0.01,0.15
1697354507.22,0.02,-0.04,1.05,0.6,0.9,-4.6,0.99,0.02,-0.01,0.15
1697354507.23,0.04,-0.1,0.97,0.6,0.9,-4.6,0.99,0.02,-0.01,0.15
1697354507.24,-0.01,-0.15,1.14,-1.2,0.5,-5.3,0.99,0.02,-0.01,0.15
1697354507.25,0.01,-0.04,1.19,-1.2,0.5,-5.3,0.99,0.02,-0.01,0.15
1697354507.26,0.01,-0.04,1.19,-1.9,0.3,-5.5,0.99,0.02,-0.01,0.15
1697354507.27,0.01,-0.04,1.19,-1.9,0.3,-5.5,0.99,0.02,-0.01,0.15
1697354507.28,0.01,-0.04,1.19,-1.9,0.3,-5.5,0.99,0.02,-0.01,0.15
1697354507.29,0.01,-0.04,1.19,-1.9,0.3,-5.5,0.99,0.02,-0.01,0.15
1697354507.3,0.01,-0.04,1.19,-1.9,0.3,-5.5,0.99,0.02,-0.01,0.15
1697354507.31,0.01,-0.04,1.19,-1.9,0.3,-5.5,0.99,0.02,-0.01,0.15
1697354507.32,0.01,-0.04,1.19,-1.9,0.3,-5.5,0.99,0.02,-0.01,0.15
1697354507.33,0.01,-0.04,1.19,-1.9,0.3,-5.5,0.99,0.02,-0.01,0.15
1697354507.34,0.01,-0.04,1.19,-1.9,0.3,-5.5,0.99,0.02,-0.01,0.15
1697354507.35,0.01,-0.04,1.19,-1.9,0.3,-5.5,0.99,0.02,-0.01,0.15
1697354507.36,0.01,-0.04,1.19,-1.9,0.3,-5.5,0.99,0.02,-0.01,0.15
1697354507.37,0.01,-0.04,1.19,-1.9,0.3,-5.5,0.99,0.02,-0.01,0.15
1697354507.38,0.01,-0.04,1.19,-1.9,0.3,-5.5,0.99,0.02,-0.01,0.15
1697354507.39,-0,-0.12,1.06,0,-0.6,-5,0.99,0.02,-0.01,0.14
1697354507.4,-0.01,-0.09,0.99,-0.6,-1.2,-5.1,0.99,0.02,-0.01,0.14
1697354507.41,0.01,-0.03,0.81,0,-1,-5,0.99,0.02,-0.01,0.14
1697354507.42,0.01,0.01,1.14,0.4,-0.7,-4.9,0.99,0.02,-0.01,0.14
1697354507.43,0.06,0.01,0.91,0.5,-0.9,-4.6,0.99,0.02,-0.01,0.14
1697354507.44,0.01,-0,1.01,0.5,-0.9,-4.2,0.99,0.02,-0.01,0.14
1697354507.45,0.05,-0.03,1.05,0.7,-1,-4.2,0.99,0.02,-0.01,0.14
1697354507.46,-0,-0.03,0.99,0.5,-0.9,-4.1,0.99,0.02,-0.01,0.14
1697354507.47,-0,-0.07,1.07,0.3,-0.9,-3.9,0.99,0.02,-0.01,0.14
1697354507.48,-0.04,-0.03,1.04,0,-0.3,-4,0.99,0.02,-0.01,0.14
1697354507.49,-0.01,0.05,1.09,1,0.1,-4,0.99,0.02,-0.01,0.14
1697354507.5,-0.01,0.05,1.09,1,0.1,-4,0.99,0.02,-0.01,0.14
1697354507.51,0.04,-0.05,0.93,2.3,0.6,-4.1,0.99,0.02,-0.01,0.14
1697354507.52,0.03,-0.07,1.06,1.9,0.5,-4.2,0.99,0.02,-0.01,0.14
1697354507.53,0.03,-0.07,1.06,1.9,0.5,-4.2,0.99,0.02,-0.01,0.14
1697354507.54,0.05,0.02,0.84,1.1,0,-4.4,0.99,0.02,-0.01,0.13
1697354507.55,0.05,0.02,0.84,1.1,0,-4.4,0.99,0.02,-0.01,0.13
1697354507.56,0.09,-0.03,0.86,0.9,-0.9,-4,0.99,0.02,-0.01,0.13
1697354507.57,0.01,-0.02,0.94,0.9,-0.9,-4,0.99,0.02,-0.01,0.13
1697354507.58,0.06,-0.06,0.86,1.4,-1.5,-3.9,0.99,0.02,-0.01,0.13
1697354507.59,-0.01,-0.03,1.08,1.5,-1.9,-3.8,0.99,0.02,-0.01,0.13
1697354507.6,0.03,-0.02,0.98,1,-2,-3.5,0.99,0.02,-0.01,0.13
1697354507.61,0.01,0.03,0.93,-0.5,-1.9,-3.5,0.99,0.02,-0.01,0.13
1697354507.62,-0.1,-0.04,1.25,-0.4,-1.7,-3.5,0.99,0.02,-0.01,0.13
1697354507.63,-0.01,-0.04,0.87,-0.1,-1.5,-3.5,0.99,0.02,-0.01,0.13
1697354507.64,0.05,-0.01,0.91,0.1,-1.3,-3.6,0.99,0.02,-0.01,0.13
1697354507.65,0.01,-0.05,0.91,-0.6,-0.7,-3.9,0.99,0.02,-0.01,0.13
1697354507.66,-0.02,-0.04,1.02,-2.5,-0.4,-3.8,0.99,0.02,-0.01,0.13
1697354507.67,0.01,0.04,0.96,-3.2,0.3,-4.1,0.99,0.02,-0.01,0.13
1697354507.68,-0.04,0.02,1.14,-3.2,0.3,-4.1,0.99,0.02,-0.01,0.13
1697354507.69,0.01,0.05,1.1,-1.3,0.4,-4.1,0.99,0.02,-0.01,0.13
1697354507.7,0.01,0.05,1.1,-1.3,0.4,-4.1,0.99,0.02,-0.01,0.13
1697354507.71,0.02,-0.05,1.03,-0.4,0.3,-4.1,0.99,0.02,-0.01,0.13
1697354507.72,-0.01,-0.1,0.95,-1.1,0,-4.2,0.99,0.02,-0.01,0.13
1697354507.73,-0.01,-0.09,1.08,-1.6,-0.1,-4.2,0.99,0.02,-0.01,0.13
1697354507.74,0.04,-0.06,1.05,-1.8,-0.5,-4,0.99,0.02,-0.01,0.13
1697354507.75,0.04,-0.06,1.05,-1.8,-0.5,-4,0.99,0.02,-0.01,0.13
1697354507.76,0.03,0.04,1.05,-1.6,-0.2,-4.1,0.99,0.02,-0.01,0.13
1697354507.77,0.03,0.04,1.05,-1.6,-0.2,-4.1,0.99,0.02,-0.01,0.13
1697354507.78,0.03,0.04,1.05,-1.6,-0.2,-4.1,0.99,0.02,-0.01,0.13
1697354507.79,0.03,0.04,1.05,-1.6,-0.2,-4.1,0.99,0.02,-0.01,0.13
1697354507.8,0.03,0.04,1.05,-1.6,-0.2,-4.1,0.99,0.02,-0.01,0.13
1697354507.81,0.03,0.04,1.05,-1.6,-0.2,-4.1,0.99,0.02,-0.01,0.13
1697354507.82,0.03,0.04,1.05,-1.6,-0.2,-4.1,0.99,0.02,-0.01,0.13
1697354507.83,0.03,0.04,1.05,-1.6,-0.2,-4.1,0.99,0.02,-0.01,0.13
1697354507.84,0.03,0.04,1.05,-1.6,-0.2,-4.1,0.99,0.02,-0.01,0.13
1697354507.85,0.03,0.04,1.05,-1.6,-0.2,-4.1,0.99,0.02,-0.01,0.13
1697354507.86,0.03,0.04,1.05,-1.6,-0.2,-4.1,0.99,0.02,-0.01,0.13
1697354507.87,0.03,0.04,1.05,-1.6,-0.2,-4.1,0.99,0.02,-0.01,0.13
1697354507.88,0.03,0.04,1.05,-1.6,-0.2,-4.1,0.99,0.02,-0.01,0.13
1697354507.89,0.03,0.04,1.05,-1.6,-0.2,-4.1,0.99,0.02,-0.01,0.13
1697354507.9,-0.01,0.01,0.86,-2.6,-1.1,-4.2,0.99,0.01,-0.01,0.12
1697354507.91,0.02,0.1,1.03,0,-0.9,-3.7,0.99,0.01,-0.01,0.12
1697354507.92,0,0.05,0.87,2.6,-1.1,-3.8,0.99,0.01,-0.01,0.12
1697354507.93,-0.03,-0.02,1.31,3.9,-0.9,-3.7,0.99,0.01,-0.01,0.12
1697354507.94,-0.01,-0.18,0.97,2,-0.4,-4.1,0.99,0.02,-0.01,0.12
1697354507.95,0.04,-0.17,0.91,-0.4,0.9,-4.4,0.99,0.02,-0.01,0.12
1697354507.96,-0.12,-0.09,1.16,-2.6,1.9,-4.1,0.99,0.01,-0.01,0.12
1697354507.97,0,0.03,0.83,-1.8,2.8,-3.9,0.99,0.01,-0.01,0.12
1697354507.98,0,0.07,0.99,0.6,2.8,-3.8,0.99,0.01,-0.01,0.12
1697354507.99,0.07,0.07,0.98,2.3,2.1,-3.7,0.99,0.01,-0.01,0.12
1697354508,0.1,-0.07,0.86,2.3,0.9,-3.7,0.99,0.02,-0.01,0.12
1697354508.01,0.05,-0.11,1.01,0.4,-0.1,-3.7,0.99,0.02,-0.01,0.12
1697354508.02,0.04,-0.11,0.92,-1.3,-1,-3.8,0.99,0.01,-0.01,0.12
1697354508.03,0.09,0.03,0.94,-2,-1.8,-3.7,0.99,0.01,-0.01,0.12
1697354508.04,-0.03,0.08,1.16,-1.6,-1.9,-3.4,0.99,0.01,-0.01,0.12
1697354508.05,0.07,0.07,1.02,-0.1,-2.1,-3.2,0.99,0.01,-0.01,0.12
1697354508.06,-0.01,0.01,1.02,0.7,-1.7,-3,0.99,0.01,-0.01,0.12
1697354508.07,-0.02,0.01,1.02,0.5,-0.7,-2.9,0.99,0.01,-0.01,0.12
1697354508.08,0.01,-0.05,0.93,-0.7,0.1,-3.2,0.99,0.01,-0.01,0.12
1697354508.09,-0.04,-0.16,0.91,-2,1.2,-3.3,0.99,0.01,-0.01,0.12
1697354508.1,0.01,-0.02,0.96,-2,1.2,-3.3,0.99,0.01,-0.01,0.12
1697354508.11,0.01,0.12,1.04,-0.9,2.2,-2.8,0.99,0.01,-0.01,0.12
1697354508.12,0.04,0.13,1.06,1.3,2.2,-2.4,0.99,0.01,-0.01,0.12
1697354508.13,0.1,0.04,0.85,2.4,1.6,-2.1,0.99,0.01,-0.01,0.12
1697354508.14,-0,-0.12,1.02,1.2,1.2,-2.1,0.99,0.01,-0.01,0.12
1697354508.15,0.03,-0.07,0.94,-1,0.8,-1.8,0.99,0.01,-0.01,0.12
1697354508.16,0.04,-0.06,1.1,-2.4,0.5,-1.8,0.99,0.01,-0.01,0.12
1697354508.17,0.01,0.15,1.06,-2.4,0.5,-1.8,0.99,0.01,-0.01,0.11
1697354508.18,0.01,0.15,1.06,0,0.1,-1.4,0.99,0.01,-0.01,0.11
1697354508.19,0.04,-0.02,0.92,0,0.1,-1.4,0.99,0.01,-0.01,0.11
1697354508.2,0.04,-0.02,0.92,3.2,0,-1.1,0.99,0.01,-0.01,0.11
1697354508.21,0.02,-0.16,0.92,-0.8,-0.1,-1.1,0.99,0.01,-0.01,0.11
1697354508.22,0.02,-0.16,0.92,-0.8,-0.1,-1.1,0.99,0.01,-0.01,0.11
1697354508.23,0.02,-0.09,0.99,-3.1,0.2,-1.5,0.99,0.01,-0.01,0.11
1697354508.24,0.05,0.18,0.93,-2.8,0.5,-1.4,0.99,0.01,-0.01,0.11
1697354508.25,0.05,0.18,0.93,0.3,1.2,-1.1,0.99,0.01,-0.01,0.11
1697354508.26,0.02,-0.05,0.98,3.6,1.7,-1.1,0.99,0.01,-0.01,0.11
1697354508.27,0.02,-0.05,0.98,3.3,2.3,-1.2,0.99,0.01,-0.01,0.11
1697354508.28,0.08,-0.22,1.01,-1.6,2.1,-1.6,0.99,0.01,-0.01,0.11
1697354508.29,0.08,-0.22,1.01,-1.6,2.1,-1.6,0.99,0.01,-0.01,0.11
1697354508.3,0.08,-0.22,1.01,-1.6,2.1,-1.6,0.99,0.01,-0.01,0.11
1697354508.31,0.08,-0.22,1.01,-1.6,2.1,-1.6,0.99,0.01,-0.01,0.11
1697354508.32,0.08,-0.22,1.01,-1.6,2.1,-1.6,0.99,0.01,-0.01,0.11
1697354508.33,0.08,-0.22,1.01,-1.6,2.1,-1.6,0.99,0.01,-0.01,0.11
1697354508.34,0.08,-0.22,1.01,-1.6,2.1,-1.6,0.99,0.01,-0.01,0.11
1697354508.35,0.08,-0.22,1.01,-1.6,2.1,-1.6,0.99,0.01,-0.01,0.11
1697354508.36,0.08,-0.22,1.01,-1.6,2.1,-1.6,0.99,0.01,-0.01,0.11
1697354508.37,0.08,-0.22,1.01,-1.6,2.1,-1.6,0.99,0.01,-0.01,0.11
1697354508.38,0.08,-0.22,1.01,-1.6,2.1,-1.6,0.99,0.01,-0.01,0.11
1697354508.39,0.08,-0.22,1.01,-1.6,2.1,-1.6,0.99,0.01,-0.01,0.11
1697354508.4,0.08,-0.22,1.01,-1.6,2.1,-1.6,0.99,0.01,-0.01,0.11
1697354508.41,-0,-0.06,0.96,0.8,-0.2,0.2,0.99,0.01,-0.01,0.11
1697354508.42,0.04,0.01,1.06,-0.9,0.2,0.2,0.99,0.01,-0.01,0.11
1697354508.43,0.01,0.08,0.99,-2.5,0,0.3,0.99,0.01,-0.01,0.11
1697354508.44,-0.02,0.11,1,-2.4,-0.4,0.5,0.99,0.01,-0.01,0.11
1697354508.45,0.07,0.18,0.92,-1.2,-1.1,1.1,0.99,0.01,-0.01,0.11
1697354508.46,0.03,0.07,1.2,0.7,-1.8,1.8,0.99,0.01,-0.01,0.11
1697354508.47,0.09,0.04,0.94,2.3,-2.9,2.4,0.99,0.01,-0.01,0.11
1697354508.48,0.04,0.01,0.97,2.4,-3.5,3,0.99,0.01,-0.01,0.11
1697354508.49,0.03,-0.04,0.93,1.6,-4.7,3.7,0.99,0.01,-0.01,0.11
1697354508.5,0.03,-0.04,0.93,1.6,-4.7,3.7,0.99,0.01,-0.01,0.11
1697354508.51,-0.01,0.09,1.08,1.3,-4.3,4.5,0.99,0.01,-0.01,0.12
1697354508.52,0.01,0.18,0.96,2.1,-3.7,4.9,0.99,0.01,-0.01,0.12
1697354508.53,-0.06,0.1,1.08,2.8,-2.8,5.2,0.99,0.01,-0.01,0.12
1697354508.54,0.01,0.09,0.94,2.6,-1.8,5.5,0.99,0.01,-0.01,0.12
1697354508.55,0.06,0.09,1.06,2.6,-1.8,5.5,0.99,0.02,-0.01,0.12
1697354508.56,-0,0.04,0.98,0,-1.3,5.7,0.99,0.02,-0.01,0.12
1697354508.57,0.05,0.18,1.01,-0.7,-1.3,6,0.99,0.02,-0.01,0.12
1697354508.58,0.05,0.18,1.01,-0.7,-1.3,6,0.99,0.02,-0.01,0.12
1697354508.59,0.04,0.11,0.89,0.8,-1.8,6.4,0.99,0.02,-0.01,0.12
1697354508.6,0.04,0.11,0.89,0.8,-1.8,6.4,0.99,0.02,-0.01,0.12
1697354508.61,0.02,-0.01,0.96,-0.2,-1.8,6.2,0.99,0.02,-0.01,0.12
1697354508.62,0.02,-0.01,0.96,-0.2,-1.8,6.2,0.99,0.02,-0.01,0.12
1697354508.63,0.09,0.05,0.95,-2.8,-1.8,6.1,0.99,0.02,-0.01,0.12
1697354508.64,0.05,0.11,0.91,-3,-1.8,6,0.99,0.02,-0.01,0.12
1697354508.65,-0,0.12,0.97,-1.4,-1.9,6.1,0.99,0.02,-0.01,0.12
1697354508.66,0.02,0.12,1.07,0,-1.7,6,0.99,0.02,-0.01,0.12
1697354508.67,0.01,0,0.95,0.1,-1.6,6.1,0.99,0.02,-0.01,0.12
1697354508.68,-0,-0.01,1.07,-1.7,-0.3,6,0.99,0.02,-0.01,0.12
1697354508.69,-0.02,0,1.13,-2.5,0,6.2,0.99,0.01,-0.01,0.12
1697354508.7,-0,0.07,1.06,-2.2,0.3,6.4,0.99,0.01,-0.01,0.12
1697354508.71,-0.01,0.1,1.1,-1.3,0.8,6.6,0.99,0.01,-0.01,0.13
1697354508.72,0.02,0.06,1.12,-0.7,0.7,7,0.99,0.01,-0.01,0.13
1697354508.73,0.05,0.03,0.97,-0.4,0.6,7,0.99,0.01,-0.01,0.13
1697354508.74,0.01,0.04,1.03,-0.5,0,6.9,0.99,0.01,-0.01,0.13
1697354508.75,0.05,0.05,0.93,-1.1,-0.6,6.6,0.99,0.01,-0.01,0.13
1697354508.76,0.01,0.04,1.14,-1.4,-0.6,6.5,0.99,0.01,-0.01,0.13
1697354508.77,-0.01,-0.03,0.88,-1.6,-1.7,6.2,0.99,0.01,-0.01,0.13
1697354508.78,0.05,0.07,0.84,-2.2,-1.4,5.6,0.99,0.01,-0.01,0.13
1697354508.79,0.01,0.09,0.88,-1.7,-1.2,5.5,0.99,0.01,-0.01,0.13
1697354508.8,0.01,0.09,0.88,-1.7,-1.2,5.5,0.99,0.01,-0.01,0.13
1697354508.81,0.01,0.09,0.88,-1.7,-1.2,5.5,0.99,0.01,-0.01,0.13
1697354508.82,0.01,0.09,0.88,-1.7,-1.2,5.5,0.99,0.01,-0.01,0.13
1697354508.83,0.01,0.09,0.88,-1.7,-1.2,5.5,0.99,0.01,-0.01,0.13
1697354508.84,0.01,0.09,0.88,-1.7,-1.2,5.5,0.99,0.01,-0.01,0.13
1697354508.85,0.01,0.09,0.88,-1.7,-1.2,5.5,0.99,0.01,-0.01,0.13
1697354508.86,0.01,0.09,0.88,-1.7,-1.2,5.5,0.99,0.01,-0.01,0.13
1697354508.87,0.01,0.09,0.88,-1.7,-1.2,5.5,0.99,0.01,-0.01,0.13
1697354508.88,0.01,0.09,0.88,-1.7,-1.2,5.5,0.99,0.01,-0.01,0.13
1697354508.89,0.01,0.09,0.88,-1.7,-1.2,5.5,0.99,0.01,-0.01,0.13
1697354508.9,0.01,0.09,0.88,-1.7,-1.2,5.5,0.99,0.01,-0.01,0.13
1697354508.91,0.01,0.09,0.88,-1.7,-1.2,5.5,0.99,0.01,-0.01,0.13
1697354508.92,0.01,0.09,0.88,-1.7,-1.2,5.5,0.99,0.01,-0.01,0.13
1697354508.93,0.03,0.11,0.95,0.6,-1.6,9.1,0.99,0.01,-0.01,0.14
1697354508.94,-0,0.08,0.98,0.6,-1.7,9,0.99,0.01,-0.01,0.14
1697354508.95,0.03,0.11,1.04,0,-1.7,8.9,0.99,0.01,-0.01,0.14
1697354508.96,-0.05,0.11,1.15,-0.5,-1.8,8.8,0.99,0.01,-0.01,0.14
1697354508.97,-0.05,0.11,1.15,-0.5,-1.8,8.8,0.99,0.01,-0.01,0.14
1697354508.98,0.04,0.21,0.81,-0.6,-1.6,8.8,0.99,0.01,-0.01,0.14
1697354508.99,-0.03,0.13,0.9,-0.2,-1.1,8.8,0.99,0.01,-0.01,0.14
1697354509,-0.03,0.13,0.9,0.2,-0.7,9.2,0.99,0.02,-0.01,0.14
1697354509.01,-0.05,0.11,1.09,-0.5,-0.4,9.5,0.99,0.02,-0.01,0.14
1697354509.02,-0.04,0.15,1.13,-0.6,-0.2,10.1,0.99,0.02,-0.01,0.15
1697354509.03,-0.04,0.17,1.09,0.1,0.2,10.9,0.99,0.02,-0.01,0.15
1697354509.04,-0.02,0.13,0.97,0.3,0.2,11.4,0.99,0.02,-0.01,0.15
1697354509.05,-0.03,0.15,1.07,0.3,0.4,12.2,0.99,0.02,-0.01,0.15
1697354509.06,-0.02,0.15,1.18,0.3,0.4,12.4,0.99,0.02,-0.01,0.15
1697354509.07,-0.01,0.2,1.11,0.5,0.5,13,0.99,0.02,-0.01,0.15
1697354509.08,0.05,0.16,0.89,0.4,0.2,13.8,0.99,0.02,-0.01,0.15
1697354509.09,0.05,0.18,0.89,0.3,-0.3,14.6,0.99,0.02,-0.01,0.15
1697354509.1,0,0.28,0.88,0.5,-0.8,15.1,0.99,0.02,-0.01,0.15
1697354509.11,0,0.1,0.96,1.7,-0.8,15.8,0.99,0.02,-0.01,0.16
1697354509.12,0.02,0.16,1.1,2,-0.7,15.9,0.99,0.02,-0.01,0.16
1697354509.13,0.02,0.23,0.98,1.6,-0.6,15.9,0.99,0.02,-0.01,0.16
1697354509.14,0.02,0.19,0.92,1,-0.5,16.5,0.99,0.02,-0.01,0.16
1697354509.15,0,0.28,1.01,1,-0.5,16.5,0.99,0.02,-0.01,0.16
1697354509.16,-0.02,0.28,1.11,0.7,-1.2,17.3,0.99,0.02,-0.01,0.16
1697354509.17,0.04,0.25,1.03,0.3,-1.5,17.9,0.99,0.02,-0.01,0.16
1697354509.18,-0.01,0.26,0.84,0.3,-1.3,18.3,0.99,0.02,-0.01,0.17
1697354509.19,-0.01,0.21,0.98,0.1,-1.1,18.8,0.99,0.02,-0.01,0.17
1697354509.2,0.03,0.24,1.01,0.3,-0.7,19.2,0.99,0.02,-0.01,0.17
1697354509.21,-0.01,0.16,1.11,1.1,-0.1,19.2,0.98,0.02,-0.01,0.17
1697354509.22,-0.03,0.07,1.05,1.4,0,19.4,0.98,0.02,-0.01,0.17
1697354509.23,-0,0.09,1,0.6,0.1,18.9,0.98,0.02,-0.01,0.17
1697354509.24,-0.03,0.02,0.93,0.2,0.2,18.6,0.98,0.02,-0.01,0.18
1697354509.25,-0.04,0.15,1.12,-0.5,0.4,18.3,0.98,0.02,-0.01,0.18
1697354509.26,0,0.12,1.07,-1.4,1.2,18.3,0.98,0.02,-0.01,0.18
1697354509.27,0.01,0.16,0.9,-2.3,2.2,18.5,0.98,0.02,-0.01,0.18
1697354509.28,0.02,0.29,0.86,-2.2,3,18.6,0.98,0.02,-0.01,0.18
1697354509.29,-0.07,0.19,1.17,-0.9,2.9,18.7,0.98,0.02,-0.01,0.18
1697354509.3,0.03,0.14,0.88,-0.9,2.9,18.7,0.98,0.02,-0.01,0.18
1697354509.31,0.03,0.14,0.88,-0.9,2.9,18.7,0.98,0.02,-0.01,0.18
1697354509.32,0.03,0.14,0.88,-0.9,2.9,18.7,0.98,0.02,-0.01,0.18
1697354509.33,0.03,0.14,0.88,-0.9,2.9,18.7,0.98,0.02,-0.01,0.18
1697354509.34,0.03,0.14,0.88,-0.9,2.9,18.7,0.98,0.02,-0.01,0.18
1697354509.35,0.03,0.14,0.88,-0.9,2.9,18.7,0.98,0.02,-0.01,0.18
1697354509.36,0.03,0.14,0.88,-0.9,2.9,18.7,0.98,0.02,-0.01,0.18
1697354509.37,0.03,0.14,0.88,-0.9,2.9,18.7,0.98,0.02,-0.01,0.18
1697354509.38,0.03,0.14,0.88,-0.9,2.9,18.7,0.98,0.02,-0.01,0.18
1697354509.39,0.03,0.14,0.88,-0.9,2.9,18.7,0.98,0.02,-0.01,0.18
1697354509.4,0.03,0.14,0.88,-0.9,2.9,18.7,0.98,0.02,-0.01,0.18
1697354509.41,0.03,0.14,0.88,-0.9,2.9,18.7,0.98,0.02,-0.01,0.18
1697354509.42,0.03,0.14,0.88,-0.9,2.9,18.7,0.98,0.02,-0.01,0.18
1697354509.43,0.06,0.3,0.94,-2.1,2.7,18.8,0.98,0.02,-0.01,0.21
1697354509.44,0.02,0.26,1,-0.5,2.3,19.2,0.98,0.02,-0.01,0.21
1697354509.45,0.02,0.18,0.98,1.4,1.7,19.8,0.98,0.02,-0.01,0.21
1697354509.46,0.02,0.18,0.98,1.9,1,20.2,0.98,0.02,-0.01,0.21
1697354509.47,-0.03,0.04,1.11,1.4,0,20.9,0.98,0.02,-0.01,0.21
1697354509.48,-0.01,0.21,1.01,0.5,-0.3,21.2,0.98,0.02,-0.01,0.21
1697354509.49,-0.01,0.34,1.02,-0.4,-0.5,22,0.98,0.02,-0.01,0.22
1697354509.5,-0.01,0.31,0.81,1.6,0.1,23.3,0.98,0.02,-0.01,0.22
1697354509.51,-0.02,0.31,1.1,3.7,0.8,24.3,0.98,0.02,-0.01,0.22
1697354509.52,0.08,0.21,0.76,4.4,1.2,25,0.97,0.02,-0.01,0.22
1697354509.53,-0.05,0.21,1.07,3.2,1.5,25.4,0.97,0.02,-0.01,0.23
1697354509.54,-0.01,0.26,0.93,2,1.6,26,0.97,0.02,-0.01,0.23
1697354509.55,-0.06,0.33,1.06,0.9,1.5,26.6,0.97,0.02,-0.01,0.23
1697354509.56,-0.01,0.34,1.01,1,1.4,27.3,0.97,0.02,-0.01,0.23
1697354509.57,0.01,0.38,0.96,2.2,1.5,28,0.97,0.02,-0.01,0.23
1697354509.58,-0.07,0.25,0.97,2.7,1.7,28.2,0.97,0.02,-0.01,0.24
1697354509.59,0.01,0.29,1.05,2.9,1.7,28.2,0.97,0.02,-0.01,0.24
1697354509.6,0.07,0.15,0.74,2.9,1.7,28.2,0.97,0.02,-0.01,0.24
1697354509.61,-0.01,0.21,1.15,0.9,1.5,27.8,0.97,0.02,-0.01,0.24
1697354509.62,0.11,0.26,0.73,-1,0.9,27.5,0.97,0.02,-0.01,0.24
1697354509.63,0.04,0.32,1.08,-1.2,0.2,27.2,0.97,0.02,-0.01,0.25
1697354509.64,0,0.34,0.97,-0.5,-0.5,26.8,0.97,0.02,-0.01,0.25
1697354509.65,0.01,0.19,0.9,0.8,-0.4,26.5,0.97,0.02,-0.01,0.25
1697354509.66,-0.03,0.18,0.88,0.1,0,26.4,0.97,0.02,-0.01,0.25
1697354509.67,-0.07,0.22,1.05,-0.7,0.3,26.5,0.97,0.02,-0.01,0.26
1697354509.68,-0.02,0.24,0.97,-1.6,0.9,26.8,0.97,0.02,-0.01,0.26
1697354509.69,0.01,0.26,1.05,-1.9,1.7,27.3,0.97,0.02,-0.01,0.26
1697354509.7,-0.01,0.29,1.03,-1.1,2.1,27.5,0.96,0.02,-0.01,0.26
1697354509.71,-0.02,0.23,1.06,-0.6,2.2,28,0.96,0.02,-0.01,0.27
1697354509.72,0.06,0.18,0.95,0.3,1.9,28.3,0.96,0.02,-0.01,0.27
1697354509.73,0.03,0.16,1.24,0.7,1.5,28.3,0.96,0.02,-0.01,0.27
1697354509.74,0.05,0.13,0.85,0,0.6,28.3,0.96,0.02,-0.01,0.27
1697354509.75,-0,0.21,1.15,-1.5,0.2,28,0.96,0.02,-0.01,0.28
1697354509.76,-0.05,0.21,1.04,-2.6,-0.4,27.8,0.96,0.02,-0.01,0.28
1697354509.77,0.04,0.36,1.12,-2.7,-0.7,27.6,0.96,0.02,-0.01,0.28
1697354509.78,0,0.33,0.89,-1.2,-0.7,27.6,0.96,0.02,-0.01,0.28
1697354509.79,-0.03,0.25,1.03,0.4,-0.4,27.4,0.96,0.02,-0.01,0.28
1697354509.8,-0.03,0.25,1.03,0.4,-0.4,27.4,0.96,0.02,-0.01,0.29
1697354509.81,-0,0.19,0.79,0.7,0,27.3,0.96,0.02,-0.01,0.29
1697354509.82,-0,0.19,0.79,0.7,0,27.3,0.96,0.02,-0.01,0.29
1697354509.83,-0,0.19,0.79,0.7,0,27.3,0.96,0.02,-0.01,0.29
1697354509.84,-0,0.19,0.79,0.7,0,27.3,0.96,0.02,-0.01,0.29
1697354509.85,-0,0.19,0.79,0.7,0,27.3,0.96,0.02,-0.01,0.29
1697354509.86,-0,0.19,0.79,0.7,0,27.3,0.96,0.02,-0.01,0.29
1697354509.87,-0,0.19,0.79,0.7,0,27.3,0.96,0.02,-0.01,0.29
1697354509.88,-0,0.19,0.79,0.7,0,27.3,0.96,0.02,-0.01,0.29
1697354509.89,-0,0.19,0.79,0.7,0,27.3,0.96,0.02,-0.01,0.29
1697354509.9,-0,0.19,0.79,0.7,0,27.3,0.96,0.02,-0.01,0.29
1697354509.91,-0,0.19,0.79,0.7,0,27.3,0.96,0.02,-0.01,0.29
1697354509.92,-0,0.19,0.79,0.7,0,27.3,0.96,0.02,-0.01,0.29
1697354509.93,-0,0.19,0.79,0.7,0,27.3,0.96,0.02,-0.01,0.29
1697354509.94,0.01,0.23,0.92,1.7,0.3,28,0.95,0.02,-0.01,0.32
1697354509.95,-0.03,0.25,1.08,1.1,0.3,28,0.95,0.02,-0.01,0.32
1697354509.96,-0,0.29,0.95,0.4,0.1,27.9,0.95,0.02,-0.01,0.32
1697354509.97,0.06,0.4,1.04,0.3,-0.2,27.7,0.94,0.03,-0.01,0.33
1697354509.98,0.01,0.35,1.01,0.6,-0.4,27.9,0.94,0.03,-0.01,0.33
1697354509.99,0.04,0.28,0.76,1.3,-0.5,28,0.94,0.03,-0.01,0.33
1697354510,-0.02,0.27,0.8,2.1,-0.1,28.1,0.94,0.03,-0.01,0.33
1697354510.01,-0.05,0.24,1.03,1.8,0,28.2,0.94,0.03,-0.01,0.34
1697354510.02,-0.05,0.21,1.06,0.7,0.3,28.3,0.94,0.03,-0.01,0.34
1697354510.03,0.01,0.3,1.01,0,0.7,28.9,0.94,0.03,-0.01,0.34
1697354510.04,-0.05,0.29,1.06,0.2,0.7,29.4,0.94,0.03,-0.01,0.34
1697354510.05,-0,0.27,0.95,1.2,0.8,29.9,0.94,0.03,-0.01,0.34
1697354510.06,0.03,0.28,1.14,1.7,1.1,30.3,0.94,0.03,-0.01,0.35
1697354510.07,0.07,0.18,0.93,1.5,1.1,30.6,0.94,0.03,-0.01,0.35
1697354510.08,-0.05,0.16,1.06,0.6,1,30.5,0.94,0.03,-0.01,0.35
1697354510.09,0.03,0.24,0.78,-0.3,1.2,30.4,0.93,0.03,-0.01,0.35
1697354510.1,-0,0.29,0.98,-0.2,0.7,30.3,0.93,0.03,-0.01,0.36
1697354510.11,0.03,0.34,0.96,-0.1,0.5,30.3,0.93,0.03,-0.01,0.36
1697354510.12,0,0.33,0.96,0.6,-0.1,30.4,0.93,0.03,-0.01,0.36
1697354510.13,0.01,0.33,1,1.8,-0.7,30.5,0.93,0.03,-0.01,0.36
1697354510.14,0,0.31,0.92,2.1,-1.2,30.8,0.93,0.03,-0.01,0.37
1697354510.15,-0.03,0.26,0.88,1.8,-1.1,31.2,0.93,0.03,-0.01,0.37
1697354510.16,-0.06,0.31,1.07,0.7,-1,31.6,0.93,0.03,-0.01,0.37
1697354510.17,-0.05,0.35,1.04,-0.3,-0.7,32.3,0.93,0.03,-0.01,0.37
1697354510.18,-0.02,0.38,1.03,-1,-0.5,33.1,0.93,0.03,-0.01,0.38
1697354510.19,-0.07,0.41,0.95,-0.5,0.2,34.1,0.92,0.03,-0.01,0.38
1697354510.2,-0.07,0.41,0.95,-0.5,0.2,34.1,0.92,0.03,-0.01,0.38
1697354510.21,-0.08,0.35,1.16,2.6,1.4,35.4,0.92,0.03,-0.01,0.39
1697354510.22,-0.08,0.35,1.16,2.6,1.4,35.4,0.92,0.03,-0.01,0.39
1697354510.23,-0.03,0.21,1.1,2.9,1.8,35.7,0.92,0.03,-0.01,0.39
1697354510.24,-0.02,0.33,0.98,1.7,1.4,35.6,0.92,0.03,-0.01,0.39
1697354510.25,-0.02,0.33,0.98,1.7,1.4,35.6,0.92,0.03,-0.01,0.39
1697354510.26,-0.02,0.31,0.94,0.9,1.1,35.7,0.92,0.03,-0.01,0.4
1697354510.27,-0.05,0.41,1.08,0.7,0.3,35.8,0.91,0.03,-0.01,0.4
1697354510.28,-0.07,0.38,1.03,1.2,-0.4,35.9,0.91,0.03,-0.01,0.4
1697354510.29,-0.02,0.43,1.07,1.6,-1.1,36.2,0.91,0.03,-0.01,0.41
1697354510.3,0.01,0.38,0.97,1.6,-1.4,36.6,0.91,0.03,-0.01,0.41
1697354510.31,0.01,0.39,0.92,1.5,-1.7,37,0.91,0.03,-0.01,0.41
1697354510.32,-0.07,0.37,1,0.8,-1.9,37.4,0.91,0.03,-0.01,0.41
1697354510.33,-0.1,0.39,1.19,0.1,-1.5,37.8,0.91,0.03,-0.01,0.42
1697354510.34,-0.1,0.39,1.19,0.1,-1.5,37.8,0.91,0.03,-0.01,0.42
1697354510.35,-0.1,0.39,1.19,0.1,-1.5,37.8,0.91,0.03,-0.01,0.42
1697354510.36,-0.1,0.39,1.19,0.1,-1.5,37.8,0.91,0.03,-0.01,0.42
1697354510.37,-0.1,0.39,1.19,0.1,-1.5,37.8,0.91,0.03,-0.01,0.42
1697354510.38,-0.1,0.39,1.19,0.1,-1.5,37.8,0.91,0.03,-0.01,0.42
1697354510.39,-0.1,0.39,1.19,0.1,-1.5,37.8,0.91,0.03,-0.01,0.42
1697354510.4,-0.1,0.39,1.19,0.1,-1.5,37.8,0.91,0.03,-0.01,0.42
1697354510.41,-0.1,0.39,1.19,0.1,-1.5,37.8,0.91,0.03,-0.01,0.42
1697354510.42,-0.1,0.39,1.19,0.1,-1.5,37.8,0.91,0.03,-0.01,0.42
1697354510.43,-0.1,0.39,1.19,0.1,-1.5,37.8,0.91,0.03,-0.01,0.42
1697354510.44,-0.1,0.39,1.19,0.1,-1.5,37.8,0.91,0.03,-0.01,0.42
1697354510.45,-0.1,0.39,1.19,0.1,-1.5,37.8,0.91,0.03,-0.01,0.42
1697354510.46,-0.1,0.39,1.19,0.1,-1.5,37.8,0.91,0.03,-0.01,0.42
1697354510.47,0,0.33,0.88,0.2,-0.2,39.9,0.88,0.03,-0.01,0.47
1697354510.48,-0.05,0.34,1.16,-0.4,-0.1,39.8,0.88,0.03,-0.01,0.47
1697354510.49,-0.03,0.35,1.03,-1.2,0,39.8,0.88,0.03,-0.01,0.47
1697354510.5,-0.02,0.38,0.87,-1.4,0.3,39.9,0.88,0.03,-0.01,0.47
1697354510.51,-0.07,0.38,1.1,-0.8,0.3,40,0.88,0.03,-0.01,0.48
1697354510.52,-0.03,0.35,0.94,0.1,0.4,40.1,0.88,0.03,-0.01,0.48
1697354510.53,-0.07,0.3,1.02,0.3,0.2,40.4,0.87,0.03,-0.01,0.48
1697354510.54,-0.03,0.29,1.05,0.4,0,40.4,0.87,0.03,-0.01,0.48
1697354510.55,0,0.29,1.1,-0.2,-0.2,40.4,0.87,0.03,-0.01,0.49
1697354510.56,0.01,0.31,0.91,-0.3,-0.3,40.5,0.87,0.03,-0.01,0.49
1697354510.57,-0.06,0.36,0.75,0.1,-0.5,40.5,0.87,0.03,-0.01,0.5
1697354510.58,-0.1,0.36,1.22,0.7,-0.5,40.5,0.87,0.03,-0.01,0.5
1697354510.59,-0.03,0.33,0.86,0.7,-0.3,40.6,0.86,0.03,-0.01,0.5
1697354510.6,-0.03,0.33,0.86,0.7,-0.3,40.6,0.86,0.03,-0.01,0.5
1697354510.61,0.03,0.34,0.97,0.6,-0.2,40.6,0.86,0.03,-0.01,0.51
1697354510.62,0,0.35,1.12,0.5,0,40.5,0.86,0.03,-0.01,0.51
1697354510.63,-0.03,0.35,0.96,0.1,0,40.5,0.86,0.03,-0.01,0.51
1697354510.64,-0.01,0.37,1.01,0,-0.3,40.6,0.86,0.03,-0.01,0.52
1697354510.65,-0.06,0.37,1.03,-0.3,-0.3,40.6,0.85,0.03,-0.01,0.52
1697354510.66,-0.03,0.38,0.93,-0.2,-0.6,40.5,0.85,0.03,-0.01,0.52
1697354510.67,0.01,0.36,0.96,0.1,-0.5,40.5,0.85,0.03,-0.01,0.53
1697354510.68,-0.04,0.31,0.82,0.3,-0.4,40.4,0.85,0.03,-0.01,0.53
1697354510.69,-0.09,0.35,1.05,0.3,-0.4,40.2,0.85,0.03,-0.01,0.53
1697354510.7,-0.07,0.35,1.06,0.2,-0.3,40.2,0.84,0.03,-0.01,0.54
1697354510.71,0,0.38,0.93,-0.1,-0.1,40.2,0.84,0.03,-0.01,0.54
1697354510.72,-0.06,0.33,1.03,-0.2,0.1,40.2,0.84,0.03,-0.01,0.54
1697354510.73,0.03,0.31,0.93,0,0.2,40.3,0.84,0.03,-0.01,0.54
1697354510.74,-0.03,0.34,1.05,-0.1,0.3,40.4,0.84,0.03,-0.01,0.55
1697354510.75,-0.04,0.32,1.03,0,0.1,40.4,0.83,0.03,-0.01,0.55
1697354510.76,0.02,0.38,1.05,-0.2,0.1,40.5,0.83,0.03,-0.01,0.55
1697354510.77,0.03,0.32,0.83,0.2,0,40.5,0.83,0.03,-0.01,0.56
1697354510.78,0.01,0.34,1.02,0.6,-0.2,40.5,0.83,0.03,-0.01,0.56
1697354510.79,0,0.34,1.04,0.4,-0.2,40.6,0.83,0.03,-0.01,0.56
1697354510.8,-0.07,0.32,1,0,-0.2,40.5,0.82,0.03,-0.01,0.57
1697354510.81,-0.07,0.35,1.12,-0.2,0.1,40.6,0.82,0.03,-0.01,0.57
1697354510.82,-0.04,0.34,0.95,0,0.4,40.6,0.82,0.03,-0.01,0.57
1697354510.83,0.01,0.39,1.02,0,0.7,40.6,0.82,0.03,-0.01,0.57
1697354510.84,-0.04,0.34,1.06,0,0.8,40.7,0.82,0.03,-0.01,0.58
1697354510.85,-0.04,0.34,1.06,0,0.8,40.7,0.82,0.03,-0.01,0.58
1697354510.86,-0.04,0.34,1.06,0,0.8,40.7,0.82,0.03,-0.01,0.58
1697354510.87,-0.04,0.34,1.06,0,0.8,40.7,0.82,0.03,-0.01,0.58
1697354510.88,-0.04,0.34,1.06,0,0.8,40.7,0.82,0.03,-0.01,0.58
1697354510.89,-0.04,0.34,1.06,0,0.8,40.7,0.82,0.03,-0.01,0.58
1697354510.9,-0.04,0.34,1.06,0,0.8,40.7,0.82,0.03,-0.01,0.58
1697354510.91,-0.04,0.34,1.06,0,0.8,40.7,0.82,0.03,-0.01,0.58
1697354510.92,-0.04,0.34,1.06,0,0.8,40.7,0.82,0.03,-0.01,0.58
1697354510.93,-0.04,0.34,1.06,0,0.8,40.7,0.82,0.03,-0.01,0.58
1697354510.94,-0.04,0.34,1.06,0,0.8,40.7,0.82,0.03,-0.01,0.58
1697354510.95,-0.04,0.34,1.06,0,0.8,40.7,0.82,0.03,-0.01,0.58
1697354510.96,-0.04,0.34,1.06,0,0.8,40.7,0.82,0.03,-0.01,0.58
1697354510.97,-0.04,0.34,1.06,0,0.8,40.7,0.82,0.03,-0.01,0.58
1697354510.98,0.03,0.32,0.98,-0.1,0.4,39.9,0.79,0.03,-0.01,0.62
1697354510.99,-0.02,0.31,0.91,-0.5,0.5,40.1,0.79,0.03,-0.01,0.62
1697354511,-0.01,0.35,0.8,-0.5,0.8,40.2,0.78,0.03,-0.01,0.62
1697354511.01,-0.09,0.34,1.23,-0.2,0.7,40.3,0.78,0.03,-0.01,0.62
1697354511.02,-0,0.35,1.01,0.1,0.9,40.5,0.78,0.03,-0.01,0.63
1697354511.03,-0.05,0.35,0.96,0,0.9,40.7,0.78,0.03,-0.01,0.63
1697354511.04,-0.03,0.29,1.05,0,1.2,40.7,0.77,0.03,-0.01,0.63
1697354511.05,-0.01,0.35,1,0.1,1.3,40.7,0.77,0.03,-0.01,0.64
1697354511.06,-0,0.32,0.89,0.3,1.4,40.7,0.77,0.03,-0.01,0.64
1697354511.07,-0.04,0.39,1.11,0.8,1.2,40.5,0.77,0.03,-0.01,0.64
1697354511.08,-0.03,0.36,1.12,1.2,0.9,40.7,0.76,0.03,-0.01,0.64
1697354511.09,-0.04,0.34,1.11,0.9,0.7,40.5,0.76,0.03,-0.01,0.65
1697354511.1,-0.02,0.32,1.07,0.4,0.2,40.6,0.76,0.03,-0.01,0.65
1697354511.11,0.02,0.35,0.98,-0.3,-0.1,40.5,0.76,0.03,-0.01,0.65
1697354511.12,-0.05,0.36,1.13,-0.3,-0.4,40.6,0.76,0.03,-0.01,0.65
1697354511.13,0.01,0.37,0.99,-0.1,-0.4,40.6,0.75,0.03,-0.01,0.66
1697354511.14,-0.06,0.37,0.9,-0.1,-0.4,40.6,0.75,0.03,-0.01,0.66
1697354511.15,-0.09,0.35,1.1,-0.2,0,40.7,0.75,0.03,-0.01,0.66
1697354511.16,0.01,0.37,0.95,-0.4,0.5,40.8,0.75,0.03,-0.01,0.67
1697354511.17,0.01,0.37,0.95,-0.4,0.5,40.8,0.75,0.03,-0.01,0.67
1697354511.18,0,0.37,0.98,-0.5,1.1,40.8,0.74,0.03,-0.01,0.67
1697354511.19,-0.02,0.35,1,-0.1,1,40.8,0.74,0.03,-0.01,0.67
1697354511.2,-0.01,0.33,0.93,0.6,0.7,40.8,0.74,0.03,-0.01,0.68
1697354511.21,-0.02,0.32,1.02,0.7,0.5,40.8,0.73,0.03,-0.01,0.68
1697354511.22,-0.09,0.28,1.07,0.5,0,40.9,0.73,0.03,-0.01,0.68
1697354511.23,-0.05,0.33,1.07,0,-0.2,40.7,0.73,0.03,-0.01,0.68
1697354511.24,-0.05,0.39,1.07,-0.8,-0.1,40.8,0.73,0.03,-0.01,0.69
1697354511.25,-0.03,0.38,0.89,-0.8,0.1,40.9,0.73,0.03,-0.01,0.69
1697354511.26,-0.05,0.38,0.91,0,0.4,40.8,0.72,0.03,-0.01,0.69
1697354511.27,-0.05,0.38,0.91,0,0.4,40.8,0.72,0.03,-0.01,0.69
1697354511.28,-0.1,0.31,1.06,0.1,0.6,40.9,0.72,0.03,-0.01,0.69
1697354511.29,0.01,0.43,1.09,0.4,0.9,40.8,0.72,0.03,-0.01,0.7
1697354511.3,0.01,0.43,1.09,0.4,0.9,40.8,0.71,0.03,-0.01,0.7
1697354511.31,-0.05,0.29,1.19,0.6,1.1,40.8,0.71,0.03,-0.01,0.7
1697354511.32,0.05,0.32,0.84,0,1.1,40.5,0.71,0.03,-0.01,0.71
1697354511.33,0.05,0.32,0.84,0,1.1,40.5,0.71,0.03,-0.01,0.71
1697354511.34,-0.04,0.38,1.03,0.3,0.8,40.7,0.7,0.03,-0.01,0.71
1697354511.35,-0.06,0.3,1.11,0.3,0.8,40.7,0.7,0.03,-0.01,0.71
1697354511.36,0,0.31,1.01,1.4,0.4,40.4,0.7,0.03,-0.01,0.72
1697354511.37,-0.02,0.27,0.97,0.7,0,40.4,0.7,0.03,-0.01,0.72
1697354511.38,-0.02,0.27,0.97,0.7,0,40.4,0.7,0.03,-0.01,0.72
1697354511.39,-0.02,0.27,0.97,0.7,0,40.4,0.7,0.03,-0.01,0.72
1697354511.4,-0.02,0.27,0.97,0.7,0,40.4,0.7,0.03,-0.01,0.72
1697354511.41,-0.02,0.27,0.97,0.7,0,40.4,0.7,0.03,-0.01,0.72
1697354511.42,-0.02,0.27,0.97,0.7,0,40.4,0.7,0.03,-0.01,0.72
1697354511.43,-0.02,0.27,0.97,0.7,0,40.4,0.7,0.03,-0.01,0.72
1697354511.44,-0.02,0.27,0.97,0.7,0,40.4,0.7,0.03,-0.01,0.72
1697354511.45,-0.02,0.27,0.97,0.7,0,40.4,0.7,0.03,-0.01,0.72
1697354511.46,-0.02,0.27,0.97,0.7,0,40.4,0.7,0.03,-0.01,0.72
1697354511.47,-0.02,0.27,0.97,0.7,0,40.4,0.7,0.03,-0.01,0.72
1697354511.48,-0.02,0.27,0.97,0.7,0,40.4,0.7,0.03,-0.01,0.72
1697354511.49,-0.02,0.27,0.97,0.7,0,40.4,0.7,0.03,-0.01,0.72
1697354511.5,-0.02,0.27,0.97,0.7,0,40.4,0.7,0.03,-0.01,0.72
1697354511.51,-0.02,0.27,0.97,0.7,0,40.4,0.7,0.03,-0.01,0.72
1697354511.52,-0.02,0.27,0.97,0.7,0,40.4,0.7,0.03,-0.01,0.72
1697354511.53,-0.02,0.27,0.97,0.7,0,40.4,0.7,0.03,-0.01,0.72
1697354511.54,-0.02,0.27,0.97,0.7,0,40.4,0.7,0.03,-0.01,0.72
1697354511.55,-0.02,0.27,0.97,0.7,0,40.4,0.7,0.03,-0.01,0.72
1697354511.56,-0.02,0.27,0.97,0.7,0,40.4,0.7,0.03,-0.01,0.72
1697354511.57,-0.02,0.27,0.97,0.7,0,40.4,0.7,0.03,-0.01,0.72
1697354511.58,-0.02,0.27,0.97,0.7,0,40.4,0.7,0.03,-0.01,0.72
1697354511.59,-0.02,0.27,0.97,0.7,0,40.4,0.7,0.03,-0.01,0.72
1697354511.6,-0.02,0.27,0.97,0.7,0,40.4,0.7,0.03,-0.01,0.72
1697354511.61,-0.02,0.27,0.97,0.7,0,40.4,0.7,0.03,-0.01,0.72
1697354511.62,-0.02,0.27,0.97,0.7,0,40.4,0.7,0.03,-0.01,0.72
1697354511.63,-0.02,0.27,0.97,0.7,0,40.4,0.7,0.03,-0.01,0.72
1697354511.64,-0.02,0.27,0.97,0.7,0,40.4,0.7,0.03,-0.01,0.72
1697354511.65,-0.02,0.27,0.97,0.7,0,40.4,0.7,0.03,-0.01,0.72
1697354511.66,-0.02,0.27,0.97,0.7,0,40.4,0.7,0.03,-0.01,0.72
1697354511.67,-0.02,0.27,0.97,0.7,0,40.4,0.7,0.03,-0.01,0.72
1697354511.68,-0.02,0.27,0.97,0.7,0,40.4,0.7,0.03,-0.01,0.72
1697354511.69,-0.02,0.27,0.97,0.7,0,40.4,0.7,0.03,-0.01,0.72
1697354511.7,-0.02,0.27,0.97,0.7,0,40.4,0.7,0.03,-0.01,0.72
1697354511.71,-0.02,0.27,0.97,0.7,0,40.4,0.7,0.03,-0.01,0.72
1697354511.72,-0.02,0.27,0.97,0.7,0,40.4,0.7,0.03,-0.01,0.72
1697354511.73,-0.02,0.27,0.97,0.7,0,40.4,0.7,0.03,-0.01,0.72
1697354511.74,-0.02,0.27,0.97,0.7,0,40.4,0.7,0.03,-0.01,0.72
1697354511.75,-0.02,0.27,0.97,0.7,0,40.4,0.7,0.03,-0.01,0.72
1697354511.76,-0.02,0.27,0.97,0.7,0,40.4,0.7,0.03,-0.01,0.72
1697354511.77,-0.02,0.27,0.97,0.7,0,40.4,0.7,0.03,-0.01,0.72
1697354511.78,-0.02,0.27,0.97,0.7,0,40.4,0.7,0.03,-0.01,0.72
1697354511.79,-0.02,0.27,0.97,0.7,0,40.4,0.7,0.03,-0.01,0.72
1697354511.8,-0.02,0.27,0.97,0.7,0,40.4,0.7,0.03,-0.01,0.72
1697354511.81,-0.02,0.27,0.97,0.7,0,40.4,0.7,0.03,-0.01,0.72
1697354511.82,-0.02,0.27,0.97,0.7,0,40.4,0.7,0.03,-0.01,0.72
1697354511.83,-0.02,0.27,0.97,0.7,0,40.4,0.7,0.03,-0.01,0.72
1697354511.84,-0.02,0.27,0.97,0.7,0,40.4,0.7,0.03,-0.01,0.72
1697354511.85,-0.02,0.27,0.97,0.7,0,40.4,0.7,0.03,-0.01,0.72
1697354511.86,-0.02,0.27,0.97,0.7,0,40.4,0.7,0.03,-0.01,0.72
1697354511.87,-0.02,0.27,0.97,0.7,0,40.4,0.7,0.03,-0.01,0.72
1697354511.88,-0.02,0.27,0.97,0.7,0,40.4,0.7,0.03,-0.01,0.72
1697354511.89,-0.02,0.27,0.97,0.7,0,40.4,0.7,0.03,-0.01,0.72
1697354511.9,-0.02,0.27,0.97,0.7,0,40.4,0.7,0.03,-0.01,0.72
1697354511.91,-0.02,0.27,0.97,0.7,0,40.4,0.7,0.03,-0.01,0.72
1697354511.92,-0.02,0.27,0.97,0.7,0,40.4,0.7,0.03,-0.01,0.72
1697354511.93,-0.02,0.27,0.97,0.7,0,40.4,0.7,0.03,-0.01,0.72
1697354511.94,-0.02,0.27,0.97,0.7,0,40.4,0.7,0.03,-0.01,0.72
1697354511.95,-0.02,0.27,0.97,0.7,0,40.4,0.7,0.03,-0.01,0.72
1697354511.96,-0.02,0.27,0.97,0.7,0,40.4,0.7,0.03,-0.01,0.72
1697354511.97,-0.02,0.27,0.97,0.7,0,40.4,0.7,0.03,-0.01,0.72
1697354511.98,-0.02,0.27,0.97,0.7,0,40.4,0.7,0.03,-0.01,0.72
1697354511.99,-0.02,0.27,0.97,0.7,0,40.4,0.7,0.03,-0.01,0.72
1697354512,-0.02,0.27,0.97,0.7,0,40.4,0.7,0.03,-0.01,0.72
1697354512.01,-0.02,0.27,0.97,0.7,0,40.4,0.7,0.03,-0.01,0.72
1697354512.02,-0.02,0.27,0.97,0.7,0,40.4,0.7,0.03,-0.01,0.72
1697354512.03,-0.02,0.27,0.97,0.7,0,40.4,0.7,0.03,-0.01,0.72
1697354512.04,-0.02,0.27,0.97,0.7,0,40.4,0.7,0.03,-0.01,0.72
1697354512.05,-0.02,0.27,0.97,0.7,0,40.4,0.7,0.03,-0.01,0.72
1697354512.06,0.02,-0.17,1.09,-1.1,1.1,-3.3,0.6,0.02,-0.01,0.8
1697354512.07,-0.03,-0.19,0.99,-1.1,1.1,-3.3,0.6,0.02,-0.01,0.8
1697354512.08,-0,-0.12,1.08,-1.9,0.7,-4.9,0.6,0.02,-0.01,0.8
1697354512.09,0.07,-0.04,0.92,-1.4,0,-5.4,0.6,0.02,-0.01,0.8
1697354512.1,-0.05,-0.21,1.1,-0.5,-0.4,-5.9,0.6,0.02,-0.01,0.8
1697354512.11,0.05,-0.21,0.93,-0.6,-0.8,-6.4,0.6,0.02,-0.01,0.8
1697354512.12,0.03,-0.2,0.95,-0.6,-0.8,-6.4,0.6,0.02,-0.01,0.8
1697354512.13,0.04,-0.14,1.02,-2.3,-0.9,-7.6,0.6,0.02,-0.01,0.8
1697354512.14,-0.02,-0.15,0.99,-2.3,-0.8,-8,0.6,0.02,-0.01,0.8
1697354512.15,0,-0.14,0.99,-2.3,-0.8,-8,0.6,0.02,-0.01,0.8
1697354512.16,0.01,-0.13,0.91,-1.5,-0.4,-9.1,0.6,0.02,-0.01,0.8
1697354512.17,-0.07,-0.16,1.1,-1.5,-0.4,-9.1,0.61,0.02,-0.01,0.8
1697354512.18,0.02,-0.11,1.02,-0.8,0,-10.4,0.61,0.02,-0.01,0.8
1697354512.19,0,-0.16,1.08,-0.8,0,-10.4,0.61,0.02,-0.01,0.79
1697354512.2,0,-0.16,1.08,-0.3,0,-10.9,0.61,0.02,-0.01,0.79
1697354512.21,0.04,-0.12,1.08,0,0,-11.4,0.61,0.02,-0.01,0.79
1697354512.22,0.04,-0.12,1.08,-0.5,-0.4,-11.5,0.61,0.02,-0.01,0.79
1697354512.23,0.06,-0.07,1.07,-1,-0.9,-11.4,0.61,0.02,-0.01,0.79
1697354512.24,-0.02,-0.09,0.98,-0.9,-1,-11.2,0.61,0.02,-0.01,0.79
1697354512.25,-0.02,-0.09,0.98,-0.4,-0.7,-11,0.61,0.02,-0.01,0.79
1697354512.26,0.02,-0.09,1.05,0.1,-0.2,-10.7,0.61,0.02,-0.02,0.79
1697354512.27,0.02,-0.09,1.05,0.3,0.3,-10.4,0.61,0.02,-0.01,0.79
1697354512.28,-0.09,-0.11,1.15,0.5,0.6,-10.4,0.61,0.02,-0.01,0.79
1697354512.29,0.03,-0.13,0.98,0.8,0.4,-10.4,0.61,0.02,-0.01,0.79
1697354512.3,-0.05,-0.12,1.19,0.9,0,-10.5,0.61,0.02,-0.01,0.79
1697354512.31,0.07,-0.14,0.83,0.7,-0.4,-10.6,0.62,0.02,-0.01,0.79
1697354512.32,-0.02,-0.07,0.96,0.2,-0.2,-10.8,0.62,0.02,-0.01,0.79
1697354512.33,-0.01,-0.05,0.89,0.7,-0.5,-10.7,0.62,0.02,-0.01,0.79
1697354512.34,-0.03,-0.07,1.03,0.9,-0.6,-10.8,0.62,0.02,-0.01,0.79
1697354512.35,0.03,-0.12,0.93,1.4,-0.9,-10.8,0.62,0.02,-0.01,0.79
1697354512.36,0.1,-0.12,0.87,1.4,-0.9,-10.8,0.62,0.02,-0.01,0.78
1697354512.37,0,-0.05,0.89,-0.5,-1.2,-10.8,0.62,0.02,-0.02,0.78
1697354512.38,-0.07,-0.05,1.03,-0.5,-1.2,-10.8,0.62,0.02,-0.02,0.78
1697354512.39,-0.02,-0.07,0.94,0.3,-0.8,-10.8,0.62,0.02,-0.02,0.78
1697354512.4,0.01,-0.07,0.86,0.3,-0.8,-10.8,0.62,0.02,-0.02,0.78
1697354512.41,-0.02,-0.1,1.18,0.6,-0.3,-10.8,0.62,0.02,-0.02,0.78
1697354512.42,-0.04,-0.1,0.95,0.4,-0.2,-10.9,0.62,0.02,-0.02,0.78
1697354512.43,-0.04,-0.1,0.95,0.4,-0.2,-10.9,0.62,0.02,-0.02,0.78
1697354512.44,-0.04,-0.1,0.95,0.4,-0.2,-10.9,0.62,0.02,-0.02,0.78
1697354512.45,-0.04,-0.1,0.95,0.4,-0.2,-10.9,0.62,0.02,-0.02,0.78
1697354512.46,-0.04,-0.1,0.95,0.4,-0.2,-10.9,0.62,0.02,-0.02,0.78
1697354512.47,-0.04,-0.1,0.95,0.4,-0.2,-10.9,0.62,0.02,-0.02,0.78
1697354512.48,-0.04,-0.1,0.95,0.4,-0.2,-10.9,0.62,0.02,-0.02,0.78
1697354512.49,-0.04,-0.1,0.95,0.4,-0.2,-10.9,0.62,0.02,-0.02,0.78
1697354512.5,-0.04,-0.1,0.95,0.4,-0.2,-10.9,0.62,0.02,-0.02,0.78
1697354512.51,-0.04,-0.1,0.95,0.4,-0.2,-10.9,0.62,0.02,-0.02,0.78
1697354512.52,-0.04,-0.1,0.95,0.4,-0.2,-10.9,0.62,0.02,-0.02,0.78
1697354512.53,-0.04,-0.1,0.95,0.4,-0.2,-10.9,0.62,0.02,-0.02,0.78
1697354512.54,-0.04,-0.1,0.95,0.4,-0.2,-10.9,0.62,0.02,-0.02,0.78
1697354512.55,-0.04,-0.1,0.95,0.4,-0.2,-10.9,0.62,0.02,-0.02,0.78
1697354512.56,0.03,-0.05,1.01,-2.5,0.6,-12.2,0.64,0.02,-0.02,0.77
1697354512.57,0.03,-0.05,1.01,-1.9,0.8,-12.6,0.64,0.02,-0.02,0.77
1697354512.58,0.01,-0.14,0.96,-0.6,0.8,-13.1,0.64,0.02,-0.02,0.77
1697354512.59,0.01,-0.14,0.96,1.1,0.8,-13.4,0.64,0.02,-0.02,0.77
1697354512.6,-0.03,-0.23,1.17,1.9,0.7,-13.8,0.64,0.02,-0.02,0.77
1697354512.61,-0.03,-0.23,1.17,1.5,0.6,-14.2,0.64,0.02,-0.02,0.77
1697354512.62,0.04,-0.14,0.94,0,0.2,-14.4,0.64,0.02,-0.02,0.77
1697354512.63,0.04,-0.14,0.94,-1.2,0,-14.2,0.64,0.02,-0.02,0.77
1697354512.64,-0.11,-0.1,1.01,-0.6,-0.5,-14.1,0.64,0.02,-0.02,0.77
1697354512.65,-0.11,-0.1,1.01,0.8,-0.7,-13.8,0.64,0.02,-0.02,0.77
1697354512.66,-0.03,-0.21,0.9,2.2,-0.5,-13.4,0.64,0.02,-0.02,0.76
1697354512.67,-0.03,-0.21,0.9,2.2,-0.2,-13.3,0.64,0.02,-0.02,0.76
1697354512.68,-0.01,-0.17,1.03,0.4,0,-13.2,0.65,0.02,-0.02,0.76
1697354512.69,-0.04,-0.13,0.97,0.4,0,-13.2,0.65,0.02,-0.02,0.76
1697354512.7,0.01,-0.08,0.94,-1.1,0.4,-13.3,0.65,0.02,-0.02,0.76
1697354512.71,0.08,-0.05,0.81,-1.5,0.5,-13.3,0.65,0.02,-0.02,0.76
1697354512.72,-0.01,-0.13,1.05,-0.4,0.6,-13.3,0.65,0.02,-0.02,0.76
1697354512.73,-0.03,-0.13,1.05,0.8,0.5,-13.4,0.65,0.02,-0.02,0.76
1697354512.74,-0,-0.17,0.98,1.3,0.2,-13.6,0.65,0.02,-0.02,0.76
1697354512.75,0.03,-0.16,0.8,1.1,0.1,-13.9,0.65,0.02,-0.02,0.76
1697354512.76,-0.02,-0.17,1.14,0.3,0,-14.2,0.65,0.02,-0.02,0.76
1697354512.77,0.01,-0.15,0.88,-0.5,0.1,-14.3,0.65,0.02,-0.02,0.76
1697354512.78,-0.02,-0.09,1.02,-0.8,0.3,-14.3,0.66,0.02,-0.02,0.76
1697354512.79,0.03,-0.06,1.04,0,0.2,-14.1,0.66,0.02,-0.02,0.75
1697354512.8,0.02,-0.19,1.15,1.1,0,-14,0.66,0.02,-0.02,0.75
1697354512.81,0.01,-0.18,1.05,1.5,-0.5,-14.1,0.66,0.02,-0.02,0.75
1697354512.82,0.02,-0.16,0.88,0.3,-0.9,-14.3,0.66,0.02,-0.02,0.75
1697354512.83,-0.03,-0.17,1.12,-1.6,-1.1,-14.3,0.66,0.02,-0.02,0.75
1697354512.84,0.01,-0.09,0.86,-2.6,-1.1,-14.3,0.66,0.02,-0.02,0.75
1697354512.85,-0.01,-0.03,1.09,-1.5,-0.8,-14.4,0.66,0.02,-0.02,0.75
1697354512.86,-0.01,-0.1,0.92,0,-0.4,-14.4,0.66,0.02,-0.02,0.75
1697354512.87,0.06,-0.2,0.78,0.8,-0.1,-14.4,0.66,0.02,-0.02,0.75
1697354512.88,-0.03,-0.19,0.95,0.5,-0.1,-14.6,0.66,0.01,-0.02,0.75
1697354512.89,-0.04,-0.15,1.08,-0.3,0,-14.8,0.66,0.01,-0.02,0.75
1697354512.9,-0.03,-0.16,1.07,-0.3,0,-14.8,0.67,0.01,-0.02,0.75
1697354512.91,0.06,-0.16,0.86,-0.4,0,-15.1,0.67,0.01,-0.02,0.74
1697354512.92,-0,-0.18,0.88,0,0.1,-15.3,0.67,0.01,-0.02,0.74
1697354512.93,-0.04,-0.23,1.03,0.5,0.3,-15.5,0.67,0.01,-0.02,0.74
1697354512.94,0,-0.24,0.9,0,0.3,-16.2,0.67,0.01,-0.02,0.74
1697354512.95,0,-0.24,0.9,0,0.3,-16.2,0.67,0.01,-0.02,0.74
1697354512.96,0,-0.24,0.9,0,0.3,-16.2,0.67,0.01,-0.02,0.74
1697354512.97,0,-0.24,0.9,0,0.3,-16.2,0.67,0.01,-0.02,0.74
1697354512.98,0,-0.24,0.9,0,0.3,-16.2,0.67,0.01,-0.02,0.74
1697354512.99,0,-0.24,0.9,0,0.3,-16.2,0.67,0.01,-0.02,0.74
1697354513,0,-0.24,0.9,0,0.3,-16.2,0.67,0.01,-0.02,0.74
1697354513.01,0,-0.24,0.9,0,0.3,-16.2,0.67,0.01,-0.02,0.74
1697354513.02,0,-0.24,0.9,0,0.3,-16.2,0.67,0.01,-0.02,0.74
1697354513.03,0,-0.24,0.9,0,0.3,-16.2,0.67,0.01,-0.02,0.74
1697354513.04,0,-0.24,0.9,0,0.3,-16.2,0.67,0.01,-0.02,0.74
1697354513.05,0,-0.24,0.9,0,0.3,-16.2,0.67,0.01,-0.02,0.74
1697354513.06,0,-0.24,0.9,0,0.3,-16.2,0.67,0.01,-0.02,0.74
1697354513.07,0,-0.24,0.9,0,0.3,-16.2,0.67,0.01,-0.02,0.74
1697354513.08,-0.01,-0.2,1.06,-0.2,0.8,-18.3,0.69,0.01,-0.02,0.73
1697354513.09,-0.03,-0.18,1.12,-0.6,0.6,-18.7,0.69,0.01,-0.02,0.73
1697354513.1,0.03,-0.2,1.09,-0.5,0.2,-18.8,0.69,0.01,-0.02,0.72
1697354513.11,0.02,-0.17,1.17,-0.6,-0.5,-18.9,0.69,0.01,-0.02,0.72
1697354513.12,0.01,-0.27,1.11,-1,-1,-18.9,0.69,0.01,-0.02,0.72
1697354513.13,-0.09,-0.21,1.19,-1.4,-1.1,-18.9,0.69,0.01,-0.02,0.72
1697354513.14,-0.09,-0.21,1.19,-1.4,-1.1,-18.9,0.69,0.01,-0.02,0.72
1697354513.15,-0.01,-0.27,1.09,0.6,-1.7,-18.9,0.69,0.01,-0.02,0.72
1697354513.16,-0.07,-0.24,0.88,0.5,-1,-19.6,0.7,0.01,-0.02,0.72
1697354513.17,-0.12,-0.17,0.89,-0.6,0.7,-19.3,0.7,0.01,-0.02,0.72
1697354513.18,-0.06,-0.17,1.07,-0.7,1.1,-19.2,0.7,0.01,-0.02,0.72
1697354513.19,-0.01,-0.13,0.95,1.4,2.7,-19.8,0.7,0.01,-0.02,0.71
1697354513.2,0.02,-0.22,1.02,1.4,2.7,-19.8,0.7,0.01,-0.02,0.71
1697354513.21,0.05,-0.33,0.82,2.4,2.2,-20.5,0.7,0.01,-0.02,0.71
1697354513.22,0.05,-0.33,0.82,2.4,2.2,-20.5,0.7,0.01,-0.02,0.71
1697354513.23,0.05,-0.33,0.82,2.4,2.2,-20.5,0.7,0.01,-0.02,0.71
1697354513.24,0.05,-0.33,0.82,2.4,2.2,-20.5,0.7,0.01,-0.02,0.71
1697354513.25,0.05,-0.33,0.82,2.4,2.2,-20.5,0.7,0.01,-0.02,0.71
1697354513.26,0.05,-0.33,0.82,2.4,2.2,-20.5,0.7,0.01,-0.02,0.71
1697354513.27,0.05,-0.33,0.82,2.4,2.2,-20.5,0.7,0.01,-0.02,0.71
1697354513.28,0.05,-0.33,0.82,2.4,2.2,-20.5,0.7,0.01,-0.02,0.71
1697354513.29,0.05,-0.33,0.82,2.4,2.2,-20.5,0.7,0.01,-0.02,0.71
1697354513.3,-0.05,-0.3,1,0.8,-1.7,-21.2,0.71,0.01,-0.02,0.7
1697354513.31,-0.03,-0.21,1.01,-1.4,-0.9,-21.5,0.71,0.01,-0.02,0.7
1697354513.32,-0.03,-0.21,1.01,-1.4,-0.9,-21.5,0.72,0.01,-0.02,0.7
1697354513.33,-0.04,-0.19,1.01,-1.3,-0.3,-21.7,0.72,0.01,-0.02,0.7
1697354513.34,0.01,-0.25,1,0.3,1.1,-22,0.72,0.01,-0.02,0.7
1697354513.35,0.01,-0.25,1,0.3,1.1,-22,0.72,0.01,-0.02,0.69
1697354513.36,0.01,-0.24,0.97,-0.5,1.5,-22.4,0.72,0.01,-0.02,0.69
1697354513.37,0.01,-0.24,0.97,-0.5,1.5,-22.4,0.72,0.01,-0.02,0.69
1697354513.38,-0.03,-0.21,1.07,-1.6,1.1,-22.2,0.72,0.01,-0.02,0.69
1697354513.39,0.05,-0.18,1.11,-1.7,0.3,-22.5,0.73,0.01,-0.02,0.69
1697354513.4,0.07,-0.17,1.08,-1.1,-0.5,-22.4,0.73,0.01,-0.02,0.69
1697354513.41,0.13,-0.22,0.91,0,-1.4,-22.2,0.73,0.01,-0.02,0.68
1697354513.42,0.11,-0.24,0.85,0.3,-2.1,-22.2,0.73,0.01,-0.02,0.68
1697354513.43,-0.07,-0.18,1.08,-0.1,-2.3,-22.3,0.73,0.01,-0.02,0.68
1697354513.44,-0.09,-0.25,1.15,-0.8,-1.3,-22.1,0.73,0.01,-0.02,0.68
1697354513.45,0.01,-0.19,1.1,0.1,-0.4,-22.2,0.73,0.01,-0.02,0.68
1697354513.46,-0.03,-0.26,1.12,0.3,0.3,-22.2,0.73,0.01,-0.02,0.68
1697354513.47,0.03,-0.26,0.91,-0.4,0.4,-22.3,0.73,0.01,-0.02,0.68
1697354513.48,-0,-0.19,0.95,-0.7,0.6,-22.4,0.74,0.01,-0.02,0.67
1697354513.49,-0.01,-0.2,0.98,0.7,0.6,-22.2,0.74,0.01,-0.02,0.67
1697354513.5,0.03,-0.18,0.9,2,0.2,-22.3,0.74,0.01,-0.02,0.67
1697354513.51,-0.03,-0.27,0.91,1.4,0.1,-22.4,0.74,0.01,-0.02,0.67
1697354513.52,0.06,-0.25,0.87,0,-0.2,-22.6,0.74,0.01,-0.02,0.67
1697354513.53,-0.07,-0.24,1.22,-2.2,-0.7,-22.6,0.74,0.01,-0.02,0.67
1697354513.54,0.08,-0.15,0.87,-2.2,-1.5,-22.5,0.74,0.01,-0.02,0.67
1697354513.55,0,-0.1,0.98,0,-1.8,-22.6,0.75,0.01,-0.02,0.67
1697354513.56,0.03,-0.18,0.92,1.7,-1.8,-22.4,0.75,0.01,-0.02,0.66
1697354513.57,-0.05,-0.25,1.08,2.3,-1.3,-22.5,0.75,0.01,-0.02,0.66
1697354513.58,0.03,-0.24,0.99,1.9,-0.5,-22.6,0.75,0.01,-0.02,0.66
1697354513.59,0.03,-0.26,0.95,0.9,0.3,-22.5,0.75,0.01,-0.02,0.66
1697354513.6,0.03,-0.2,1.04,0.2,1,-22.7,0.75,0.01,-0.02,0.66
1697354513.61,-0.02,-0.2,1.21,1,1.5,-22.6,0.75,0.01,-0.02,0.66
1697354513.62,0.05,-0.23,1,1.8,1.6,-22.5,0.75,0.01,-0.02,0.66
1697354513.63,0.05,-0.36,0.73,1.3,1.2,-22.8,0.76,0.01,-0.02,0.65
1697354513.64,0.03,-0.21,0.8,-1.1,1.5,-23.2,0.76,0.01,-0.02,0.65
1697354513.65,0.03,-0.12,1.02,-2.5,1.5,-22.7,0.76,0.01,-0.02,0.65
1697354513.66,-0.02,-0.14,1.05,-2.2,1.1,-22.5,0.76,0.01,-0.02,0.65
1697354513.67,0.17,-0.09,0.94,-0.4,0.3,-22.8,0.76,0.01,-0.02,0.65
1697354513.68,0.07,-0.22,0.9,1,-0.6,-22.8,0.76,0.01,-0.02,0.64
1697354513.69,0.07,-0.22,0.9,1,-0.6,-22.8,0.76,0.01,-0.02,0.64
1697354513.7,0.07,-0.22,0.9,1,-0.6,-22.8,0.76,0.01,-0.02,0.64
1697354513.71,0.07,-0.22,0.9,1,-0.6,-22.8,0.76,0.01,-0.02,0.64
1697354513.72,0.07,-0.22,0.9,1,-0.6,-22.8,0.76,0.01,-0.02,0.64
1697354513.73,0.07,-0.22,0.9,1,-0.6,-22.8,0.76,0.01,-0.02,0.64
1697354513.74,0.07,-0.22,0.9,1,-0.6,-22.8,0.76,0.01,-0.02,0.64
1697354513.75,0.07,-0.22,0.9,1,-0.6,-22.8,0.76,0.01,-0.02,0.64
1697354513.76,0.07,-0.22,0.9,1,-0.6,-22.8,0.76,0.01,-0.02,0.64
1697354513.77,0.07,-0.22,0.9,1,-0.6,-22.8,0.76,0.01,-0.02,0.64
1697354513.78,0.07,-0.22,0.9,1,-0.6,-22.8,0.76,0.01,-0.02,0.64
1697354513.79,0.07,-0.22,0.9,1,-0.6,-22.8,0.76,0.01,-0.02,0.64
1697354513.8,0.07,-0.22,0.9,1,-0.6,-22.8,0.76,0.01,-0.02,0.64
1697354513.81,0.07,-0.22,0.9,1,-0.6,-22.8,0.76,0.01,-0.02,0.64
1697354513.82,0.02,-0.19,0.79,2.5,-0.3,-22.2,0.78,0.01,-0.02,0.62
1697354513.83,0.02,-0.19,0.79,2.5,-0.3,-22.2,0.78,0.01,-0.02,0.62
1697354513.84,0.09,-0.26,0.77,1.5,-0.5,-22.2,0.78,0.01,-0.02,0.62
1697354513.85,-0.01,-0.23,0.97,1.5,-0.5,-22.2,0.78,0.01,-0.02,0.62
1697354513.86,-0.02,-0.09,1.13,-1.7,0.2,-21.9,0.79,0.01,-0.02,0.62
1697354513.87,-0.02,-0.09,1.13,-1.7,0.2,-21.9,0.79,0.01,-0.02,0.62
1697354513.88,-0.05,-0.09,1.1,0.2,1.2,-21.9,0.79,0.01,-0.02,0.61
1697354513.89,-0.03,-0.08,1.03,0.2,1.2,-21.9,0.79,0.01,-0.02,0.61
1697354513.9,-0.03,-0.08,1.03,1.9,1.9,-21.8,0.79,0.01,-0.02,0.61
1697354513.91,0.07,-0.33,0.95,2.6,2.2,-21.7,0.79,0.01,-0.02,0.61
1697354513.92,0.07,-0.33,0.95,2.7,2.3,-21.8,0.79,0.01,-0.02,0.61
1697354513.93,0.06,-0.21,1.02,0.1,1.8,-22,0.79,0.01,-0.02,0.61
1697354513.94,0.06,-0.21,1.02,-2.5,0.8,-22.1,0.8,0.01,-0.02,0.61
1697354513.95,0.04,-0.04,1.02,-3,-0.2,-21.8,0.8,0.01,-0.02,0.6
1697354513.96,0.05,-0.1,1.06,-0.3,-1.4,-21.4,0.8,0.01,-0.02,0.6
1697354513.97,0.03,-0.28,0.86,1.5,-2.3,-21.1,0.8,0.01,-0.02,0.6
1697354513.98,0.03,-0.28,0.86,2,-2.6,-21,0.8,0.01,-0.02,0.6
1697354513.99,0.05,-0.24,0.96,0.4,-2,-20.9,0.8,0.01,-0.02,0.6
1697354514,-0.05,-0.21,0.83,-2,-0.8,-20.9,0.8,0.01,-0.02,0.6
1697354514.01,0.02,-0.07,1.04,-2.2,0.1,-20.9,0.8,0.01,-0.02,0.6
1697354514.02,-0.02,-0.1,1.14,-0.4,0.6,-20.5,0.8,0.01,-0.02,0.6
1697354514.03,0.01,-0.12,1.02,1.4,1.2,-20.4,0.81,0.01,-0.02,0.59
1697354514.04,0.06,-0.21,1.03,1.9,1.2,-20.5,0.81,0.01,-0.02,0.59
1697354514.05,0.01,-0.28,1,1,1.2,-20.7,0.81,0.01,-0.02,0.59
1697354514.06,0.07,-0.18,1.13,-1.2,1.2,-21,0.81,0.01,-0.02,0.59
1697354514.07,0.06,-0.11,0.87,-1.4,0.5,-21.1,0.81,0.01,-0.02,0.59
1697354514.08,0.03,-0.16,0.94,-0.7,0,-20.9,0.81,0.01,-0.02,0.59
1697354514.09,0.04,-0.13,0.99,0.6,-0.2,-20.9,0.81,0.01,-0.02,0.58
1697354514.1,0.09,-0.2,0.88,0.8,-0.4,-20.8,0.81,0.01,-0.02,0.58
1697354514.11,0.03,-0.21,1.01,0.1,-0.6,-20.4,0.81,0.01,-0.02,0.58
1697354514.12,0.01,-0.18,0.99,-0.6,-0.9,-20.2,0.81,0.01,-0.02,0.58
1697354514.13,-0,-0.16,0.93,-0.2,-1.5,-19.8,0.82,0.01,-0.02,0.58
1697354514.14,0.03,-0.11,0.79,0.7,-1.7,-19.3,0.82,0.01,-0.02,0.58
1697354514.15,0.06,-0.17,1.02,1.3,-1.5,-19,0.82,0.01,-0.02,0.57
1697354514.16,0.06,-0.2,0.73,1,-0.9,-18.6,0.82,0.01,-0.02,0.57
1697354514.17,0.06,-0.2,0.73,1,-0.9,-18.6,0.82,0.01,-0.02,0.57
1697354514.18,-0.01,-0.19,1.01,-1.1,-0.1,-18.5,0.82,0.01,-0.02,0.57
1697354514.19,0.02,-0.12,0.99,-1.4,0.3,-18.1,0.82,0.01,-0.02,0.57
1697354514.2,0.01,-0.01,1.05,-1.4,0.3,-18.1,0.82,0.01,-0.02,0.57
1697354514.21,0.01,-0.01,1.05,-0.2,1,-17.7,0.82,0.01,-0.02,0.57
1697354514.22,0.01,-0.01,1.05,-0.2,1,-17.7,0.82,0.01,-0.02,0.57
1697354514.23,0.01,-0.01,1.05,-0.2,1,-17.7,0.82,0.01,-0.02,0.57
1697354514.24,0.01,-0.01,1.05,-0.2,1,-17.7,0.82,0.01,-0.02,0.57
1697354514.25,0.01,-0.01,1.05,-0.2,1,-17.7,0.82,0.01,-0.02,0.57
1697354514.26,0.01,-0.01,1.05,-0.2,1,-17.7,0.82,0.01,-0.02,0.57
1697354514.27,0.01,-0.01,1.05,-0.2,1,-17.7,0.82,0.01,-0.02,0.57
1697354514.28,0.01,-0.01,1.05,-0.2,1,-17.7,0.82,0.01,-0.02,0.57
1697354514.29,0.01,-0.01,1.05,-0.2,1,-17.7,0.82,0.01,-0.02,0.57
1697354514.3,0.01,-0.01,1.05,-0.2,1,-17.7,0.82,0.01,-0.02,0.57
1697354514.31,0.01,-0.01,1.05,-0.2,1,-17.7,0.82,0.01,-0.02,0.57
1697354514.32,0.01,-0.01,1.05,-0.2,1,-17.7,0.82,0.01,-0.02,0.57
1697354514.33,0.01,-0.01,1.05,-0.2,1,-17.7,0.82,0.01,-0.02,0.57
1697354514.34,0.01,-0.01,1.05,-0.2,1,-17.7,0.82,0.01,-0.02,0.57
1697354514.35,-0.05,-0.04,1.23,0.8,0.1,-12.2,0.83,0.01,-0.02,0.55
1697354514.36,0.05,-0.04,0.86,1,0.1,-11.6,0.83,0.01,-0.02,0.55
1697354514.37,0.02,-0.05,1.03,1.2,0.7,-11.1,0.83,0.01,-0.02,0.55
1697354514.38,0.1,-0.04,0.96,1.4,0.8,-10.5,0.84,0.01,-0.02,0.55
1697354514.39,0.03,-0.05,0.99,1.4,0.6,-10,0.84,0.01,-0.02,0.55
1697354514.4,0.06,-0.01,0.95,0.3,0.6,-9.5,0.84,0.01,-0.02,0.55
1697354514.41,0.01,0.06,0.91,-0.2,0.8,-8.9,0.84,0.01,-0.02,0.55
1697354514.42,0.01,0.06,0.91,-0.2,0.8,-8.9,0.84,0.01,-0.02,0.55
1697354514.43,-0.01,0.07,1.11,-0.4,1,-8.2,0.84,0.01,-0.02,0.55
1697354514.44,0.04,-0.03,1.07,1,1.1,-7.5,0.84,0.01,-0.02,0.55
1697354514.45,0.01,-0.07,1.23,1.8,0.8,-7,0.84,0.01,-0.02,0.55
1697354514.46,0.01,-0.07,1.23,1.8,0.8,-7,0.84,0.01,-0.02,0.55
1697354514.47,0.05,0.07,1.15,-1,0.7,-6.6,0.84,0.01,-0.02,0.54
1697354514.48,0.05,0.07,1.15,-1.9,0.9,-6.3,0.84,0.01,-0.02,0.54
1697354514.49,0.07,0.08,0.89,-1.6,1,-5.9,0.84,0.01,-0.02,0.54
1697354514.5,-0.04,-0.01,1.09,0,1.1,-5.5,0.84,0.01,-0.02,0.54
1697354514.51,0,-0.09,1.01,1.2,0.9,-5.3,0.84,0.01,-0.02,0.54
1697354514.52,0.04,-0.08,0.87,1.7,0.6,-5,0.84,0.01,-0.02,0.54
1697354514.53,0.01,-0.09,1.04,1.7,0.6,-5,0.84,0.01,-0.02,0.54
1697354514.54,0.04,-0.01,0.92,-0.3,0,-4.8,0.84,0.01,-0.02,0.54
1697354514.55,0.03,0.03,0.95,-0.3,0,-4.8,0.84,0.01,-0.02,0.54
1697354514.56,0.03,0.03,0.95,-2.3,-0.2,-4.3,0.84,0.01,-0.02,0.54
1697354514.57,0.01,0.06,0.83,-2.3,-0.2,-4.3,0.84,0.01,-0.02,0.54
1697354514.58,0.02,0.03,0.9,-1.9,0,-3.9,0.84,0.01,-0.02,0.54
1697354514.59,-0.01,0.02,1.12,-0.6,0.4,-3.5,0.84,0.01,-0.02,0.54
1697354514.6,0.1,-0.04,0.77,0,0.6,-2.9,0.84,0.01,-0.02,0.54
1697354514.61,0.03,-0.04,1.06,-0.2,0.8,-2.9,0.84,0.01,-0.02,0.54
1697354514.62,0.04,-0,0.93,-1.3,0.6,-3,0.84,0.01,-0.02,0.54
1697354514.63,0.03,-0.04,1.07,-1.3,0.6,-3,0.84,0.01,-0.02,0.54
1697354514.64,0.04,-0.02,1,-0.7,0.4,-3.2,0.84,0.01,-0.02,0.54
1697354514.65,0.04,-0.01,0.96,0,0.3,-3.4,0.84,0.01,-0.02,0.54
1697354514.66,0.03,0.05,1.07,0.5,0.2,-3.5,0.84,0.01,-0.02,0.54
1697354514.67,0.07,-0.03,0.97,1.3,0,-3.4,0.84,0.01,-0.02,0.54
1697354514.68,0.01,-0.09,1.03,1.7,0,-3.2,0.84,0.01,-0.02,0.54
1697354514.69,-0.03,-0.04,1,0.9,-0.6,-3,0.84,0.01,-0.02,0.54
1697354514.7,-0.01,-0.01,1.17,-1.1,-1.1,-2.1,0.84,0.01,-0.02,0.54
1697354514.71,0.04,0.08,0.91,0.1,-1.3,-1.7,0.84,0.01,-0.02,0.54
1697354514.72,-0,0.07,1.07,1.8,-1.3,-1.3,0.84,0.01,-0.02,0.54
1697354514.73,0.07,-0.03,0.91,2.4,-1.1,-1,0.84,0.01,-0.02,0.54
1697354514.74,-0.01,-0.1,0.9,1.7,-1,-0.9,0.84,0.01,-0.02,0.54
1697354514.75,-0.01,-0.1,0.9,1.7,-1,-0.9,0.84,0.01,-0.02,0.54
1697354514.76,-0.01,-0.1,0.9,1.7,-1,-0.9,0.84,0.01,-0.02,0.54
1697354514.77,-0.01,-0.1,0.9,1.7,-1,-0.9,0.84,0.01,-0.02,0.54
1697354514.78,-0.01,-0.1,0.9,1.7,-1,-0.9,0.84,0.01,-0.02,0.54
1697354514.79,-0.01,-0.1,0.9,1.7,-1,-0.9,0.84,0.01,-0.02,0.54
1697354514.8,-0.01,-0.1,0.9,1.7,-1,-0.9,0.84,0.01,-0.02,0.54
1697354514.81,-0.01,-0.1,0.9,1.7,-1,-0.9,0.84,0.01,-0.02,0.54
1697354514.82,-0.01,-0.1,0.9,1.7,-1,-0.9,0.84,0.01,-0.02,0.54
1697354514.83,-0.01,-0.1,0.9,1.7,-1,-0.9,0.84,0.01,-0.02,0.54
1697354514.84,-0.01,-0.1,0.9,1.7,-1,-0.9,0.84,0.01,-0.02,0.54
1697354514.85,-0.01,-0.1,0.9,1.7,-1,-0.9,0.84,0.01,-0.02,0.54
1697354514.86,-0.01,-0.1,0.9,1.7,-1,-0.9,0.84,0.01,-0.02,0.54
1697354514.87,-0.01,-0.1,0.9,1.7,-1,-0.9,0.84,0.01,-0.02,0.54
1697354514.88,-0.01,-0.1,0.9,1.7,-1,-0.9,0.84,0.01,-0.02,0.54
1697354514.89,-0.02,0.02,1.17,-0.3,-1.4,1.3,0.84,0.01,-0.02,0.54
1697354514.9,-0.06,0.03,1.11,-0.5,-1.2,1.4,0.84,0.01,-0.02,0.54
1697354514.91,-0.01,0.02,0.99,-0.5,-0.8,1.3,0.84,0.01,-0.02,0.54
1697354514.92,0.02,0.07,1,0,-0.5,1.4,0.84,0.01,-0.02,0.54
1697354514.93,0.04,0.03,0.99,-0.2,0,1.6,0.84,0.01,-0.02,0.54
1697354514.94,0.04,0.03,0.99,-0.5,0.1,1.6,0.84,0.01,-0.02,0.54
1697354514.95,0.06,0.09,0.94,0,0.2,2,0.84,0.01,-0.02,0.54
1697354514.96,0.02,0.09,1.17,1.1,0.2,2.4,0.84,0.01,-0.02,0.54
1697354514.97,0.02,0.03,1.04,1.9,0.1,2.8,0.84,0.01,-0.02,0.54
1697354514.98,-0.01,0.01,1.05,1.4,0.1,2.9,0.84,0.01,-0.02,0.54
1697354514.99,0.08,-0.03,1.04,0.1,0,3.2,0.84,0.01,-0.02,0.54
1697354515,0,0.01,0.95,-0.6,0.4,3.5,0.84,0.01,-0.02,0.54
1697354515.01,0.04,0.08,1.14,0,0.2,3.7,0.84,0.01,-0.02,0.54
1697354515.02,-0.02,0.13,0.97,1.1,0.2,3.8,0.84,0.01,-0.02,0.54
1697354515.03,0,0.11,1.12,1.7,0,4,0.84,0.01,-0.02,0.54
1697354515.04,0.12,0.06,0.88,1.3,-0.5,4,0.84,0.01,-0.02,0.54
1697354515.05,0.02,0.03,1.08,1.3,-0.5,4,0.84,0.01,-0.02,0.54
1697354515.06,-0.01,0.04,1.01,0.4,-1,3.9,0.84,0.01,-0.02,0.54
1697354515.07,0.04,0.07,0.83,-0.6,-1.1,3.8,0.84,0.01,-0.02,0.54
1697354515.08,0.04,0.1,0.81,-1,-0.9,3.9,0.84,0.01,-0.02,0.54
1697354515.09,-0.03,0.09,1.07,-0.8,-0.7,4.1,0.84,0.01,-0.02,0.54
1697354515.1,0.02,0.14,0.97,-0.3,-0.4,4.2,0.84,0.01,-0.02,0.54
1697354515.11,-0.01,0.05,0.88,0,0.1,4.2,0.84,0.01,-0.02,0.54
1697354515.12,-0.01,0.06,1.02,0,0.7,4.3,0.84,0.01,-0.02,0.54
1697354515.13,-0.01,0.03,1.16,-0.2,1,4.5,0.84,0.01,-0.02,0.54
1697354515.14,0.05,-0.01,1.04,-0.9,1,4.6,0.84,0.01,-0.02,0.54
1697354515.15,-0.04,0.02,1.05,-1.7,0.7,4.9,0.84,0.01,-0.02,0.54
1697354515.16,0.04,0.11,1.09,-0.9,0.4,5.2,0.84,0.01,-0.02,0.54
1697354515.17,0.04,0.11,1.09,-0.9,0.4,5.2,0.84,0.01,-0.02,0.54
1697354515.18,0.04,0.07,1.05,0.8,-0.6,5.4,0.84,0.01,-0.02,0.54
1697354515.19,0.03,0.02,1.08,0.9,-1.2,5.4,0.84,0.01,-0.02,0.55
1697354515.2,-0.02,-0.03,0.98,0.7,-1,5.3,0.84,0.01,-0.02,0.55
1697354515.21,0,0,0.88,0,-0.6,5.1,0.84,0.01,-0.02,0.55
1697354515.22,0,0,0.88,0,-0.6,5.1,0.84,0.01,-0.02,0.55
1697354515.23,-0.04,0.07,1.02,1.1,0.1,4.9,0.84,0.01,-0.02,0.55
1697354515.24,-0.04,0.07,1.02,1.1,0.1,4.9,0.84,0.01,-0.02,0.55
1697354515.25,0.03,-0.02,1.14,1.6,0.5,4.9,0.84,0.01,-0.02,0.55
1697354515.26,0.07,0.01,0.9,1.6,0.5,4.9,0.84,0.01,-0.02,0.55
1697354515.27,0.07,0.01,0.9,0.5,0.2,4.9,0.84,0.01,-0.02,0.55
1697354515.28,0.1,0.04,1.02,0.5,0.2,4.9,0.84,0.01,-0.02,0.55
1697354515.29,0.1,0.04,1.02,0.5,0.2,4.9,0.84,0.01,-0.02,0.55
1697354515.3,0.1,0.04,1.02,0.5,0.2,4.9,0.84,0.01,-0.02,0.55
1697354515.31,0.1,0.04,1.02,0.5,0.2,4.9,0.84,0.01,-0.02,0.55
1697354515.32,0.1,0.04,1.02,0.5,0.2,4.9,0.84,0.01,-0.02,0.55
1697354515.33,0.1,0.04,1.02,0.5,0.2,4.9,0.84,0.01,-0.02,0.55
1697354515.34,0.1,0.04,1.02,0.5,0.2,4.9,0.84,0.01,-0.02,0.55
1697354515.35,0.1,0.04,1.02,0.5,0.2,4.9,0.84,0.01,-0.02,0.55
1697354515.36,0.1,0.04,1.02,0.5,0.2,4.9,0.84,0.01,-0.02,0.55
1697354515.37,0.1,0.04,1.02,0.5,0.2,4.9,0.84,0.01,-0.02,0.55
1697354515.38,0.1,0.04,1.02,0.5,0.2,4.9,0.84,0.01,-0.02,0.55
1697354515.39,0.1,0.04,1.02,0.5,0.2,4.9,0.84,0.01,-0.02,0.55
1697354515.4,0.1,0.04,1.02,0.5,0.2,4.9,0.83,0.01,-0.02,0.55
1697354515.41,0.06,0.11,0.98,-1.1,0,6.2,0.83,0.01,-0.02,0.55
1697354515.42,0.1,0.11,0.89,-1.2,-0.2,6.6,0.83,0.01,-0.02,0.55
1697354515.43,0.04,0.14,0.87,-0.4,-0.4,6.7,0.83,0.01,-0.02,0.55
1697354515.44,-0.01,0.1,1.19,0,-0.6,6.8,0.83,0.01,-0.02,0.55
1697354515.45,0.02,0.04,0.92,0,-0.5,6.8,0.83,0.01,-0.02,0.56
1697354515.46,-0.05,0.01,1.02,0,-0.5,6.7,0.83,0.01,-0.02,0.56
1697354515.47,-0.05,0.01,1.02,0,-0.5,6.7,0.83,0.01,-0.02,0.56
1697354515.48,0.03,0.04,1.06,-0.5,0,6.7,0.83,0.01,-0.02,0.56
1697354515.49,0.03,0.04,1.06,-0.5,0,6.7,0.83,0.01,-0.02,0.56
1697354515.5,0.02,0.04,1.01,1,0,6.3,0.83,0.01,-0.02,0.56
1697354515.51,0.02,0.04,1.01,1,0,6.3,0.83,0.01,-0.02,0.56
1697354515.52,0.05,0.06,1.05,1.5,-0.4,6.2,0.83,0.01,-0.02,0.56
1697354515.53,0.05,0.06,1.05,1.7,-0.8,6.1,0.83,0.01,-0.02,0.56
1697354515.54,-0.03,-0.03,1.13,1.3,-0.9,6.3,0.83,0.01,-0.02,0.56
1697354515.55,-0.03,-0.03,1.13,0.7,-0.5,6.3,0.83,0.01,-0.02,0.56
1697354515.56,-0.02,0.06,1.02,-0.1,-0.5,6.6,0.83,0.01,-0.02,0.56
1697354515.57,-0.02,0.06,1.02,-0.7,-0.6,6.7,0.83,0.01,-0.02,0.56
1697354515.58,0.04,0.1,1.17,-1,-0.6,7,0.83,0.01,-0.02,0.56
1697354515.59,0.01,0.15,1.1,-0.9,-0.9,7.3,0.83,0.01,-0.02,0.56
1697354515.6,0.06,0.14,1.02,0,-1.1,7.3,0.83,0.01,-0.02,0.56
1697354515.61,0.03,0.05,1,0.9,-1.3,7.3,0.83,0.01,-0.02,0.56
1697354515.62,0.02,0.01,0.97,1.2,-1.6,7.2,0.83,0.01,-0.02,0.56
1697354515.63,-0.01,-0,1.01,0.2,-1.4,6.9,0.83,0.01,-0.02,0.56
1697354515.64,0.08,0.1,0.89,-0.6,-1.1,6.6,0.83,0.01,-0.02,0.56
1697354515.65,0,0.11,0.89,-0.4,-0.8,6.4,0.82,0.01,-0.02,0.57
1697354515.66,0.01,0.1,0.97,0.4,-0.4,6.6,0.82,0.01,-0.02,0.57
1697354515.67,-0.03,0.07,1.12,0.2,0.3,6.9,0.82,0.01,-0.02,0.57
1697354515.68,0.02,0.02,0.96,-0.4,0.6,7,0.82,0.01,-0.02,0.57
1697354515.69,0.01,0.08,0.93,-1.3,0.1,7.3,0.82,0.01,-0.02,0.57
1697354515.7,0.08,0.15,0.99,-1,-0.2,7.6,0.82,0.01,-0.02,0.57
1697354515.71,0.08,0.17,0.88,-0.9,-0.2,7.7,0.82,0.01,-0.02,0.57
1697354515.72,0.03,0.08,0.99,0.2,-0.4,8.2,0.82,0.01,-0.02,0.57
1697354515.73,0.08,0.08,0.95,0.4,-0.3,8.1,0.82,0.01,-0.02,0.57
1697354515.74,-0.02,0.02,1.04,-0.3,-0.4,8,0.82,0.01,-0.02,0.57
1697354515.75,-0.04,0.06,1.08,-0.5,-0.4,8,0.82,0.01,-0.02,0.57
1697354515.76,0,0.07,0.96,-1.1,0,7.9,0.82,0.01,-0.02,0.57
1697354515.77,0.08,0.08,0.82,-0.7,0,7.8,0.82,0.01,-0.02,0.57
1697354515.78,-0.02,0.05,1.01,-0.3,0.4,7.7,0.82,0.01,-0.02,0.57
1697354515.79,0.04,0.1,1.07,-0.3,0.4,7.7,0.82,0.01,-0.02,0.57
1697354515.8,0.04,0.1,1.07,-0.2,0.2,7.7,0.82,0.01,-0.02,0.57
1697354515.81,0.04,0.1,1.07,-0.2,0.2,7.7,0.82,0.01,-0.02,0.57
1697354515.82,0.04,0.1,1.07,-0.2,0.2,7.7,0.82,0.01,-0.02,0.57
1697354515.83,0.04,0.1,1.07,-0.2,0.2,7.7,0.82,0.01,-0.02,0.57
1697354515.84,0.04,0.1,1.07,-0.2,0.2,7.7,0.82,0.01,-0.02,0.57
1697354515.85,0.04,0.1,1.07,-0.2,0.2,7.7,0.82,0.01,-0.02,0.57
1697354515.86,0.04,0.1,1.07,-0.2,0.2,7.7,0.82,0.01,-0.02,0.57
1697354515.87,0.04,0.1,1.07,-0.2,0.2,7.7,0.82,0.01,-0.02,0.57
1697354515.88,0.04,0.1,1.07,-0.2,0.2,7.7,0.82,0.01,-0.02,0.57
1697354515.89,0.04,0.1,1.07,-0.2,0.2,7.7,0.82,0.01,-0.02,0.57
1697354515.9,0.04,0.1,1.07,-0.2,0.2,7.7,0.82,0.01,-0.02,0.57
1697354515.91,0.04,0.1,1.07,-0.2,0.2,7.7,0.82,0.01,-0.02,0.57
1697354515.92,0.04,0.1,1.07,-0.2,0.2,7.7,0.82,0.01,-0.02,0.57
1697354515.93,0.09,0.11,0.8,0.7,1.2,7.8,0.81,0.01,-0.01,0.58
1697354515.94,0.08,0.11,0.76,1,1,7.8,0.81,0.01,-0.01,0.58
1697354515.95,0.07,0.08,0.92,1,1,7.8,0.81,0.01,-0.01,0.58
1697354515.96,-0.01,0.03,1.01,0.8,1,7.7,0.81,0.01,-0.01,0.58
1697354515.97,0.03,0.03,0.98,0.4,0.7,7.5,0.81,0.01,-0.01,0.58
1697354515.98,0.02,0.06,0.91,-0.1,0.6,7.5,0.81,0.01,-0.01,0.58
1697354515.99,-0.02,0.09,1.14,-0.3,0,7.4,0.81,0.01,-0.01,0.58
1697354516,0.05,0.11,1.14,-0.2,-0.3,7.3,0.81,0.01,-0.01,0.58
1697354516.01,-0.12,0,1.21,0,-0.6,7.1,0.81,0.01,-0.01,0.58
1697354516.02,0.09,0.04,0.89,-0.2,-0.7,7.1,0.81,0.01,-0.01,0.59
1697354516.03,-0.03,0.02,1.05,-1.7,-0.6,6.8,0.81,0.01,-0.01,0.59
1697354516.04,-0.06,0.05,1.1,-2.7,-0.6,6.7,0.81,0.01,-0.02,0.59
1697354516.05,-0.01,0.18,1.07,-2.7,-0.3,6.7,0.81,0.01,-0.02,0.59
1697354516.06,-0,0.1,0.98,-1.6,-0.3,7,0.81,0.01,-0.02,0.59
1697354516.07,-0.06,0.07,1.31,-0.2,-0.4,6.9,0.81,0.01,-0.02,0.59
1697354516.08,-0.06,0.07,1.31,-0.2,-0.4,6.9,0.81,0.01,-0.02,0.59
1697354516.09,0.01,-0.03,0.97,0.3,-1,7.1,0.81,0.01,-0.02,0.59
1697354516.1,-0.07,0.06,1.01,-0.7,-1.4,7,0.81,0.01,-0.02,0.59
1697354516.11,-0.07,0.06,1.01,-0.7,-1.4,7,0.81,0.01,-0.02,0.59
1697354516.12,0.02,0.06,1.06,-0.9,-0.7,7.2,0.81,0.01,-0.02,0.59
1697354516.13,-0.07,0.09,1.18,1.2,0.2,7.3,0.81,0.01,-0.02,0.59
1697354516.14,-0.07,0.09,1.18,1.2,0.2,7.3,0.81,0.01,-0.02,0.59
1697354516.15,-0.01,-0.02,1.01,1.9,0.4,7.3,0.81,0.01,-0.02,0.59
1697354516.16,-0.01,-0.02,1.01,1.9,0.4,7.3,0.81,0.01,-0.02,0.59
1697354516.17,0.04,0.04,0.99,1.2,0,7.2,0.81,0.01,-0.02,0.59
1697354516.18,0.04,0.04,0.99,0.6,-0.4,7.4,0.8,0.01,-0.02,0.59
1697354516.19,0.05,0.17,0.93,0.3,-0.8,7.5,0.8,0.01,-0.02,0.59
1697354516.2,0.05,0.17,0.93,0,-1,7.5,0.8,0.01,-0.02,0.59
1697354516.21,0.03,0.12,0.96,1.1,-0.9,7.6,0.8,0.01,-0.02,0.59
1697354516.22,0.06,0.11,0.91,1.7,-1,7.7,0.8,0.01,-0.02,0.6
1697354516.23,0.03,0.06,1.1,1.7,-1.1,7.6,0.8,0.01,-0.02,0.6
1697354516.24,0.09,0.04,0.83,1.2,-1.3,7.5,0.8,0.01,-0.02,0.6
1697354516.25,0.05,0.05,0.97,0.1,-1.6,7.3,0.8,0.01,-0.02,0.6
1697354516.26,-0.02,0.09,1.04,-0.2,-1.8,7.1,0.8,0.01,-0.02,0.6
1697354516.27,0,0.16,0.85,0,-1.7,7.3,0.8,0.01,-0.02,0.6
1697354516.28,-0.03,0.08,1.08,0.7,-1.4,7.5,0.8,0.01,-0.02,0.6
1697354516.29,-0.12,0.04,1.03,1.7,-1,7.4,0.8,0.01,-0.02,0.6
1697354516.3,-0.06,-0.03,1.02,-2.9,0.4,7.7,0.8,0.01,-0.02,0.6
1697354516.31,-0.02,0.03,1.22,-4.5,1,7.6,0.8,0.01,-0.02,0.6
1697354516.32,0,0.24,1.05,-3.3,1.2,8.1,0.8,0.01,-0.02,0.6
1697354516.33,0,0.24,1.05,-3.3,1.2,8.1,0.8,0.01,-0.02,0.6
1697354516.34,0,0.24,1.05,-3.3,1.2,8.1,0.8,0.01,-0.02,0.6
1697354516.35,0,0.24,1.05,-3.3,1.2,8.1,0.8,0.01,-0.02,0.6
1697354516.36,0,0.24,1.05,-3.3,1.2,8.1,0.8,0.01,-0.02,0.6
1697354516.37,0,0.24,1.05,-3.3,1.2,8.1,0.8,0.01,-0.02,0.6
1697354516.38,0,0.24,1.05,-3.3,1.2,8.1,0.8,0.01,-0.02,0.6
1697354516.39,0,0.24,1.05,-3.3,1.2,8.1,0.8,0.01,-0.02,0.6
1697354516.4,0,0.24,1.05,-3.3,1.2,8.1,0.8,0.01,-0.02,0.6
1697354516.41,0,0.24,1.05,-3.3,1.2,8.1,0.8,0.01,-0.02,0.6
1697354516.42,0,0.24,1.05,-3.3,1.2,8.1,0.8,0.01,-0.02,0.6
1697354516.43,0,0.24,1.05,-3.3,1.2,8.1,0.8,0.01,-0.02,0.6
1697354516.44,0,0.24,1.05,-3.3,1.2,8.1,0.8,0.01,-0.02,0.6
1697354516.45,0,0.24,1.05,-3.3,1.2,8.1,0.8,0.01,-0.02,0.6
1697354516.46,0,0.24,1.05,-3.3,1.2,8.1,0.8,0.01,-0.02,0.6
1697354516.47,0,0.24,1.05,-3.3,1.2,8.1,0.8,0.01,-0.02,0.6
1697354516.48,0,0.24,1.05,-3.3,1.2,8.1,0.8,0.01,-0.02,0.6
1697354516.49,0,0.24,1.05,-3.3,1.2,8.1,0.8,0.01,-0.02,0.6
1697354516.5,0,0.24,1.05,-3.3,1.2,8.1,0.8,0.01,-0.02,0.6
1697354516.51,0,0.24,1.05,-3.3,1.2,8.1,0.8,0.01,-0.02,0.6
1697354516.52,0,0.24,1.05,-3.3,1.2,8.1,0.8,0.01,-0.02,0.6
1697354516.53,0,0.24,1.05,-3.3,1.2,8.1,0.8,0.01,-0.02,0.6
1697354516.54,0,0.24,1.05,-3.3,1.2,8.1,0.8,0.01,-0.02,0.6
1697354516.55,0,0.24,1.05,-3.3,1.2,8.1,0.8,0.01,-0.02,0.6
1697354516.56,0,0.24,1.05,-3.3,1.2,8.1,0.8,0.01,-0.02,0.6
1697354516.57,0,0.24,1.05,-3.3,1.2,8.1,0.8,0.01,-0.02,0.6
1697354516.58,0,0.24,1.05,-3.3,1.2,8.1,0.8,0.01,-0.02,0.6
1697354516.59,0,0.24,1.05,-3.3,1.2,8.1,0.8,0.01,-0.02,0.6
1697354516.6,-0.04,0.14,1.1,-0.4,-0.2,7.4,0.79,0.01,-0.02,0.62
1697354516.61,0.01,0.03,0.93,0,0.3,7.4,0.79,0.01,-0.02,0.62
1697354516.62,-0.1,-0,1.21,0,0.3,7.5,0.79,0.01,-0.02,0.62
1697354516.63,-0.01,0.06,1.16,-0.9,0.9,7.5,0.79,0.01,-0.02,0.62
1697354516.64,0.01,0.02,0.99,-1.2,1.2,7.5,0.79,0.01,-0.02,0.62
1697354516.65,0.03,0.09,1.13,-1.2,0.9,7.6,0.79,0.01,-0.02,0.62
1697354516.66,0.11,0.07,0.94,-0.2,0.6,7.8,0.79,0.01,-0.02,0.62
1697354516.67,0.1,0.08,0.93,0.7,0.1,7.7,0.78,0.01,-0.02,0.62
1697354516.68,0.09,0.14,0.89,0.9,-0.5,7.6,0.78,0.01,-0.02,0.62
1697354516.69,0.11,-0.01,0.96,0.5,-1.5,7.4,0.78,0.01,-0.02,0.62
1697354516.7,-0.01,0.1,1.05,0.2,-2,7.5,0.78,0.01,-0.02,0.62
1697354516.71,-0.03,0.1,1.08,0.2,-2,7.5,0.78,0.01,-0.02,0.62
1697354516.72,0.03,0.1,0.92,1.9,-1.1,7.3,0.78,0.01,-0.02,0.62
1697354516.73,0.03,0.1,0.92,1.9,-1.1,7.3,0.78,0.01,-0.02,0.62
1697354516.74,0.02,-0.03,0.83,2.5,-0.4,7.3,0.78,0.01,-0.01,0.62
1697354516.75,-0.05,-0.06,0.97,1.1,0.5,7.2,0.78,0.01,-0.01,0.62
1697354516.76,-0,0.05,1.03,-1,1.7,6.8,0.78,0.01,-0.01,0.62
1697354516.77,0.05,0.08,0.97,-1,1.7,6.8,0.78,0.01,-0.01,0.62
1697354516.78,0.05,0.13,0.95,-0.1,1.6,7.1,0.78,0.01,-0.01,0.63
1697354516.79,0.05,0.13,0.95,-0.1,1.6,7.1,0.78,0.01,-0.01,0.63
1697354516.8,0.07,0,0.92,0.2,0,7.1,0.78,0.01,-0.01,0.63
1697354516.81,0.05,0.03,1,-0.9,-0.5,7,0.78,0.01,-0.01,0.63
1697354516.82,0.05,0.03,1,-0.9,-0.5,7,0.78,0.01,-0.01,0.63
1697354516.83,-0,0.02,0.93,-2.1,-1,6.5,0.78,0.01,-0.01,0.63
1697354516.84,-0,0.02,0.93,-2.1,-1,6.5,0.78,0.01,-0.01,0.63
1697354516.85,0.03,0.08,1.03,-0.7,-0.8,6,0.78,0.01,-0.01,0.63
1697354516.86,0.02,0.07,0.92,-0.1,-0.8,5.9,0.78,0.01,-0.01,0.63
1697354516.87,0.02,0.07,0.92,-0.1,-0.8,5.9,0.78,0.01,-0.01,0.63
1697354516.88,0.03,-0.02,1.13,-0.4,-0.7,5.3,0.78,0.01,-0.01,0.63
1697354516.89,0.01,-0.04,1.08,-0.4,-0.7,5.3,0.78,0.01,-0.01,0.63
1697354516.9,0.04,0.06,0.92,-1.9,0.1,5.4,0.78,0.01,-0.01,0.63
1697354516.91,-0.01,0.05,1.12,-1.7,0.1,5.3,0.78,0.01,-0.01,0.63
1697354516.92,-0.05,0.09,1.23,-0.8,0,5.5,0.78,0.01,-0.01,0.63
1697354516.93,-0.04,0.06,1.21,0,0.1,5.9,0.78,0.01,-0.01,0.63
1697354516.94,0.07,0.07,0.99,1.3,-0.1,6.1,0.78,0.01,-0.01,0.63
1697354516.95,-0.06,-0.01,1.14,1.8,-0.4,6.1,0.77,0.01,-0.01,0.63
1697354516.96,0.04,0.01,1.19,1.4,-0.7,6,0.77,0.01,-0.01,0.63
1697354516.97,0.07,-0.05,0.9,0.7,-0.9,5.6,0.77,0.01,-0.01,0.63
1697354516.98,-0.04,0.02,1.09,0.7,-0.9,5.6,0.77,0.01,-0.01,0.63
1697354516.99,-0.02,0.06,1,0.3,-0.8,5.4,0.77,0.01,-0.01,0.63
1697354517,-0.06,0.07,1.11,0.3,-0.8,5.4,0.77,0.01,-0.01,0.63
1697354517.01,-0.06,0.07,1.11,0.3,-0.8,5.4,0.77,0.01,-0.01,0.63
1697354517.02,-0.06,0.07,1.11,0.3,-0.8,5.4,0.77,0.01,-0.01,0.63
1697354517.03,-0.06,0.07,1.11,0.3,-0.8,5.4,0.77,0.01,-0.01,0.63
1697354517.04,-0.06,0.07,1.11,0.3,-0.8,5.4,0.77,0.01,-0.01,0.63
1697354517.05,-0.06,0.07,1.11,0.3,-0.8,5.4,0.77,0.01,-0.01,0.63
1697354517.06,-0.06,0.07,1.11,0.3,-0.8,5.4,0.77,0.01,-0.01,0.63
1697354517.07,-0.06,0.07,1.11,0.3,-0.8,5.4,0.77,0.01,-0.01,0.63
1697354517.08,-0.06,0.07,1.11,0.3,-0.8,5.4,0.77,0.01,-0.01,0.63
1697354517.09,-0.06,0.07,1.11,0.3,-0.8,5.4,0.77,0.01,-0.01,0.63
1697354517.1,-0.06,0.07,1.11,0.3,-0.8,5.4,0.77,0.01,-0.01,0.63
1697354517.11,-0.06,0.07,1.11,0.3,-0.8,5.4,0.77,0.01,-0.01,0.63
1697354517.12,-0.06,0.07,1.11,0.3,-0.8,5.4,0.77,0.01,-0.01,0.63
1697354517.13,-0.06,0.07,1.11,0.3,-0.8,5.4,0.77,0.01,-0.01,0.63
1697354517.14,-0.06,0.07,1.11,0.3,-0.8,5.4,0.77,0.01,-0.01,0.63
1697354517.15,-0.06,0.07,1.11,0.3,-0.8,5.4,0.77,0.01,-0.01,0.63
1697354517.16,-0.06,0.07,1.11,0.3,-0.8,5.4,0.77,0.01,-0.01,0.63
1697354517.17,-0.06,0.07,1.11,0.3,-0.8,5.4,0.77,0.01,-0.01,0.63
1697354517.18,-0.06,0.07,1.11,0.3,-0.8,5.4,0.77,0.01,-0.01,0.63
1697354517.19,-0.06,0.07,1.11,0.3,-0.8,5.4,0.77,0.01,-0.01,0.63
1697354517.2,-0.06,0.07,1.11,0.3,-0.8,5.4,0.77,0.01,-0.01,0.63
1697354517.21,-0.06,0.07,1.11,0.3,-0.8,5.4,0.77,0.01,-0.01,0.63
1697354517.22,-0.06,0.07,1.11,0.3,-0.8,5.4,0.77,0.01,-0.01,0.63
1697354517.23,-0.06,0.07,1.11,0.3,-0.8,5.4,0.77,0.01,-0.01,0.63
1697354517.24,-0.06,0.07,1.11,0.3,-0.8,5.4,0.77,0.01,-0.01,0.63
1697354517.25,-0.06,0.07,1.11,0.3,-0.8,5.4,0.77,0.01,-0.01,0.63
1697354517.26,-0.06,0.07,1.11,0.3,-0.8,5.4,0.77,0.01,-0.01,0.63
1697354517.27,-0.06,0.07,1.11,0.3,-0.8,5.4,0.77,0.01,-0.01,0.63
1697354517.28,-0.06,0.07,1.11,0.3,-0.8,5.4,0.77,0.01,-0.01,0.63
1697354517.29,-0.06,0.07,1.11,0.3,-0.8,5.4,0.77,0.01,-0.01,0.63
1697354517.3,-0.06,0.07,1.11,0.3,-0.8,5.4,0.77,0.01,-0.01,0.63
1697354517.31,-0.06,0.07,1.11,0.3,-0.8,5.4,0.77,0.01,-0.01,0.63
1697354517.32,-0.06,0.07,1.11,0.3,-0.8,5.4,0.77,0.01,-0.01,0.63
1697354517.33,-0.06,0.07,1.11,0.3,-0.8,5.4,0.77,0.01,-0.01,0.63
1697354517.34,-0.06,0.07,1.11,0.3,-0.8,5.4,0.77,0.01,-0.01,0.63
1697354517.35,-0.06,0.07,1.11,0.3,-0.8,5.4,0.77,0.01,-0.01,0.63
1697354517.36,-0.06,0.07,1.11,0.3,-0.8,5.4,0.77,0.01,-0.01,0.63
1697354517.37,-0.06,0.07,1.11,0.3,-0.8,5.4,0.77,0.01,-0.01,0.63
1697354517.38,-0.06,0.07,1.11,0.3,-0.8,5.4,0.77,0.01,-0.01,0.63
1697354517.39,-0.06,0.07,1.11,0.3,-0.8,5.4,0.77,0.01,-0.01,0.63
1697354517.4,-0.06,0.07,1.11,0.3,-0.8,5.4,0.77,0.01,-0.01,0.63
1697354517.41,-0.06,0.07,1.11,0.3,-0.8,5.4,0.77,0.01,-0.01,0.63
1697354517.42,-0.06,0.07,1.11,0.3,-0.8,5.4,0.77,0.01,-0.01,0.63
1697354517.43,-0.06,0.07,1.11,0.3,-0.8,5.4,0.77,0.01,-0.01,0.63
1697354517.44,-0.06,0.07,1.11,0.3,-0.8,5.4,0.77,0.01,-0.01,0.63
1697354517.45,-0.06,0.07,1.11,0.3,-0.8,5.4,0.77,0.01,-0.01,0.63
1697354517.46,-0.06,0.07,1.11,0.3,-0.8,5.4,0.77,0.01,-0.01,0.63
1697354517.47,-0.06,0.07,1.11,0.3,-0.8,5.4,0.77,0.01,-0.01,0.63
1697354517.48,-0.06,0.07,1.11,0.3,-0.8,5.4,0.77,0.01,-0.01,0.63
1697354517.49,-0.06,0.07,1.11,0.3,-0.8,5.4,0.77,0.01,-0.01,0.63
1697354517.5,-0.06,0.07,1.11,0.3,-0.8,5.4,0.77,0.01,-0.01,0.63
1697354517.51,-0.06,0.07,1.11,0.3,-0.8,5.4,0.77,0.01,-0.01,0.63
1697354517.52,-0.06,0.07,1.11,0.3,-0.8,5.4,0.77,0.01,-0.01,0.63
1697354517.53,-0.06,0.07,1.11,0.3,-0.8,5.4,0.77,0.01,-0.01,0.63
1697354517.54,-0.06,0.07,1.11,0.3,-0.8,5.4,0.77,0.01,-0.01,0.63
1697354517.55,-0.06,0.07,1.11,0.3,-0.8,5.4,0.77,0.01,-0.01,0.63
1697354517.56,-0.06,0.07,1.11,0.3,-0.8,5.4,0.77,0.01,-0.01,0.63
1697354517.57,-0.06,0.07,1.11,0.3,-0.8,5.4,0.77,0.01,-0.01,0.63
1697354517.58,-0.06,0.07,1.11,0.3,-0.8,5.4,0.77,0.01,-0.01,0.63
1697354517.59,-0.06,0.07,1.11,0.3,-0.8,5.4,0.77,0.01,-0.01,0.63
1697354517.6,-0.06,0.07,1.11,0.3,-0.8,5.4,0.77,0.01,-0.01,0.63
1697354517.61,-0.06,0.07,1.11,0.3,-0.8,5.4,0.77,0.01,-0.01,0.63
1697354517.62,-0.06,0.07,1.11,0.3,-0.8,5.4,0.77,0.01,-0.01,0.63
1697354517.63,-0.06,0.07,1.11,0.3,-0.8,5.4,0.77,0.01,-0.01,0.63
1697354517.64,-0.06,0.07,1.11,0.3,-0.8,5.4,0.77,0.01,-0.01,0.63
1697354517.65,-0.06,0.07,1.11,0.3,-0.8,5.4,0.77,0.01,-0.01,0.63
1697354517.66,-0.06,0.07,1.11,0.3,-0.8,5.4,0.77,0.01,-0.01,0.63
1697354517.67,-0.06,0.07,1.11,0.3,-0.8,5.4,0.77,0.01,-0.01,0.63
1697354517.68,-0.06,0.07,1.11,0.3,-0.8,5.4,0.77,0.01,-0.01,0.63
1697354517.69,-0.06,0.07,1.11,0.3,-0.8,5.4,0.77,0.01,-0.01,0.63
1697354517.7,0.09,-0.01,1.09,-1.2,0.2,0,0.77,0.01,-0.02,0.64
1697354517.71,0.07,-0.02,0.89,-0.9,-0.1,0,0.77,0.01,-0.02,0.64
1697354517.72,0.07,0.06,1,0.3,-0.9,0,0.77,0.01,-0.02,0.64
1697354517.73,0.03,0.02,1.12,1.7,-0.9,0.2,0.77,0.01,-0.02,0.64
1697354517.74,-0,-0.02,0.93,2.6,-0.9,0,0.77,0.01,-0.02,0.64
1697354517.75,0.04,-0.01,1,1.9,-0.7,0.2,0.77,0.01,-0.02,0.64
1697354517.76,0.04,-0.01,1,1.9,-0.7,0.2,0.77,0.01,-0.02,0.64
1697354517.77,0.07,-0.03,0.88,-0.5,-0.3,0,0.77,0.01,-0.02,0.64
1697354517.78,0.01,0.01,0.93,-0.6,-0.4,0.1,0.77,0.01,-0.02,0.64
1697354517.79,0.01,0.01,0.93,-0.6,-0.4,0.1,0.77,0.01,-0.02,0.64
1697354517.8,0.01,-0.04,1.2,-0.4,-0.9,0.2,0.77,0.01,-0.02,0.64
1697354517.81,0.1,0.09,0.96,-0.1,-1.7,0.2,0.77,0.01,-0.02,0.64
1697354517.82,0.1,0.09,0.96,-0.1,-1.7,0.2,0.77,0.01,-0.02,0.64
1697354517.83,0.01,-0.01,1.09,0.3,-2.3,0.8,0.77,0.01,-0.02,0.64
1697354517.84,0.01,-0.01,1.09,1.2,-2.5,0.6,0.77,0.01,-0.02,0.64
1697354517.85,0.04,-0.07,0.81,0.4,-1.7,0.2,0.77,0.01,-0.02,0.64
1697354517.86,0.04,-0.07,0.81,0.4,-1.7,0.2,0.77,0.01,-0.02,0.64
1697354517.87,-0.02,-0.01,1.02,0.4,-1.3,0,0.77,0.01,-0.02,0.64
1697354517.88,0.03,0.01,0.84,0.1,-0.7,-0.1,0.77,0.01,-0.02,0.64
1697354517.89,-0.01,-0.04,0.92,-0.1,0.2,0,0.77,0.01,-0.02,0.64
1697354517.9,0.05,0.02,0.96,-0.1,0.2,0,0.77,0.01,-0.02,0.64
1697354517.91,0.03,0.02,1.06,-0.3,1.1,0,0.77,0.01,-0.02,0.64
1697354517.92,-0.02,0,1.06,0,1.2,0,0.77,0.01,-0.02,0.64
1697354517.93,0.02,-0.02,0.95,0,1.2,0.1,0.77,0.01,-0.02,0.64
1697354517.94,0.04,0.01,1.06,-0.3,0.9,0.2,0.77,0.01,-0.02,0.64
1697354517.95,0.06,0.01,1.06,-0.8,0.4,0.2,0.77,0.01,-0.02,0.64
1697354517.96,-0.03,0.04,0.97,-0.5,0.2,0.2,0.77,0.01,-0.02,0.64
1697354517.97,0.12,0.01,1.06,0,-0.2,0,0.77,0.01,-0.02,0.64
1697354517.98,0.02,-0.02,1.02,0,-0.2,0,0.77,0.01,-0.02,0.64
1697354517.99,-0.01,-0.04,1.28,-0.4,-0.5,0,0.77,0.01,-0.02,0.64
1697354518,0.02,0.04,1.01,0.4,-0.3,0.2,0.77,0.01,-0.02,0.64
1697354518.01,-0.07,-0,1.26,1.9,0.1,0,0.77,0.01,-0.02,0.64
1697354518.02,-0.03,0.02,1.09,1.9,0.1,0,0.77,0.01,-0.02,0.64
1697354518.03,-0.01,-0.06,1.02,2.5,0.3,0.2,0.77,0.01,-0.02,0.64
1697354518.04,0.03,-0.12,0.9,1.5,0.6,0.2,0.77,0.01,-0.02,0.64
1697354518.05,-0.01,-0.07,1.2,0,1,0,0.77,0.01,-0.02,0.64
1697354518.06,0.03,-0.03,0.87,-2.3,1.8,0.2,0.77,0.01,-0.02,0.64
1697354518.07,0.08,0.13,0.92,-4.1,2.6,0.4,0.77,0.01,-0.02,0.64
1697354518.08,0.08,0.13,0.92,-4.1,2.6,0.4,0.77,0.01,-0.02,0.64
1697354518.09,0.08,0.13,0.92,-4.1,2.6,0.4,0.77,0.01,-0.02,0.64
1697354518.1,0.08,0.13,0.92,-4.1,2.6,0.4,0.77,0.01,-0.02,0.64
1697354518.11,0.08,0.13,0.92,-4.1,2.6,0.4,0.77,0.01,-0.02,0.64
1697354518.12,0.08,0.13,0.92,-4.1,2.6,0.4,0.77,0.01,-0.02,0.64
1697354518.13,0.08,0.13,0.92,-4.1,2.6,0.4,0.77,0.01,-0.02,0.64
1697354518.14,0.08,0.13,0.92,-4.1,2.6,0.4,0.77,0.01,-0.02,0.64
1697354518.15,0.08,0.13,0.92,-4.1,2.6,0.4,0.77,0.01,-0.02,0.64
1697354518.16,0.08,0.13,0.92,-4.1,2.6,0.4,0.77,0.01,-0.02,0.64
1697354518.17,0.08,0.13,0.92,-4.1,2.6,0.4,0.77,0.01,-0.02,0.64
1697354518.18,0.08,0.13,0.92,-4.1,2.6,0.4,0.77,0.01,-0.02,0.64
1697354518.19,0.08,0.13,0.92,-4.1,2.6,0.4,0.77,0.01,-0.02,0.64
1697354518.2,0.08,0.13,0.92,-4.1,2.6,0.4,0.77,0.01,-0.02,0.64
1697354518.21,0.08,0.13,0.92,-4.1,2.6,0.4,0.77,0.01,-0.02,0.64
1697354518.22,0.08,0.13,0.92,-4.1,2.6,0.4,0.77,0.01,-0.02,0.64
1697354518.23,0.08,0.13,0.92,-4.1,2.6,0.4,0.77,0.01,-0.02,0.64
1697354518.24,0.08,0.13,0.92,-4.1,2.6,0.4,0.77,0.01,-0.02,0.64
1697354518.25,0.08,0.13,0.92,-4.1,2.6,0.4,0.77,0.01,-0.02,0.64
1697354518.26,0.01,-0.02,1.21,1.1,-0.4,-0.8,0.77,0.01,-0.02,0.64
