time,accel_x,accel_y,accel_z,gyro_x,gyro_y,gyro_z,quat_w,quat_x,quat_y,quat_z
1697352398.45,-0.14,1.14,0.88,-0.4,2.5,83.5,0.87,-0,-0.04,-0.49
1697352398.46,-0.12,1,0.92,0.2,0.9,84.5,0.88,-0,-0.04,-0.48
1697352398.47,-0.13,1.15,1.35,0.5,-1.1,84.9,0.88,-0,-0.04,-0.47
1697352398.48,-0.12,0.98,0.93,1.6,-1.4,85.1,0.88,-0,-0.04,-0.47
1697352398.49,-0.06,1.11,0.58,2.3,-0.9,85.2,0.89,-0,-0.04,-0.46
1697352398.5,-0.07,0.91,0.69,2.5,-0.1,84.8,0.89,-0,-0.04,-0.45
1697352398.51,-0.23,0.98,0.86,2.2,0.7,84.1,0.89,-0,-0.04,-0.45
1697352398.52,-0.3,1.12,1.03,1.6,1.6,84.1,0.9,-0,-0.04,-0.44
1697352398.53,-0.33,1.18,1.14,2.2,3,83.7,0.9,-0,-0.04,-0.43
1697352398.54,-0.23,1.05,0.69,1.6,3.4,83.4,0.9,-0,-0.04,-0.43
1697352398.55,-0.3,0.96,1.17,0.1,4,83,0.91,-0,-0.04,-0.42
1697352398.56,-0.22,0.87,0.82,-3.4,5,82.8,0.91,-0,-0.04,-0.41
1697352398.57,-0.22,1.18,0.82,-4.2,6,83,0.91,-0,-0.04,-0.41
1697352398.58,-0.3,1.28,1.16,-2.8,5.9,84.1,0.92,-0.01,-0.04,-0.4
1697352398.59,-0.17,1.24,1.01,1,5.5,84.4,0.92,-0.01,-0.04,-0.39
1697352398.6,-0.17,1.24,1.01,1,5.5,84.4,0.92,-0.01,-0.04,-0.39
1697352398.61,-0.24,1.1,0.95,3.7,4.1,88.5,0.92,-0.01,-0.04,-0.38
1697352398.62,-0.27,1.08,1.25,0.6,3.7,90.6,0.93,-0.01,-0.04,-0.37
1697352398.63,-0.21,1.11,0.76,-2.4,3.1,92.5,0.93,-0.01,-0.04,-0.36
1697352398.64,-0.41,1.09,1.06,-4.9,2.9,94.1,0.93,-0.01,-0.04,-0.35
1697352398.65,-0.3,1.12,0.93,-6.1,2.2,95.5,0.94,-0.01,-0.04,-0.35
1697352398.66,-0.3,1.12,0.93,-6.1,2.2,95.5,0.94,-0.01,-0.04,-0.35
1697352398.67,-0.25,1.23,1.1,-1.7,1.1,97,0.94,-0.01,-0.04,-0.33
1697352398.68,-0.25,1.23,1.1,-1.7,1.1,97,0.94,-0.01,-0.04,-0.33
1697352398.69,-0.27,1.06,0.82,4.4,1.1,97.4,0.95,-0.01,-0.04,-0.31
1697352398.7,-0.27,1.06,0.82,4.4,1.1,97.4,0.95,-0.01,-0.04,-0.31
1697352398.71,-0.27,1.06,0.82,4.4,1.1,97.4,0.95,-0.01,-0.04,-0.31
1697352398.72,-0.27,1.06,0.82,4.4,1.1,97.4,0.95,-0.01,-0.04,-0.31
1697352398.73,-0.27,1.06,0.82,4.4,1.1,97.4,0.95,-0.01,-0.04,-0.31
1697352398.74,-0.27,1.06,0.82,4.4,1.1,97.4,0.95,-0.01,-0.04,-0.31
1697352398.75,-0.27,1.06,0.82,4.4,1.1,97.4,0.95,-0.01,-0.04,-0.31
1697352398.76,-0.27,1.06,0.82,4.4,1.1,97.4,0.95,-0.01,-0.04,-0.31
1697352398.77,-0.27,1.06,0.82,4.4,1.1,97.4,0.95,-0.01,-0.04,-0.31
1697352398.78,-0.27,1.06,0.82,4.4,1.1,97.4,0.95,-0.01,-0.04,-0.31
1697352398.79,-0.27,1.06,0.82,4.4,1.1,97.4,0.95,-0.01,-0.04,-0.31
1697352398.8,-0.27,1.06,0.82,4.4,1.1,97.4,0.95,-0.01,-0.04,-0.31
1697352398.81,-0.27,1.06,0.82,4.4,1.1,97.4,0.95,-0.01,-0.04,-0.31
1697352398.82,-0.27,1.06,0.82,4.4,1.1,97.4,0.95,-0.01,-0.04,-0.31
1697352398.83,-0.58,1.08,0.65,-3.2,2.7,91.5,0.98,-0.01,-0.03,-0.21
1697352398.84,-0.47,1.2,1.16,-1.4,2.3,90.8,0.98,-0.01,-0.03,-0.2
1697352398.85,-0.3,1.1,0.95,0.3,1.3,90.6,0.98,-0.01,-0.03,-0.19
1697352398.86,-0.16,1.07,0.89,1.1,-0.3,90.6,0.98,-0.01,-0.03,-0.18
1697352398.87,-0.25,0.87,0.61,0.4,-1.1,90.1,0.98,-0.01,-0.03,-0.17
1697352398.88,-0.28,0.96,0.86,-1.5,-1.5,89.7,0.99,-0.01,-0.03,-0.17
1697352398.89,-0.22,0.89,0.62,-2.7,-1.3,89.5,0.99,-0.01,-0.03,-0.16
1697352398.9,-0.31,0.91,0.92,-3.2,-0.4,88.8,0.99,-0.01,-0.03,-0.15
1697352398.91,-0.35,0.97,1.1,-2.6,0.7,88.4,0.99,-0.01,-0.03,-0.14
1697352398.92,-0.26,1.03,0.74,-1.3,1.6,88.1,0.99,-0.01,-0.03,-0.13
1697352398.93,-0.29,0.95,1,-0.2,2.6,87.5,0.99,-0.01,-0.03,-0.13
1697352398.94,-0.32,0.95,0.89,-0.1,3.4,87.3,0.99,-0.01,-0.03,-0.12
1697352398.95,-0.33,0.8,1.27,-0.6,4,86.8,0.99,-0.01,-0.03,-0.11
1697352398.96,-0.13,0.88,0.61,-0.9,4.5,85.7,0.99,-0.02,-0.03,-0.1
1697352398.97,-0.06,0.78,1.11,-1,4.8,85.4,0.99,-0.02,-0.03,-0.1
1697352398.98,0.08,0.7,0.79,-1.7,5.1,84.7,0.99,-0.02,-0.03,-0.1
1697352398.99,-0.12,0.86,0.94,-3.2,5.1,84.7,1,-0.02,-0.03,-0.08
1697352399,-0.07,0.85,0.87,-4.2,4.9,84.8,1,-0.02,-0.03,-0.07
1697352399.01,-0.1,0.93,0.8,-3.1,4.9,85,1,-0.02,-0.03,-0.07
1697352399.02,-0.42,1.01,1.14,-1.6,5.4,85.1,1,-0.02,-0.03,-0.06
1697352399.03,0.2,0.82,0.51,-1.8,6.4,86.2,1,-0.02,-0.03,-0.05
1697352399.04,-0.02,1.05,0.67,0,6.7,85.9,1,-0.02,-0.03,-0.04
1697352399.05,-0.07,0.91,0.76,1.5,6.4,85.8,1,-0.02,-0.02,-0.04
1697352399.06,-0.19,0.83,0.91,1.5,6.2,86.2,1,-0.02,-0.02,-0.03
1697352399.07,-0.05,0.76,0.37,1.3,6.7,85.8,1,-0.02,-0.02,-0.02
1697352399.08,-0.05,0.76,0.37,1.3,6.7,85.8,1,-0.02,-0.02,-0.02
1697352399.09,-0.11,0.86,0.95,0,6.9,85.9,1,-0.02,-0.02,-0.01
1697352399.1,-0.11,0.86,0.95,-1.4,7.1,86.1,1,-0.02,-0.02,-0
1697352399.11,-0.06,0.94,0.89,2.4,7.1,85.3,1,-0.02,-0.02,0
1697352399.12,-0.06,0.94,0.89,2.4,7.1,85.3,1,-0.02,-0.02,0.01
1697352399.13,-0.14,1.05,1.07,3.4,7,85.4,1,-0.02,-0.02,0.02
1697352399.14,-0.17,0.82,0.8,3.1,7.3,85.3,1,-0.02,-0.02,0.03
1697352399.15,-0.22,0.81,1.19,0.8,8,85.2,1,-0.02,-0.02,0.03
1697352399.16,-0.22,0.81,1.19,-2,9.1,85.3,1,-0.02,-0.02,0.04
1697352399.17,-0.21,0.91,1.11,-3.4,10,85.7,1,-0.02,-0.02,0.05
1697352399.18,-0.26,1.07,0.93,-2.6,10.3,86.3,1,-0.02,-0.01,0.06
1697352399.19,-0.06,1.06,0.98,0.8,10,86.4,1,-0.02,-0.01,0.07
1697352399.2,-0.25,1.04,1.03,1.6,9.1,87.4,1,-0.02,-0.01,0.07
1697352399.21,-0.25,1.04,1.03,1.6,9.1,87.4,1,-0.02,-0.01,0.07
1697352399.22,-0.25,1.04,1.03,1.6,9.1,87.4,1,-0.02,-0.01,0.07
1697352399.23,-0.25,1.04,1.03,1.6,9.1,87.4,1,-0.02,-0.01,0.07
1697352399.24,-0.25,1.04,1.03,1.6,9.1,87.4,1,-0.02,-0.01,0.07
1697352399.25,-0.25,1.04,1.03,1.6,9.1,87.4,1,-0.02,-0.01,0.07
1697352399.26,-0.25,1.04,1.03,1.6,9.1,87.4,1,-0.02,-0.01,0.07
1697352399.27,-0.25,1.04,1.03,1.6,9.1,87.4,1,-0.02,-0.01,0.07
1697352399.28,-0.25,1.04,1.03,1.6,9.1,87.4,1,-0.02,-0.01,0.07
1697352399.29,-0.25,1.04,1.03,1.6,9.1,87.4,1,-0.02,-0.01,0.07
1697352399.3,-0.25,1.04,1.03,1.6,9.1,87.4,1,-0.02,-0.01,0.07
1697352399.31,-0.25,1.04,1.03,1.6,9.1,87.4,1,-0.02,-0.01,0.07
1697352399.32,-0.25,1.04,1.03,1.6,9.1,87.4,1,-0.02,-0.01,0.07
1697352399.33,-0.25,1.04,1.03,1.6,9.1,87.4,1,-0.02,-0.01,0.07
1697352399.34,-0.01,0.97,0.96,-0.8,4.9,85.8,0.98,-0.02,-0,0.18
1697352399.35,-0.2,0.99,0.85,0.7,4.8,85.2,0.98,-0.02,-0,0.18
1697352399.36,-0.14,0.9,1.09,1,4.1,85.3,0.98,-0.02,-0,0.2
1697352399.37,-0.07,1.01,1.19,1.1,3.7,85.6,0.98,-0.02,-0,0.2
1697352399.38,-0.11,0.95,1.01,0.9,3.4,85.9,0.98,-0.02,-0,0.2
1697352399.39,-0.17,1,1.07,0.5,3,86.4,0.98,-0.02,0,0.21
1697352399.4,-0.34,0.92,1.33,0,2.3,87.4,0.98,-0.02,0,0.22
1697352399.41,-0.19,1.01,1.01,0.6,1.5,87.2,0.97,-0.02,0,0.23
1697352399.42,-0.05,0.86,0.84,-0.9,0.9,87.7,0.97,-0.02,0,0.23
1697352399.43,-0.05,0.9,0.84,-1.4,0.3,87.7,0.97,-0.02,0,0.24
1697352399.44,-0.12,0.89,0.85,-1.1,0,87.5,0.97,-0.02,0,0.25
1697352399.45,-0.1,0.89,0.99,-0.8,-0.6,87.2,0.96,-0.02,0,0.26
1697352399.46,-0.05,0.95,0.88,-0.4,-1.1,87,0.96,-0.02,0,0.27
1697352399.47,-0.09,0.9,0.91,0,-1.1,86.9,0.96,-0.02,0,0.28
1697352399.48,-0.13,0.8,0.91,1,-1.4,86.4,0.96,-0.02,0,0.28
1697352399.49,-0.16,0.9,1.13,0.5,-1.2,85.9,0.96,-0.02,0,0.29
1697352399.5,-0.19,0.89,1.06,0.5,-1.2,85.9,0.96,-0.02,0,0.29
1697352399.51,-0.32,0.89,1.18,-1,-0.3,85.4,0.95,-0.02,0,0.3
1697352399.52,-0.19,0.95,0.78,-1.3,0.3,85.4,0.95,-0.02,0,0.31
1697352399.53,-0.18,0.91,1.17,-1.2,1.1,85.6,0.95,-0.02,0,0.31
1697352399.54,-0.18,0.91,1.17,-1.2,1.1,85.6,0.95,-0.02,0,0.32
1697352399.55,-0.08,0.89,0.94,-0.5,1.7,85.4,0.94,-0.02,0,0.33
1697352399.56,-0.1,0.83,1.07,-0.5,1.7,85.4,0.94,-0.02,0,0.33
1697352399.57,-0.09,0.98,0.9,-1,1.8,85.4,0.94,-0.02,0,0.34
1697352399.58,-0.18,0.94,1.13,-1.1,1.6,85.7,0.94,-0.02,0,0.35
1697352399.59,-0.14,1.07,1.07,-0.3,0.8,86.6,0.93,-0.02,0,0.36
1697352399.6,-0.12,0.91,0.69,1.3,0,87.1,0.93,-0.02,0,0.36
1697352399.61,-0.23,0.71,0.96,1.1,-0.3,87.7,0.93,-0.02,0,0.37
1697352399.62,-0.21,0.87,1.13,-1,-0.1,87.5,0.93,-0.02,0,0.38
1697352399.63,-0.03,0.79,0.85,-1,-0.1,87.5,0.92,-0.02,0,0.39
1697352399.64,-0.12,0.99,1.13,-3.7,0.7,87,0.92,-0.02,0.01,0.39
1697352399.65,-0.21,1.01,1.2,-1.9,1.1,86.4,0.92,-0.02,0.01,0.4
1697352399.66,-0.21,1.01,1.2,-1.9,1.1,86.4,0.91,-0.02,0.01,0.41
1697352399.67,-0.15,0.86,1.02,1.7,2.1,86,0.91,-0.02,0.01,0.41
1697352399.68,-0.23,0.95,1.26,1.7,2.1,86,0.91,-0.02,0.01,0.42
1697352399.69,-0.18,0.93,1.05,1.6,2.4,86,0.9,-0.02,0.01,0.43
1697352399.7,-0.2,0.93,0.8,-0.2,2.8,86.4,0.9,-0.02,0.01,0.43
1697352399.71,-0.24,0.93,1.18,-0.2,2.8,86.4,0.9,-0.02,0.01,0.44
1697352399.72,-0.24,0.93,1.18,-1,2.7,87,0.89,-0.02,0.01,0.45
1697352399.73,-0.14,0.92,1.1,-1.5,2.4,87.5,0.89,-0.02,0.01,0.45
1697352399.74,-0.14,0.92,1.1,-1.5,2.4,87.5,0.89,-0.02,0.01,0.45
1697352399.75,-0.14,0.92,1.1,-1.5,2.4,87.5,0.89,-0.02,0.01,0.45
1697352399.76,-0.14,0.92,1.1,-1.5,2.4,87.5,0.89,-0.02,0.01,0.45
1697352399.77,-0.14,0.92,1.1,-1.5,2.4,87.5,0.89,-0.02,0.01,0.45
1697352399.78,-0.14,0.92,1.1,-1.5,2.4,87.5,0.89,-0.02,0.01,0.45
1697352399.79,-0.14,0.92,1.1,-1.5,2.4,87.5,0.89,-0.02,0.01,0.45
1697352399.8,-0.14,0.92,1.1,-1.5,2.4,87.5,0.89,-0.02,0.01,0.45
1697352399.81,-0.14,0.92,1.1,-1.5,2.4,87.5,0.89,-0.02,0.01,0.45
1697352399.82,-0.14,0.92,1.1,-1.5,2.4,87.5,0.89,-0.02,0.01,0.45
1697352399.83,-0.14,0.92,1.1,-1.5,2.4,87.5,0.89,-0.02,0.01,0.45
1697352399.84,-0.14,0.92,1.1,-1.5,2.4,87.5,0.89,-0.02,0.01,0.45
1697352399.85,-0.14,0.92,1.1,-1.5,2.4,87.5,0.89,-0.02,0.01,0.45
1697352399.86,-0.15,0.93,0.81,-1.5,2.4,87.5,0.89,-0.02,0.01,0.45
1697352399.87,-0.27,0.88,1.04,2.9,4.5,85.2,0.84,-0.02,0.01,0.55
1697352399.88,-0.3,0.89,1.11,2,4.4,86.2,0.84,-0.02,0.01,0.55
1697352399.89,-0.18,0.91,0.93,0,4.2,87.1,0.83,-0.02,0.01,0.56
1697352399.9,-0.13,1.05,0.9,-0.7,3.8,88.4,0.82,-0.02,0.01,0.57
1697352399.91,-0.19,0.99,1.19,0.3,3,89.6,0.82,-0.02,0.01,0.57
1697352399.92,-0.11,0.99,1.04,0.3,3,89.6,0.82,-0.02,0.01,0.57
1697352399.93,-0.1,0.97,1.01,1.6,1.9,90.8,0.81,-0.02,0.01,0.59
1697352399.94,-0.05,0.85,1.09,1.2,1.4,90.8,0.8,-0.02,0.02,0.59
1697352399.95,-0.19,0.85,1.07,-0.4,1.4,90.7,0.8,-0.02,0.02,0.6
1697352399.96,-0.09,0.87,0.82,-2.6,1.2,90.3,0.79,-0.02,0.02,0.61
1697352399.97,-0.17,1.02,1.29,-3.4,1.8,90,0.79,-0.02,0.02,0.61
1697352399.98,-0.02,1.12,0.95,-1.8,2.1,89.4,0.79,-0.02,0.02,0.61
1697352399.99,-0.15,0.92,1.11,1.8,2.3,88.8,0.78,-0.02,0.02,0.62
1697352400,-0.2,0.94,1.23,4.1,2.8,88.1,0.78,-0.02,0.02,0.63
1697352400.01,-0.2,0.83,0.78,4.5,2.9,87.4,0.77,-0.02,0.02,0.64
1697352400.02,-0.24,0.77,1.03,2,3.4,87.6,0.77,-0.02,0.02,0.64
1697352400.03,-0.11,0.85,0.9,-2.1,3.9,87.5,0.76,-0.02,0.02,0.64
1697352400.04,-0.23,1.13,0.88,-4,4.3,88.4,0.76,-0.02,0.02,0.65
1697352400.05,-0.18,1.07,1.07,-3.2,3.9,88.9,0.75,-0.02,0.02,0.66
1697352400.06,-0.01,1.11,0.92,-0.7,3.1,90,0.75,-0.03,0.02,0.66
1697352400.07,-0.02,0.89,1.34,2.5,1.6,91.4,0.74,-0.03,0.02,0.67
1697352400.08,0.14,0.82,0.85,2.5,1.6,91.4,0.74,-0.02,0.02,0.67
1697352400.09,0.08,0.78,0.89,-0.2,-1.5,94.1,0.73,-0.02,0.02,0.68
1697352400.1,0.05,0.6,1.22,-4.6,-1.6,94.6,0.73,-0.02,0.02,0.69
1697352400.11,0.28,0.77,0.94,-4.6,-1.6,94.6,0.72,-0.02,0.02,0.69
1697352400.12,0.03,1.05,0.85,-4.8,-1,92.7,0.71,-0.02,0.02,0.7
1697352400.13,0.03,1.05,0.85,-4.8,-1,92.7,0.71,-0.02,0.02,0.7
1697352400.14,-0.07,1.16,1.32,0,-1,90.6,0.7,-0.02,0.02,0.71
1697352400.15,-0.07,1.16,1.32,4.4,-0.5,87.1,0.7,-0.02,0.02,0.72
1697352400.16,-0.14,0.85,1.04,3.8,0.1,84.6,0.69,-0.02,0.02,0.72
1697352400.17,0.01,0.65,1.06,2.5,1,81.1,0.69,-0.02,0.02,0.73
1697352400.18,0.01,0.65,1.06,-0.4,2.8,79.7,0.68,-0.02,0.02,0.73
1697352400.19,-0.12,0.9,0.82,-1.3,4.8,76.9,0.68,-0.02,0.02,0.73
1697352400.2,0.18,0.61,0.69,-2.9,4.9,75.4,0.67,-0.02,0.02,0.74
1697352400.21,0.06,0.77,0.76,-2.5,4.7,72.4,0.67,-0.02,0.02,0.74
1697352400.22,0.09,0.5,0.92,-3.3,4.6,70.8,0.66,-0.02,0.02,0.75
1697352400.23,0.23,0.28,0.95,-3.3,3,66.8,0.66,-0.02,0.02,0.75
1697352400.24,0.29,0.23,0.85,-5.2,2,64.1,0.65,-0.02,0.02,0.76
1697352400.25,0.24,0.21,0.78,-6.7,0.4,60.5,0.65,-0.03,0.02,0.76
1697352400.26,0.24,0.21,0.78,-6.7,0.4,60.5,0.65,-0.03,0.02,0.76
1697352400.27,0.24,0.21,0.78,-6.7,0.4,60.5,0.65,-0.03,0.02,0.76
1697352400.28,0.24,0.21,0.78,-6.7,0.4,60.5,0.65,-0.03,0.02,0.76
1697352400.29,0.24,0.21,0.78,-6.7,0.4,60.5,0.65,-0.03,0.02,0.76
1697352400.3,0.24,0.21,0.78,-6.7,0.4,60.5,0.65,-0.03,0.02,0.76
1697352400.31,0.24,0.21,0.78,-6.7,0.4,60.5,0.65,-0.03,0.02,0.76
1697352400.32,0.24,0.21,0.78,-6.7,0.4,60.5,0.65,-0.03,0.02,0.76
1697352400.33,0.24,0.21,0.78,-6.7,0.4,60.5,0.65,-0.03,0.02,0.76
1697352400.34,0.24,0.21,0.78,-6.7,0.4,60.5,0.65,-0.03,0.02,0.76
1697352400.35,0.24,0.21,0.78,-6.7,0.4,60.5,0.65,-0.03,0.02,0.76
1697352400.36,0.24,0.21,0.78,-6.7,0.4,60.5,0.65,-0.03,0.02,0.76
1697352400.37,0.24,0.21,0.78,-6.7,0.4,60.5,0.65,-0.03,0.02,0.76
1697352400.38,0.24,0.21,0.78,-6.7,0.4,60.5,0.65,-0.03,0.02,0.76
1697352400.39,0.24,0.21,0.78,-6.7,0.4,60.5,0.65,-0.03,0.02,0.76
1697352400.4,0.27,0.2,1.31,-3.4,-1.4,21.1,0.61,-0.03,0.02,0.79
1697352400.41,0.22,0.33,1.22,-0.2,-1.9,17.9,0.61,-0.03,0.02,0.79
1697352400.42,0.21,0.24,0.63,2.9,-2.5,15.2,0.61,-0.03,0.02,0.8
1697352400.43,0.11,0.13,0.88,4.6,-2.9,14.1,0.6,-0.03,0.02,0.8
1697352400.44,0.14,0,0.78,3.1,-2.2,15,0.6,-0.03,0.02,0.8
1697352400.45,0.14,0,0.78,3.1,-2.2,15,0.6,-0.02,0.02,0.8
1697352400.46,0.07,-0.18,0.78,-3.7,-0.8,16.3,0.6,-0.02,0.02,0.8
1697352400.47,0.16,-0.02,0.71,-5.4,0,15.5,0.6,-0.02,0.02,0.8
1697352400.48,0.16,-0.02,0.71,-5.4,0,15.5,0.6,-0.02,0.02,0.8
1697352400.49,0.31,-0.58,1.66,-1.6,0.6,10.3,0.6,-0.03,0.02,0.8
1697352400.5,0.41,-0.66,0.74,-1.6,0.6,10.3,0.6,-0.03,0.02,0.8
1697352400.51,0.36,-0.42,1.19,-3.5,-1,0.2,0.6,-0.03,0.02,0.8
1697352400.52,0.28,-0.32,0.9,-5.4,-1.4,-4.1,0.6,-0.03,0.02,0.8
1697352400.53,0.19,-0.34,0.89,-5.4,-1.4,-4.1,0.6,-0.03,0.02,0.8
1697352400.54,0.05,-0.28,1.29,-4.7,-1.3,-7.2,0.6,-0.03,0.02,0.8
1697352400.55,0.05,-0.28,1.29,-2.8,-0.7,-9.8,0.6,-0.03,0.02,0.8
1697352400.56,0.05,-0.33,0.83,-1.5,0,-11.2,0.6,-0.03,0.02,0.8
1697352400.57,0.04,-0.49,0.79,-1.3,0.7,-12.5,0.6,-0.03,0.02,0.8
1697352400.58,0.02,-0.67,0.93,-1.9,1.5,-13.8,0.6,-0.03,0.02,0.8
1697352400.59,0.23,-0.66,1.15,-4.2,2.2,-15.3,0.6,-0.03,0.02,0.8
1697352400.6,0.2,-0.61,1.06,-5.1,2.5,-16.8,0.6,-0.03,0.02,0.8
1697352400.61,0.27,-0.6,0.9,-5.7,2.2,-17.8,0.6,-0.03,0.02,0.8
1697352400.62,0.1,-0.62,1.19,-4.4,1.6,-19.9,0.61,-0.03,0.01,0.8
1697352400.63,0.08,-0.64,0.91,-2.9,1,-21.6,0.61,-0.03,0.01,0.8
1697352400.64,0.01,-0.7,0.69,-0.8,0.3,-24.3,0.61,-0.03,0.01,0.79
1697352400.65,-0.19,-0.7,0.89,-0.1,0.1,-27.1,0.61,-0.03,0.01,0.79
1697352400.66,-0.19,-0.76,1.28,-1,0,-29.8,0.61,-0.03,0.01,0.79
1697352400.67,-0.12,-0.75,1.03,-0.1,0.1,-32.9,0.61,-0.03,0.01,0.79
1697352400.68,0.04,-0.76,1.09,-0.1,0.1,-32.9,0.62,-0.03,0.01,0.79
1697352400.69,-0.16,-0.39,1.01,-0.6,0.3,-37.7,0.62,-0.03,0.01,0.79
1697352400.7,0.11,-0.52,1.04,-0.6,0.3,-37.7,0.62,-0.03,0.01,0.78
1697352400.71,0.1,-0.72,0.99,3.1,0.4,-38.4,0.62,-0.03,0.01,0.78
1697352400.72,0.11,-0.78,0.86,4.3,0.5,-38.1,0.63,-0.03,0.01,0.78
1697352400.73,0.11,-0.78,0.86,1.5,0.1,-37.9,0.63,-0.03,0.01,0.78
1697352400.74,-0.05,-0.59,0.88,-1.5,-0.3,-38.1,0.63,-0.03,0.01,0.77
1697352400.75,-0.11,-0.59,0.94,-3.8,-0.9,-38.5,0.63,-0.03,0.01,0.77
1697352400.76,-0.02,-0.53,1.1,-4.2,-0.9,-38.8,0.64,-0.03,0.01,0.77
1697352400.77,-0.04,-0.49,0.77,-2.3,-1.6,-39.1,0.64,-0.03,0.01,0.77
1697352400.78,-0.01,-0.55,0.9,0.8,-1.7,-39.7,0.64,-0.03,0.01,0.77
1697352400.79,-0.01,-0.55,0.9,0.8,-1.7,-39.7,0.64,-0.03,0.01,0.77
1697352400.8,-0.01,-0.55,0.9,0.8,-1.7,-39.7,0.64,-0.03,0.01,0.77
1697352400.81,-0.01,-0.55,0.9,0.8,-1.7,-39.7,0.64,-0.03,0.01,0.77
1697352400.82,-0.01,-0.55,0.9,0.8,-1.7,-39.7,0.64,-0.03,0.01,0.77
1697352400.83,-0.01,-0.55,0.9,0.8,-1.7,-39.7,0.64,-0.03,0.01,0.77
1697352400.84,-0.01,-0.55,0.9,0.8,-1.7,-39.7,0.64,-0.03,0.01,0.77
1697352400.85,-0.01,-0.55,0.9,0.8,-1.7,-39.7,0.64,-0.03,0.01,0.77
1697352400.86,-0.01,-0.55,0.9,0.8,-1.7,-39.7,0.64,-0.03,0.01,0.77
1697352400.87,-0.01,-0.55,0.9,0.8,-1.7,-39.7,0.64,-0.03,0.01,0.77
1697352400.88,-0.01,-0.55,0.9,0.8,-1.7,-39.7,0.64,-0.03,0.01,0.77
1697352400.89,-0.01,-0.55,0.9,0.8,-1.7,-39.7,0.64,-0.03,0.01,0.77
1697352400.9,-0.01,-0.55,0.9,0.8,-1.7,-39.7,0.64,-0.03,0.01,0.77
1697352400.91,-0.01,-0.55,0.9,0.8,-1.7,-39.7,0.64,-0.03,0.01,0.77
1697352400.92,0.12,-0.62,1.16,-2.6,-0.6,-44.6,0.68,-0.03,0.01,0.73
1697352400.93,0.26,-0.54,1.33,-2.6,-0.6,-44.6,0.68,-0.03,0.01,0.73
1697352400.94,0.31,-0.38,0.57,-0.3,-2.3,-45.7,0.69,-0.03,0.01,0.73
1697352400.95,0.31,-0.38,0.57,1,-3.1,-46.6,0.69,-0.03,0.01,0.73
1697352400.96,0.18,-0.83,1.27,-0.2,-3.9,-45.8,0.69,-0.03,0.01,0.72
1697352400.97,0.13,-0.58,0.81,-0.5,-4.5,-45.7,0.69,-0.03,0.01,0.72
1697352400.98,0.15,-0.6,0.99,-3.6,-4.1,-44.3,0.69,-0.03,0.01,0.72
1697352400.99,0.11,-0.6,0.87,-3.4,-3.1,-43.6,0.7,-0.03,0.01,0.72
1697352401,-0.05,-0.62,1.17,-2.4,-1.8,-43.5,0.7,-0.03,0.01,0.71
1697352401.01,-0.08,-0.65,1.19,-0.6,0,-43.4,0.7,-0.03,0.01,0.71
1697352401.02,-0.12,-0.78,1.08,1.2,1.6,-44.5,0.71,-0.03,0.01,0.71
1697352401.03,-0.21,-0.82,0.84,0.4,2.6,-45.7,0.71,-0.03,0.01,0.71
1697352401.04,-0.07,-0.9,1.29,-0.2,3.4,-47.4,0.71,-0.03,0.01,0.7
1697352401.05,-0.04,-0.91,0.68,-5.2,3.3,-48.7,0.71,-0.03,0.01,0.7
1697352401.06,0.06,-0.83,1.18,-7.2,2.9,-49.8,0.72,-0.03,0.01,0.69
1697352401.07,0.16,-0.49,0.87,-5,1.7,-50.3,0.72,-0.03,0.01,0.69
1697352401.08,0.24,-0.49,0.63,-5,1.7,-50.3,0.72,-0.03,0.01,0.69
1697352401.09,0.08,-0.53,1.12,2.6,-1.5,-49.8,0.73,-0.03,0.01,0.68
1697352401.1,0.12,-0.74,0.85,5.2,-2.1,-50.2,0.73,-0.03,0.01,0.68
1697352401.11,0.09,-0.73,0.98,2.7,-2.1,-48.9,0.73,-0.03,0.01,0.68
1697352401.12,0.22,-0.87,0.5,-0.7,-2.1,-48.6,0.74,-0.03,0.01,0.68
1697352401.13,0.33,-0.81,0.96,-4.1,-2.6,-47.8,0.74,-0.03,0.01,0.68
1697352401.14,0.14,-0.68,1.27,-4.8,-2.5,-46.7,0.74,-0.03,0.01,0.67
1697352401.15,0.22,-0.54,1.2,-1.7,-2.1,-46,0.74,-0.03,0.01,0.67
1697352401.16,0.17,-0.48,1.14,2,-2,-44.8,0.75,-0.03,0.01,0.66
1697352401.17,0.18,-0.6,1.04,3.8,-1.2,-44.2,0.75,-0.03,0,0.66
1697352401.18,0.18,-0.6,1.04,3.8,-1.2,-44.2,0.75,-0.03,0,0.66
1697352401.19,-0.24,-0.44,1.67,0.7,1.9,-45.5,0.76,-0.03,0,0.65
1697352401.2,-0.24,-0.44,1.67,-2.8,4.2,-47,0.76,-0.03,0.01,0.65
1697352401.21,-0.05,-0.39,0.88,-5,4.5,-48,0.76,-0.03,0,0.65
1697352401.22,-0.05,-0.39,0.88,-1.6,4.8,-50.3,0.76,-0.03,0,0.64
1697352401.23,0.21,-0.35,0.83,0,4,-49,0.77,-0.03,0.01,0.64
1697352401.24,0.06,-0.81,1.31,3.1,2.5,-50.2,0.77,-0.03,0.01,0.64
1697352401.25,0.09,-0.74,1.12,2.9,1.9,-50.5,0.77,-0.03,0.01,0.63
1697352401.26,0.03,-0.82,1.31,-4.1,-0.8,-49.6,0.78,-0.03,0,0.63
1697352401.27,0.23,-0.56,0.8,-5.2,-1.7,-48.9,0.78,-0.03,0,0.63
1697352401.28,-0.09,-0.33,0.89,-2.7,-2,-47.5,0.78,-0.03,0,0.62
1697352401.29,-0.17,-0.39,1.06,1.1,-1.6,-46.3,0.78,-0.03,0,0.62
1697352401.3,0.16,-0.44,0.59,2.4,-1.3,-44.7,0.79,-0.03,0,0.62
1697352401.31,0.16,-0.44,0.59,2.4,-1.3,-44.7,0.79,-0.03,0,0.62
1697352401.32,0.16,-0.44,0.59,2.4,-1.3,-44.7,0.79,-0.03,0,0.62
1697352401.33,0.16,-0.44,0.59,2.4,-1.3,-44.7,0.79,-0.03,0,0.62
1697352401.34,0.16,-0.44,0.59,2.4,-1.3,-44.7,0.79,-0.03,0,0.62
1697352401.35,0.16,-0.44,0.59,2.4,-1.3,-44.7,0.79,-0.03,0,0.62
1697352401.36,0.16,-0.44,0.59,2.4,-1.3,-44.7,0.79,-0.03,0,0.62
1697352401.37,0.16,-0.44,0.59,2.4,-1.3,-44.7,0.79,-0.03,0,0.62
1697352401.38,0.16,-0.44,0.59,2.4,-1.3,-44.7,0.79,-0.03,0,0.62
1697352401.39,0.16,-0.44,0.59,2.4,-1.3,-44.7,0.79,-0.03,0,0.62
1697352401.4,0.16,-0.44,0.59,2.4,-1.3,-44.7,0.79,-0.03,0,0.62
1697352401.41,0.16,-0.44,0.59,2.4,-1.3,-44.7,0.79,-0.03,0,0.62
1697352401.42,0.16,-0.44,0.59,2.4,-1.3,-44.7,0.79,-0.03,0,0.62
1697352401.43,0.16,-0.44,0.59,2.4,-1.3,-44.7,0.79,-0.03,0,0.62
1697352401.44,0.17,-0.73,0.84,-1.3,2.7,-40.5,0.82,-0.03,0,0.58
1697352401.45,0.18,-0.57,1.1,-2.9,2.2,-40.5,0.82,-0.03,0,0.58
1697352401.46,0.13,-0.4,0.91,-3.6,1.3,-40,0.82,-0.03,0,0.57
1697352401.47,0.09,-0.37,1.05,-0.5,0.5,-39.8,0.82,-0.03,0,0.57
1697352401.48,-0.01,-0.65,1,-0.5,0.5,-39.8,0.82,-0.03,0,0.57
1697352401.49,0.2,-0.56,0.32,4.8,-0.1,-38.8,0.83,-0.03,0,0.56
1697352401.5,-0.02,-0.83,1.28,4.8,-0.1,-38.8,0.83,-0.03,0,0.56
1697352401.51,0.09,-0.78,1.02,1.7,-0.2,-38.7,0.83,-0.03,0,0.56
1697352401.52,0.11,-0.7,0.73,-0.5,0,-39.7,0.83,-0.03,0,0.56
1697352401.53,0.08,-0.52,1.15,-0.5,0,-39.7,0.83,-0.03,0,0.55
1697352401.54,0.19,-0.44,1.17,1.2,1.1,-40.6,0.83,-0.03,0,0.55
1697352401.55,0.19,-0.44,1.17,1.2,1.1,-40.6,0.84,-0.03,0,0.55
1697352401.56,0.07,-0.42,0.81,2.8,1.3,-42.1,0.84,-0.03,0,0.54
1697352401.57,0.08,-0.69,1.15,1.8,1.4,-42.4,0.84,-0.03,0,0.54
1697352401.58,0.08,-0.69,1.15,0.1,1.6,-42.3,0.84,-0.03,0,0.54
1697352401.59,0.04,-0.53,0.95,-1.8,2.2,-42,0.84,-0.03,0,0.53
1697352401.6,0.23,-0.62,0.97,-2.5,2.3,-41.8,0.85,-0.03,0,0.53
1697352401.61,0.1,-0.52,1.04,-3.1,1.9,-41.2,0.85,-0.03,0,0.53
1697352401.62,0.25,-0.55,0.92,-2.4,0.8,-40.6,0.85,-0.04,0,0.52
1697352401.63,0.07,-0.55,1.01,-1.8,0,-39.6,0.85,-0.04,0,0.52
1697352401.64,0.03,-0.59,1.04,-0.3,-0.2,-38.8,0.85,-0.04,0,0.52
1697352401.65,0.04,-0.62,1,1.7,0,-38.8,0.86,-0.04,0,0.52
1697352401.66,0.01,-0.75,0.95,1.6,0.5,-37.9,0.86,-0.03,0,0.51
1697352401.67,0.23,-0.48,0.55,2.1,1.4,-38.7,0.86,-0.03,0,0.51
1697352401.68,0.11,-0.75,1.36,-0.2,2,-38.2,0.86,-0.04,0,0.51
1697352401.69,0.19,-0.47,0.87,0.2,2.3,-38.5,0.86,-0.04,0,0.5
1697352401.7,0.28,-0.67,1.25,1.4,2.2,-38,0.86,-0.04,0,0.5
1697352401.71,-0.1,-0.91,0.89,4,1.6,-37.9,0.87,-0.03,0,0.5
1697352401.72,0.42,-0.3,0.03,0.6,-0.3,-39.5,0.87,-0.03,0,0.49
1697352401.73,0.07,-1.02,1.64,0.3,-1.4,-40.9,0.87,-0.03,0,0.49
1697352401.74,0.21,-0.43,1.12,-3.5,-1.8,-40.5,0.87,-0.03,0,0.49
1697352401.75,0.37,-0.34,0.72,-3.1,-1.7,-40.2,0.87,-0.03,0,0.49
1697352401.76,-0.22,-0.08,1.84,-0.8,-2.2,-40.2,0.88,-0.03,0,0.48
1697352401.77,0.14,-0.54,1.33,-0.6,-1.8,-39.4,0.88,-0.03,0,0.48
1697352401.78,0.26,-0.39,0.85,6.8,-2.8,-37.5,0.88,-0.03,0,0.48
1697352401.79,0.05,-0.78,1.37,6.1,-3.9,-37.2,0.88,-0.03,0,0.47
1697352401.8,0.2,-0.95,1.16,2.4,-4.3,-38,0.88,-0.03,0,0.47
1697352401.81,0.11,-0.72,0.95,2.4,-4.3,-38,0.88,-0.03,0,0.47
1697352401.82,0.11,-0.72,0.95,2.4,-4.3,-38,0.88,-0.03,0,0.47
1697352401.83,0.11,-0.72,0.95,2.4,-4.3,-38,0.88,-0.03,0,0.47
1697352401.84,0.11,-0.72,0.95,2.4,-4.3,-38,0.88,-0.03,0,0.47
1697352401.85,0.11,-0.72,0.95,2.4,-4.3,-38,0.88,-0.03,0,0.47
1697352401.86,0.11,-0.72,0.95,2.4,-4.3,-38,0.88,-0.03,0,0.47
1697352401.87,0.11,-0.72,0.95,2.4,-4.3,-38,0.88,-0.03,0,0.47
1697352401.88,0.11,-0.72,0.95,2.4,-4.3,-38,0.88,-0.03,0,0.47
1697352401.89,0.11,-0.72,0.95,2.4,-4.3,-38,0.88,-0.03,0,0.47
1697352401.9,0.11,-0.72,0.95,2.4,-4.3,-38,0.88,-0.03,0,0.47
1697352401.91,0.11,-0.72,0.95,2.4,-4.3,-38,0.88,-0.03,0,0.47
1697352401.92,0.11,-0.72,0.95,2.4,-4.3,-38,0.88,-0.03,0,0.47
1697352401.93,0.11,-0.72,0.95,2.4,-4.3,-38,0.88,-0.03,0,0.47
1697352401.94,0.11,-0.72,0.95,2.4,-4.3,-38,0.88,-0.03,0,0.47
1697352401.95,0.11,-0.72,0.95,2.4,-4.3,-38,0.88,-0.03,0,0.47
1697352401.96,0.11,-0.72,0.95,2.4,-4.3,-38,0.88,-0.03,0,0.47
1697352401.97,0.11,-0.72,0.95,2.4,-4.3,-38,0.88,-0.03,0,0.47
1697352401.98,0.11,-0.72,0.95,2.4,-4.3,-38,0.88,-0.03,0,0.47
1697352401.99,0.11,-0.72,0.95,2.4,-4.3,-38,0.88,-0.03,0,0.47
1697352402,0.11,-0.72,0.95,0.4,7.2,-38.1,0.88,-0.03,0,0.47
1697352402.01,0.14,-0.58,0.66,-2.3,5.8,-37,0.91,-0.03,0,0.41
1697352402.02,0.2,-0.51,1.02,-1.7,3.7,-36.6,0.91,-0.03,0,0.41
1697352402.03,0.07,-0.51,0.75,0.4,1.3,-36.3,0.91,-0.03,0,0.4
1697352402.04,0.14,-0.57,0.97,2.1,-0.6,-35.7,0.92,-0.03,0,0.4
1697352402.05,0.12,-0.57,0.88,3.4,-2.5,-35.7,0.92,-0.03,0,0.4
1697352402.06,0.18,-0.64,1.12,2.3,-4.2,-35.9,0.92,-0.03,0,0.39
1697352402.07,0.29,-0.47,0.7,1.2,-5.2,-36.1,0.92,-0.03,0,0.39
1697352402.08,0.26,-0.55,1.22,0.5,-5.4,-36.1,0.92,-0.03,0,0.39
1697352402.09,0.25,-0.38,0.97,0.4,-4.9,-35.8,0.92,-0.03,0,0.39
1697352402.1,0.22,-0.56,1.17,1,-3.6,-35.5,0.92,-0.03,0,0.38
1697352402.11,-0.11,-0.47,1.23,0,-0.2,-35.7,0.92,-0.03,0,0.38
1697352402.12,0.06,-0.65,0.92,-1,2.3,-37.8,0.93,-0.03,0,0.38
1697352402.13,-0.05,-0.31,0.66,-1.4,3.6,-39.2,0.93,-0.03,0,0.37
1697352402.14,-0.14,-0.6,1.48,-0.1,4.9,-40.5,0.93,-0.03,0,0.37
1697352402.15,0,-0.47,0.61,0.7,4.7,-41.1,0.93,-0.03,0,0.37
1697352402.16,0.19,-0.63,1.16,0.2,3.9,-40.9,0.93,-0.03,0,0.36
1697352402.17,0.14,-0.64,1.03,-0.9,2.2,-40.1,0.93,-0.03,0,0.36
1697352402.18,0.32,-0.64,1.24,-2.2,0.4,-38.9,0.93,-0.03,0,0.36
1697352402.19,0.23,-0.56,0.62,-2.3,-0.9,-37.6,0.93,-0.03,0,0.35
1697352402.2,0.24,-0.62,0.98,-1.3,-2.3,-36.4,0.93,-0.03,0,0.35
1697352402.21,0.25,-0.45,0.8,-1.3,-2.3,-36.4,0.94,-0.03,0,0.35
1697352402.22,0.12,-0.55,0.95,-0.1,-3.1,-34.7,0.94,-0.03,0,0.35
1697352402.23,0.12,-0.55,0.95,2,-2.7,-33.7,0.94,-0.03,0,0.34
1697352402.24,0.05,-0.57,1.14,1.3,-2.5,-33.7,0.94,-0.03,0,0.34
1697352402.25,0.12,-0.69,0.98,-0.3,-1.4,-33,0.94,-0.03,0,0.34
1697352402.26,0.15,-0.45,1.13,-0.3,0.2,-33.2,0.94,-0.03,0,0.34
1697352402.27,0.14,-0.51,0.97,-0.1,1.6,-32.9,0.94,-0.03,0,0.33
1697352402.28,0.24,-0.49,1.05,0,2,-32.9,0.94,-0.03,0,0.33
1697352402.29,0,-0.54,1.09,-0.6,4.8,-33.4,0.94,-0.03,0,0.33
1697352402.3,0.21,-0.6,1.15,-1.5,5.8,-34.2,0.95,-0.03,0,0.32
1697352402.31,0.16,-0.49,0.88,-2.2,6.8,-34.8,0.95,-0.03,0,0.32
1697352402.32,0.23,-0.59,0.98,-1.8,7.3,-35.6,0.95,-0.03,0,0.32
1697352402.33,-0.06,-0.48,1.23,0.5,6.8,-36.2,0.95,-0.03,0,0.32
1697352402.34,0.27,-0.48,0.65,2.6,5.3,-37,0.95,-0.03,0,0.31
1697352402.35,0.11,-0.73,1.05,3,4.2,-37.4,0.95,-0.03,0,0.31
1697352402.36,0.11,-0.79,0.8,1,2.5,-37.7,0.95,-0.03,0,0.31
1697352402.37,0.16,-0.62,1.05,-0.1,1,-36.2,0.95,-0.03,0,0.3
1697352402.38,0.16,-0.62,1.05,-0.1,1,-36.2,0.95,-0.03,0,0.3
1697352402.39,0.16,-0.62,1.05,-0.1,1,-36.2,0.95,-0.03,0,0.3
1697352402.4,0.16,-0.62,1.05,-0.1,1,-36.2,0.95,-0.03,0,0.3
1697352402.41,0.16,-0.62,1.05,-0.1,1,-36.2,0.95,-0.03,0,0.3
1697352402.42,0.16,-0.62,1.05,-0.1,1,-36.2,0.95,-0.03,0,0.3
1697352402.43,0.16,-0.62,1.05,-0.1,1,-36.2,0.95,-0.03,0,0.3
1697352402.44,0.16,-0.62,1.05,-0.1,1,-36.2,0.95,-0.03,0,0.3
1697352402.45,0.16,-0.62,1.05,-0.1,1,-36.2,0.95,-0.03,0,0.3
1697352402.46,0.16,-0.62,1.05,-0.1,1,-36.2,0.95,-0.03,0,0.3
1697352402.47,0.16,-0.62,1.05,-0.1,1,-36.2,0.95,-0.03,0,0.3
1697352402.48,0.16,-0.62,1.05,-0.1,1,-36.2,0.95,-0.03,0,0.3
1697352402.49,0.16,-0.62,1.05,-0.1,1,-36.2,0.95,-0.03,0,0.3
1697352402.5,0.16,-0.62,1.05,-0.1,1,-36.2,0.95,-0.03,0,0.3
1697352402.51,0.16,-0.62,1.05,-0.1,1,-36.2,0.95,-0.03,0,0.3
1697352402.52,0.29,-0.49,1.02,0,4.5,-34.3,0.96,-0.03,0.01,0.26
1697352402.53,-0.02,-0.83,1.06,-2.4,2.9,-33.7,0.97,-0.03,0.01,0.26
1697352402.54,-0.02,-0.83,1.06,-2.4,2.9,-33.7,0.97,-0.03,0.01,0.26
1697352402.55,0.14,-0.35,1.19,-3,1.3,-32.2,0.97,-0.03,0.01,0.26
1697352402.56,0.3,-0.41,0.79,1.8,-0.5,-31,0.97,-0.04,0.01,0.25
1697352402.57,0.08,-0.33,1.02,1.8,-0.5,-31,0.97,-0.04,0.01,0.25
1697352402.58,0.35,-0.53,1.02,4.4,-1.8,-29.4,0.97,-0.03,0.01,0.25
1697352402.59,-0.1,-0.63,1.05,6.5,-2.6,-28.3,0.97,-0.03,0.01,0.24
1697352402.6,0.15,-0.38,1.31,5.3,-2.9,-27.6,0.97,-0.03,0.01,0.24
1697352402.61,0.1,-0.52,1.02,3,-2.3,-26.1,0.97,-0.03,0.01,0.24
1697352402.62,0.14,-0.51,1.24,1.3,-1.9,-25.7,0.97,-0.03,0,0.24
1697352402.63,-0.01,-0.38,0.92,-1.6,-1.4,-24.9,0.97,-0.03,0,0.23
1697352402.64,0.38,0.04,0.51,0,-0.7,-25.2,0.97,-0.03,0,0.23
1697352402.65,0.08,-0.29,1.4,0.5,-0.5,-23.9,0.97,-0.03,0,0.23
1697352402.66,0.16,-0.27,1.24,2.7,-0.8,-24.4,0.97,-0.03,0,0.23
1697352402.67,0.17,-0.3,0.69,1.3,-0.4,-23.9,0.97,-0.03,0,0.23
1697352402.68,0.15,-0.19,1.3,-0.4,-1.2,-23.1,0.97,-0.03,0,0.22
1697352402.69,-0.1,-0.34,0.94,-1.1,-1.4,-22.8,0.97,-0.03,0,0.22
1697352402.7,0.16,-0.04,1.1,-0.1,-0.9,-23.4,0.97,-0.03,0,0.22
1697352402.71,0.21,-0.27,0.27,0,-0.2,-21.4,0.98,-0.03,0,0.22
1697352402.72,0.02,-0.17,1.7,3.1,0.4,-22,0.98,-0.03,0,0.22
1697352402.73,0.36,-0.41,0.48,1.7,0.6,-20.2,0.98,-0.03,0,0.21
1697352402.74,0.39,-0.37,0.41,1.3,0,-19.1,0.98,-0.03,0,0.21
1697352402.75,0.06,-0.25,1.4,-1.2,-0.3,-18.1,0.98,-0.03,0,0.21
1697352402.76,0.33,-0.41,0.64,-4.2,-1.5,-16.5,0.98,-0.03,0,0.21
1697352402.77,0.15,-0.08,0.87,-2.9,-2.3,-15.9,0.98,-0.03,0,0.21
1697352402.78,0.07,-0.12,1.62,0.7,-2.2,-15.4,0.98,-0.03,0,0.21
1697352402.79,0.13,-0.11,0.65,3.3,-1.4,-15.5,0.98,-0.03,0,0.21
1697352402.8,-0.07,-0.2,1.33,3.5,-0.3,-15.3,0.98,-0.03,0,0.2
1697352402.81,0.09,-0.26,0.97,1.9,0.9,-14.7,0.98,-0.03,0,0.2
1697352402.82,0.1,-0.15,1.03,1.5,1,-14.6,0.98,-0.03,0,0.2
1697352402.83,0.06,0.02,1.12,0,2.6,-12.4,0.98,-0.03,0,0.2
1697352402.84,0.17,-0.05,1.21,1.2,2.5,-10.7,0.98,-0.03,0,0.2
1697352402.85,0.16,0.04,0.51,3.4,2.2,-8.9,0.98,-0.03,0,0.2
1697352402.86,0.04,-0.04,1.52,3.4,2.2,-8.9,0.98,-0.03,0,0.2
1697352402.87,0.35,-0.16,0.27,5.1,0.2,-7.2,0.98,-0.03,0,0.2
1697352402.88,0.02,-0.2,1.33,5.1,0.2,-7.2,0.98,-0.03,0,0.2
1697352402.89,0.16,-0.31,0.84,0.3,-3.2,-7.2,0.98,-0.03,0,0.2
1697352402.9,0.16,-0.31,0.84,0.3,-3.2,-7.2,0.98,-0.03,0,0.2
1697352402.91,0.06,-0.16,0.9,-2.3,-4.3,-8,0.98,-0.03,0,0.2
1697352402.92,0.06,-0.16,0.9,-2.3,-4.3,-8,0.98,-0.03,0,0.2
1697352402.93,0.06,-0.16,0.9,-2.3,-4.3,-8,0.98,-0.03,0,0.2
1697352402.94,0.06,-0.16,0.9,-2.3,-4.3,-8,0.98,-0.03,0,0.2
1697352402.95,0.06,-0.16,0.9,-2.3,-4.3,-8,0.98,-0.03,0,0.2
1697352402.96,0.06,-0.16,0.9,-2.3,-4.3,-8,0.98,-0.03,0,0.2
1697352402.97,0.06,-0.16,0.9,-2.3,-4.3,-8,0.98,-0.03,0,0.2
1697352402.98,0.06,-0.16,0.9,-2.3,-4.3,-8,0.98,-0.03,0,0.2
1697352402.99,0.06,-0.16,0.9,-2.3,-4.3,-8,0.98,-0.03,0,0.2
1697352403,0.06,-0.16,0.9,-2.3,-4.3,-8,0.98,-0.03,0,0.2
1697352403.01,0.06,-0.16,0.9,-2.3,-4.3,-8,0.98,-0.03,0,0.2
1697352403.02,0.06,-0.16,0.9,-2.3,-4.3,-8,0.98,-0.03,0,0.2
1697352403.03,0.06,-0.16,0.9,-2.3,-4.3,-8,0.98,-0.03,0,0.2
1697352403.04,0.08,-0.18,0.85,3,-0.4,-0.8,0.98,-0.03,0,0.19
1697352403.05,0.25,0.09,0.75,0.5,-1.3,1.4,0.98,-0.03,0,0.19
1697352403.06,0.19,0.31,0.76,0.6,-2.6,3.8,0.98,-0.03,0,0.19
1697352403.07,0.04,0.37,0.92,3.4,-3.4,6,0.98,-0.03,0,0.19
1697352403.08,0.34,0.43,0.57,5.6,-3.5,8.2,0.98,-0.03,0,0.19
1697352403.09,0.15,0.22,0.95,5.6,-3.5,8.2,0.98,-0.03,0,0.19
1697352403.1,0.19,0.21,0.72,1.5,-3.1,10.5,0.98,-0.03,0,0.19
1697352403.11,-0.01,0.29,1.19,-0.4,-2,10.8,0.98,-0.03,0,0.19
1697352403.12,0.1,0.45,1.02,-0.6,-0.4,11.1,0.98,-0.03,0,0.19
1697352403.13,-0.03,0.51,0.94,0.6,1.2,11.9,0.98,-0.03,0,0.19
1697352403.14,-0.14,0.48,1.26,2.1,2.7,12.3,0.98,-0.03,0,0.2
1697352403.15,0.11,0.6,0.96,2.8,4.1,13.4,0.98,-0.03,0,0.2
1697352403.16,-0.11,0.47,1.18,5.7,4.5,13.7,0.98,-0.03,0,0.2
1697352403.17,0,0.45,1.32,6,4.9,14,0.98,-0.03,0,0.2
1697352403.18,0.1,0.46,1.13,4.1,5,15.7,0.98,-0.03,0,0.2
1697352403.19,0.2,0.52,0.7,3.5,4.5,16.9,0.98,-0.03,0,0.2
1697352403.2,0.08,0.53,1.22,3.5,4.5,16.9,0.98,-0.03,0,0.2
1697352403.21,0.03,0.92,1.05,-2.3,1.7,20.2,0.98,-0.03,0.01,0.21
1697352403.22,0.27,0.74,0.9,0.4,0.3,22.4,0.98,-0.03,0.01,0.21
1697352403.23,0.04,0.49,1.22,2,-1.1,24.5,0.98,-0.03,0.01,0.21
1697352403.24,0.11,0.46,1.15,2.9,-2.9,25.8,0.98,-0.03,0.01,0.21
1697352403.25,0.11,0.46,1.15,2.9,-2.9,25.8,0.98,-0.03,0.01,0.21
1697352403.26,0.01,0.44,1.25,0.4,-4.1,27.7,0.98,-0.03,0,0.21
1697352403.27,0.1,0.4,0.84,-4.7,-5.5,28.2,0.98,-0.03,0,0.22
1697352403.28,0.1,0.4,0.84,-4.7,-5.5,28.2,0.98,-0.03,0,0.22
1697352403.29,0.05,0.35,0.87,-1.2,-5.1,26,0.97,-0.03,0,0.22
1697352403.3,0.05,0.35,0.87,-1.2,-5.1,26,0.97,-0.03,0,0.22
1697352403.31,0.17,0.46,0.87,0.9,-4.5,24.1,0.97,-0.03,0,0.23
1697352403.32,0.17,0.46,0.87,1.7,-4.7,21.7,0.97,-0.03,0,0.23
1697352403.33,0.02,0.12,1.23,0.9,-4.4,20,0.97,-0.03,0,0.23
1697352403.34,-0.07,0.25,1.36,-2.1,-4.4,19.4,0.97,-0.03,0,0.23
1697352403.35,0.13,0.33,0.84,-3,-4.3,18.7,0.97,-0.03,0,0.23
1697352403.36,0.12,0.37,0.92,-3.9,-4.1,18.7,0.97,-0.03,0,0.23
1697352403.37,-0.14,0.53,1.34,-3,-3.9,18.8,0.97,-0.03,0,0.24
1697352403.38,0.28,0.48,0.48,0.2,-3.4,19,0.97,-0.03,0,0.24
1697352403.39,-0.07,0.41,0.96,1.2,-2.9,19.5,0.97,-0.03,0,0.24
1697352403.4,0,0.29,0.85,0.3,-1.3,20,0.97,-0.03,0,0.24
1697352403.41,-0.19,0.26,1.36,-0.9,-0.3,20.3,0.97,-0.03,0,0.24
1697352403.42,0.02,0.26,1.13,-2.3,1,20.8,0.97,-0.03,0,0.25
1697352403.43,0.01,0.39,0.75,-1.8,2.6,21.1,0.97,-0.03,0,0.25
1697352403.44,0.01,0.39,0.75,-1.8,2.6,21.1,0.97,-0.03,0,0.25
1697352403.45,0.01,0.39,0.75,-1.8,2.6,21.1,0.97,-0.03,0,0.25
1697352403.46,0.01,0.39,0.75,-1.8,2.6,21.1,0.97,-0.03,0,0.25
1697352403.47,0.01,0.39,0.75,-1.8,2.6,21.1,0.97,-0.03,0,0.25
1697352403.48,0.01,0.39,0.75,-1.8,2.6,21.1,0.97,-0.03,0,0.25
1697352403.49,0.01,0.39,0.75,-1.8,2.6,21.1,0.97,-0.03,0,0.25
1697352403.5,0.01,0.39,0.75,-1.8,2.6,21.1,0.97,-0.03,0,0.25
1697352403.51,0.01,0.39,0.75,-1.8,2.6,21.1,0.97,-0.03,0,0.25
1697352403.52,0.01,0.39,0.75,-1.8,2.6,21.1,0.97,-0.03,0,0.25
1697352403.53,0.01,0.39,0.75,-1.8,2.6,21.1,0.97,-0.03,0,0.25
1697352403.54,0.01,0.39,0.75,-1.8,2.6,21.1,0.97,-0.03,0,0.25
1697352403.55,0.01,0.39,0.75,-1.8,2.6,21.1,0.97,-0.03,0,0.25
1697352403.56,0.01,0.39,0.75,-1.8,2.6,21.1,0.97,-0.03,0,0.25
1697352403.57,0.01,0.39,0.75,-1.8,2.6,21.1,0.97,-0.03,0,0.25
1697352403.58,0.01,0.39,0.75,-1.8,2.6,21.1,0.97,-0.03,0,0.25
1697352403.59,0.01,0.39,0.75,-1.8,2.6,21.1,0.97,-0.03,0,0.25
1697352403.6,0.01,0.39,0.75,-1.8,2.6,21.1,0.97,-0.03,0,0.25
1697352403.61,0.01,0.39,0.75,-1.8,2.6,21.1,0.97,-0.03,0,0.25
1697352403.62,0.01,0.39,0.75,-1.8,2.6,21.1,0.97,-0.03,0,0.25
1697352403.63,0.01,0.39,0.75,-1.8,2.6,21.1,0.97,-0.03,0,0.25
1697352403.64,0.01,0.39,0.75,-1.8,2.6,21.1,0.97,-0.03,0,0.25
1697352403.65,0.01,0.39,0.75,-1.8,2.6,21.1,0.97,-0.03,0,0.25
1697352403.66,0.01,0.39,0.75,-1.8,2.6,21.1,0.97,-0.03,0,0.25
1697352403.67,0.01,0.39,0.75,-1.8,2.6,21.1,0.97,-0.03,0,0.25
1697352403.68,0.01,0.39,0.75,-1.8,2.6,21.1,0.97,-0.03,0,0.25
1697352403.69,0.01,0.39,0.75,-1.8,2.6,21.1,0.97,-0.03,0,0.25
1697352403.7,0.01,0.39,0.75,-1.8,2.6,21.1,0.97,-0.03,0,0.25
1697352403.71,0.01,0.39,0.75,-1.8,2.6,21.1,0.97,-0.03,0,0.25
1697352403.72,-0.29,1.02,1.32,-0.5,2.4,34.6,0.95,-0.03,0.01,0.32
1697352403.73,-0.07,0.71,1.1,4.7,2.1,36.6,0.95,-0.03,0.01,0.32
1697352403.74,-0.12,0.62,1.07,5.6,2.8,37.5,0.95,-0.03,0.01,0.32
1697352403.75,-0.06,0.54,0.96,2.4,2.8,37.8,0.94,-0.03,0.01,0.33
1697352403.76,-0.22,0.84,1.2,-0.6,3,38.2,0.94,-0.03,0.01,0.33
1697352403.77,-0.05,0.91,0.67,0.6,4.2,41.3,0.94,-0.03,0.01,0.33
1697352403.78,-0.11,1.14,0.62,1.7,4.1,41.6,0.94,-0.03,0.01,0.34
1697352403.79,-0.19,1.03,1.25,7.1,3.9,45.3,0.94,-0.03,0.01,0.34
1697352403.8,-0.19,0.94,0.55,8,3,47.5,0.94,-0.03,0.01,0.35
1697352403.81,-0.38,0.99,1.37,7.3,2.8,49.4,0.94,-0.03,0.01,0.35
1697352403.82,-0.26,0.91,0.45,6.2,2.7,50.8,0.94,-0.02,0.01,0.35
1697352403.83,-0.3,1.1,0.65,4.4,3.1,52.2,0.93,-0.02,0.01,0.36
1697352403.84,-0.26,1.18,0.87,1.7,2.6,54.8,0.93,-0.02,0.01,0.36
1697352403.85,-0.26,1.24,1.17,1.8,1.8,57.3,0.93,-0.02,0.01,0.36
1697352403.86,-0.17,1.1,1.11,1.1,1.5,59.7,0.93,-0.02,0.01,0.37
1697352403.87,-0.33,1.22,1.17,1,1.4,61.2,0.93,-0.02,0.01,0.38
1697352403.88,-0.18,1.26,0.82,2,1.1,63.7,0.92,-0.02,0.01,0.38
1697352403.89,-0.12,1.12,0.85,3.2,0.7,65.1,0.92,-0.02,0.01,0.39
1697352403.9,-0,1.19,0.66,4.1,0.5,66.5,0.92,-0.02,0.01,0.39
1697352403.91,-0.35,1.07,1.3,3,0.6,67.6,0.92,-0.02,0.01,0.39
1697352403.92,-0.24,1.11,0.96,1.7,0.2,68.4,0.92,-0.02,0.01,0.4
1697352403.93,-0.11,1.09,0.66,-0.1,0.8,68.9,0.91,-0.02,0.01,0.4
1697352403.94,-0.39,1.18,1.28,-0.6,1.6,69.2,0.91,-0.02,0.01,0.41
1697352403.95,-0.2,1.24,0.76,-0.1,2.6,69.7,0.91,-0.02,0.01,0.41
1697352403.96,-0.18,1.45,0.78,1,3.7,69.9,0.91,-0.02,0.02,0.42
1697352403.97,-0.38,1.42,1.09,4.3,4.5,70.6,0.9,-0.02,0.02,0.42
1697352403.98,-0.19,1.31,0.89,6.7,5.2,71.3,0.9,-0.02,0.02,0.43
1697352403.99,-0.43,1.19,1.04,7.5,5.6,71.7,0.9,-0.02,0.02,0.44
1697352404,-0.08,1.12,0.67,6.2,5.9,72.4,0.9,-0.02,0.02,0.44
1697352404.01,-0.32,1.29,1.07,3.4,5.9,73.3,0.89,-0.02,0.02,0.45
1697352404.02,-0.32,1.29,1.07,3.4,5.9,73.3,0.89,-0.02,0.02,0.45
1697352404.03,-0.23,1.47,0.87,3.6,4.6,77,0.89,-0.02,0.02,0.46
1697352404.04,-0.23,1.32,0.83,5.7,3.3,78.8,0.88,-0.02,0.02,0.47
1697352404.05,-0.17,1.31,1,6.1,2.1,80.7,0.88,-0.02,0.02,0.47
1697352404.06,-0.16,1.22,0.6,5.3,1.2,82.1,0.88,-0.02,0.02,0.48
1697352404.07,-0.3,1.24,1.28,0.3,0.6,82.9,0.87,-0.02,0.02,0.49
1697352404.08,-0.33,1.37,0.5,-1.4,0.7,82.8,0.87,-0.02,0.02,0.49
1697352404.09,-0.34,1.39,1.03,-1.1,0.8,82.4,0.87,-0.02,0.02,0.5
1697352404.1,-0.34,1.39,1.03,-1.1,0.8,82.4,0.86,-0.02,0.02,0.5
1697352404.11,-0.38,1.42,1.01,0.6,1.8,82,0.86,-0.02,0.02,0.5
1697352404.12,-0.38,1.42,1.01,0.6,1.8,82,0.86,-0.02,0.02,0.5
1697352404.13,-0.38,1.42,1.01,0.6,1.8,82,0.86,-0.02,0.02,0.5
1697352404.14,-0.38,1.42,1.01,0.6,1.8,82,0.86,-0.02,0.02,0.5
1697352404.15,-0.38,1.42,1.01,0.6,1.8,82,0.86,-0.02,0.02,0.5
1697352404.16,-0.38,1.42,1.01,0.6,1.8,82,0.86,-0.02,0.02,0.5
1697352404.17,-0.38,1.42,1.01,0.6,1.8,82,0.86,-0.02,0.02,0.5
1697352404.18,-0.38,1.42,1.01,0.6,1.8,82,0.86,-0.02,0.02,0.5
1697352404.19,-0.38,1.42,1.01,0.6,1.8,82,0.86,-0.02,0.02,0.5
1697352404.2,-0.38,1.42,1.01,0.6,1.8,82,0.86,-0.02,0.02,0.5
1697352404.21,-0.38,1.42,1.01,0.6,1.8,82,0.86,-0.02,0.02,0.5
1697352404.22,-0.38,1.42,1.01,0.6,1.8,82,0.86,-0.02,0.02,0.5
1697352404.23,-0.38,1.42,1.01,0.6,1.8,82,0.86,-0.02,0.02,0.5
1697352404.24,0.01,1.21,0.65,2.4,-1.5,80.8,0.81,-0.01,0.03,0.59
1697352404.25,-0.21,1.23,1.3,1.7,-1.4,80.1,0.8,-0.01,0.03,0.59
1697352404.26,-0.15,1.2,0.95,0.8,-1.3,79,0.8,-0.01,0.03,0.6
1697352404.27,-0.13,1.29,0.79,0,-0.6,78,0.8,-0.01,0.03,0.6
1697352404.28,-0.3,1.37,1.15,0,0.2,77,0.79,-0.01,0.03,0.61
1697352404.29,-0.32,1.22,0.89,0.2,0.9,76.5,0.79,-0.01,0.03,0.62
1697352404.3,-0.2,1.21,1.13,0.2,1.9,75.4,0.78,-0.01,0.03,0.62
1697352404.31,-0.37,1.14,1.07,-1.4,3,74.5,0.78,-0.01,0.03,0.63
1697352404.32,-0.04,1.11,0.73,-1.6,3.8,72.6,0.77,-0.01,0.03,0.63
1697352404.33,-0.19,1.02,1.19,-3.9,3.7,71,0.77,-0.01,0.03,0.63
1697352404.34,0.05,0.91,1.03,-5.3,3.1,69.2,0.77,-0.01,0.03,0.64
1697352404.35,-0.03,0.76,1.07,-6.2,1.6,66.3,0.77,-0.01,0.03,0.64
1697352404.36,-0.04,0.66,1.35,-6.6,0.1,62.9,0.76,-0.01,0.03,0.65
1697352404.37,0.16,0.59,0.73,-5.7,-1.1,58.7,0.76,-0.01,0.03,0.65
1697352404.38,0.01,0.49,1.07,-4.6,-2,54.1,0.76,-0.02,0.03,0.65
1697352404.39,0.03,0.48,0.9,-4,-2.3,49.3,0.75,-0.02,0.03,0.66
1697352404.4,-0.11,0.59,0.86,-3.7,-2.5,45.4,0.75,-0.02,0.03,0.66
1697352404.41,0.01,0.7,0.87,-3.5,-1.9,42.5,0.75,-0.02,0.03,0.67
1697352404.42,-0.28,0.76,1.11,-1.9,-0.8,40.7,0.74,-0.02,0.03,0.67
1697352404.43,-0.02,0.75,0.8,-0.3,0.3,40.1,0.74,-0.02,0.03,0.67
1697352404.44,-0.02,0.75,0.8,-0.3,0.3,40.1,0.74,-0.02,0.03,0.67
1697352404.45,-0.04,0.91,0.68,-0.5,2.5,41.9,0.74,-0.02,0.03,0.68
1697352404.46,-0.1,0.88,1.4,-1.4,3.4,44.2,0.73,-0.02,0.03,0.68
1697352404.47,-0.13,0.92,0.59,-0.7,3.6,46.6,0.73,-0.02,0.03,0.68
1697352404.48,-0.1,0.96,1.28,0.1,3.5,49.5,0.73,-0.02,0.03,0.68
1697352404.49,-0.14,0.88,0.84,1.4,2.9,52.2,0.72,-0.02,0.03,0.69
1697352404.5,-0.09,0.85,1.2,1.4,2.9,52.2,0.72,-0.02,0.03,0.69
1697352404.51,-0.05,0.9,0.99,2.3,2.4,57.4,0.72,-0.02,0.03,0.7
1697352404.52,-0.05,0.9,0.99,2.3,2.4,57.4,0.71,-0.02,0.03,0.7
1697352404.53,-0.12,0.94,0.73,2,1.2,59.3,0.71,-0.02,0.03,0.7
1697352404.54,-0.12,0.94,0.73,2,1.2,59.3,0.71,-0.02,0.03,0.7
1697352404.55,-0.13,0.91,1.43,1.5,0.9,59.7,0.7,-0.01,0.03,0.71
1697352404.56,-0.08,1.04,0.96,1.1,0.8,59.8,0.7,-0.01,0.03,0.71
1697352404.57,-0.08,1.04,0.96,1.6,1,59.5,0.7,-0.01,0.03,0.72
1697352404.58,-0.16,1.01,0.84,2.7,1.5,59.1,0.69,-0.01,0.03,0.72
1697352404.59,-0.1,0.9,0.37,3.3,1.6,58.8,0.69,-0.01,0.03,0.72
1697352404.6,-0.11,1.08,1.29,1.9,1.8,58.5,0.69,-0.01,0.03,0.72
1697352404.61,-0.12,1.1,0.77,0.1,1.9,58.7,0.68,-0.01,0.03,0.73
1697352404.62,0.07,1.13,0.86,-0.1,1.8,58.8,0.68,-0.01,0.03,0.74
1697352404.63,0.07,1.13,0.86,-0.1,1.8,58.8,0.68,-0.01,0.03,0.74
1697352404.64,0.07,1.13,0.86,-0.1,1.8,58.8,0.68,-0.01,0.03,0.74
1697352404.65,0.07,1.13,0.86,-0.1,1.8,58.8,0.68,-0.01,0.03,0.74
1697352404.66,0.07,1.13,0.86,-0.1,1.8,58.8,0.68,-0.01,0.03,0.74
1697352404.67,0.07,1.13,0.86,-0.1,1.8,58.8,0.68,-0.01,0.03,0.74
1697352404.68,0.07,1.13,0.86,-0.1,1.8,58.8,0.68,-0.01,0.03,0.74
1697352404.69,0.07,1.13,0.86,-0.1,1.8,58.8,0.68,-0.01,0.03,0.74
1697352404.7,0.07,1.13,0.86,-0.1,1.8,58.8,0.68,-0.01,0.03,0.74
1697352404.71,0.07,1.13,0.86,-0.1,1.8,58.8,0.68,-0.01,0.03,0.74
1697352404.72,0.07,1.13,0.86,-0.1,1.8,58.8,0.68,-0.01,0.03,0.74
1697352404.73,0.07,1.13,0.86,-0.1,1.8,58.8,0.68,-0.01,0.03,0.74
1697352404.74,0.07,1.13,0.86,-0.1,1.8,58.8,0.68,-0.01,0.03,0.74
1697352404.75,0.07,1.13,0.86,-0.1,1.8,58.8,0.68,-0.01,0.03,0.74
1697352404.76,0.07,1.13,0.86,-0.1,1.8,58.8,0.68,-0.01,0.03,0.74
1697352404.77,-0.19,1.13,0.93,-0.3,3.4,67,0.62,-0.01,0.03,0.79
1697352404.78,-0.1,1.05,1.13,1.6,2,68,0.61,-0.01,0.03,0.79
1697352404.79,-0.1,1.03,0.77,1.6,2,68,0.61,-0.01,0.03,0.79
1697352404.8,-0.15,0.98,0.85,0,1.3,68.7,0.6,-0.01,0.04,0.8
1697352404.81,-0.11,0.98,1.21,-0.8,0.9,68.6,0.59,-0.01,0.04,0.81
1697352404.82,-0.08,1.07,0.7,-0.6,0.6,68.6,0.59,-0.01,0.04,0.81
1697352404.83,-0.05,0.96,1.09,-0.3,0.4,68.3,0.58,-0.01,0.04,0.81
1697352404.84,-0.08,1.16,0.76,0,0.3,67.7,0.58,-0.01,0.04,0.82
1697352404.85,-0.05,1.09,0.77,0,0.3,67.7,0.58,-0.01,0.04,0.82
1697352404.86,-0.07,1.06,0.99,0.3,0.3,67,0.57,-0.01,0.04,0.82
1697352404.87,-0.06,1.09,0.95,0,0.5,66.6,0.57,-0.01,0.04,0.82
1697352404.88,0.03,1.01,1.05,0,0.2,66,0.56,-0.01,0.04,0.83
1697352404.89,-0.15,0.9,1.46,-0.4,0.3,65.1,0.55,-0.01,0.04,0.83
1697352404.9,-0.15,0.9,1.46,-0.4,0.3,65.1,0.55,-0.01,0.04,0.83
1697352404.91,-0.13,0.85,1.25,-3.4,1.2,62.5,0.54,-0.01,0.04,0.84
1697352404.92,-0.13,0.85,1.25,-3.4,1.2,62.5,0.54,-0.01,0.04,0.84
1697352404.93,-0.07,0.7,1.46,-4.9,2.1,58.5,0.54,-0.01,0.04,0.84
1697352404.94,-0.07,0.7,1.46,-4.9,2.1,58.5,0.53,-0.01,0.04,0.84
1697352404.95,0.13,0.6,0.58,-5.4,2.4,56.2,0.53,-0.01,0.03,0.85
1697352404.96,0.12,0.48,1.31,-4.7,2.1,53.4,0.53,-0.01,0.03,0.85
1697352404.97,0.07,0.29,0.79,-3.9,2,49.8,0.52,-0.01,0.03,0.85
1697352404.98,0.02,0.2,1.22,-3.4,1.3,44.4,0.52,-0.01,0.03,0.85
1697352404.99,0.19,0.16,0.81,-4.5,0.7,40.3,0.52,-0.01,0.03,0.86
1697352405,-0.07,0.3,0.93,-5.4,-0.1,35.8,0.51,-0.01,0.03,0.86
1697352405.01,0.17,0.27,0.83,-6.1,-0.8,32.9,0.51,-0.01,0.03,0.86
1697352405.02,0.12,0.37,0.98,-5,-1.6,29.9,0.51,-0.01,0.03,0.86
1697352405.03,0.19,0.16,0.91,-3.8,-2.2,27.6,0.51,-0.01,0.03,0.86
1697352405.04,0.22,0.08,0.93,-3,-2.4,25.5,0.5,-0.01,0.03,0.86
1697352405.05,0.25,-0.04,0.86,-3.9,-2.4,23,0.5,-0.01,0.03,0.86
1697352405.06,0.13,0.09,0.98,-6.7,-2.8,21,0.5,-0.01,0.03,0.86
1697352405.07,0.1,0.13,0.88,-8.6,-2,18.8,0.5,-0.01,0.03,0.86
1697352405.08,0.13,0.06,0.85,-7.2,-0.8,17.9,0.5,-0.01,0.03,0.87
1697352405.09,0,-0.12,1.14,-5.1,0.1,17.3,0.5,-0.01,0.03,0.87
1697352405.1,0.19,-0.32,0.72,-4,1,16,0.5,-0.01,0.03,0.87
1697352405.11,0.08,-0.38,1.36,-5.2,1.6,13.8,0.5,-0.01,0.03,0.87
1697352405.12,0.14,-0.37,0.68,-7.3,1.5,10.9,0.49,-0.01,0.03,0.87
1697352405.13,0.18,-0.12,1.35,-8,1.4,7.7,0.49,-0.02,0.03,0.87
1697352405.14,0.29,-0.22,0.86,-5.5,1.2,4.6,0.49,-0.02,0.03,0.87
1697352405.15,0.18,-0.15,1.18,-5.5,1.2,4.6,0.49,-0.02,0.03,0.87
1697352405.16,0.18,-0.15,1.18,-5.5,1.2,4.6,0.49,-0.02,0.03,0.87
1697352405.17,0.18,-0.15,1.18,-5.5,1.2,4.6,0.49,-0.02,0.03,0.87
1697352405.18,0.18,-0.15,1.18,-5.5,1.2,4.6,0.49,-0.02,0.03,0.87
1697352405.19,0.18,-0.15,1.18,-5.5,1.2,4.6,0.49,-0.02,0.03,0.87
1697352405.2,0.18,-0.15,1.18,-5.5,1.2,4.6,0.49,-0.02,0.03,0.87
1697352405.21,0.18,-0.15,1.18,-5.5,1.2,4.6,0.49,-0.02,0.03,0.87
1697352405.22,0.18,-0.15,1.18,-5.5,1.2,4.6,0.49,-0.02,0.03,0.87
1697352405.23,0.18,-0.15,1.18,-5.5,1.2,4.6,0.49,-0.02,0.03,0.87
1697352405.24,0.18,-0.15,1.18,-5.5,1.2,4.6,0.49,-0.02,0.03,0.87
1697352405.25,0.18,-0.15,1.18,-5.5,1.2,4.6,0.49,-0.02,0.03,0.87
1697352405.26,0.18,-0.15,1.18,-5.5,1.2,4.6,0.49,-0.02,0.03,0.87
1697352405.27,0.18,-0.15,1.18,-5.5,1.2,4.6,0.49,-0.02,0.03,0.87
1697352405.28,0.18,-0.15,1.18,-5.5,1.2,4.6,0.49,-0.02,0.03,0.87
1697352405.29,0.2,-0.62,0.65,-2.5,-0.3,-13.2,0.5,-0.02,0.03,0.87
1697352405.3,0.14,-0.74,0.65,-4.8,-0.3,-17,0.5,-0.02,0.02,0.87
1697352405.31,-0.02,-0.6,0.89,-5.5,-0.4,-20,0.5,-0.02,0.02,0.86
1697352405.32,0.06,-0.59,0.86,-5.6,-0.4,-22.4,0.5,-0.02,0.02,0.86
1697352405.33,-0.08,-0.6,1.3,-5.2,-0.4,-24.9,0.5,-0.02,0.02,0.86
1697352405.34,0.17,-0.7,0.9,-5.7,-0.1,-27.1,0.51,-0.02,0.02,0.86
1697352405.35,0.03,-0.72,0.91,-5.6,-0.2,-29.2,0.51,-0.02,0.02,0.86
1697352405.36,-0.01,-0.74,0.9,-5.7,-0.2,-29.7,0.51,-0.02,0.02,0.86
1697352405.37,-0,-0.82,1.29,-5.4,-0.2,-31.6,0.51,-0.02,0.02,0.86
1697352405.38,-0.09,-0.8,0.98,-4.6,0.3,-33.5,0.52,-0.02,0.02,0.86
1697352405.39,-0.12,-0.89,1.49,-4.2,1,-35.9,0.52,-0.02,0.02,0.85
1697352405.4,-0.25,-0.97,0.95,-4.5,1.5,-38,0.52,-0.02,0.02,0.85
1697352405.41,-0.05,-0.93,0.97,-3,1.9,-40.8,0.53,-0.02,0.02,0.85
1697352405.42,-0.03,-0.75,0.8,-3.8,1.7,-42.7,0.53,-0.02,0.02,0.85
1697352405.43,-0.09,-0.82,1.39,-2.8,1.7,-43.9,0.53,-0.02,0.02,0.85
1697352405.44,0.08,-0.85,0.59,-0.5,1.2,-44.5,0.54,-0.02,0.02,0.84
1697352405.45,-0.08,-0.98,1.05,0.1,1.5,-44.6,0.54,-0.02,0.02,0.84
1697352405.46,-0.02,-1.04,0.8,-0.3,1.4,-45.1,0.54,-0.02,0.02,0.84
1697352405.47,-0.02,-1.02,1.15,-3.5,0.7,-45.6,0.55,-0.02,0.02,0.84
1697352405.48,-0.15,-0.93,0.89,-3.4,0.3,-46.4,0.55,-0.02,0.02,0.83
1697352405.49,-0.15,-0.93,0.89,-3.4,0.3,-46.4,0.55,-0.02,0.02,0.83
1697352405.5,-0.14,-0.97,0.92,-1.6,0.5,-48.8,0.55,-0.02,0.02,0.83
1697352405.51,-0.04,-1.01,0.99,-0.3,0.4,-50.4,0.56,-0.02,0.02,0.83
1697352405.52,-0.26,-0.98,1.27,0,0.3,-51.8,0.56,-0.02,0.02,0.83
1697352405.53,-0.13,-1.03,0.91,-0.6,0.5,-53.4,0.57,-0.02,0.02,0.82
1697352405.54,-0.12,-1.01,1.51,-0.7,0.8,-54.3,0.57,-0.02,0.02,0.82
1697352405.55,-0.12,-1.01,1.51,-0.7,0.8,-54.3,0.57,-0.02,0.02,0.82
1697352405.56,-0.08,-0.88,1.49,-0.4,0,-54.2,0.58,-0.02,0.02,0.82
1697352405.57,-0.08,-0.88,1.49,-0.4,0,-54.2,0.58,-0.02,0.02,0.81
1697352405.58,0.09,-0.85,0.79,-0.8,-0.1,-53.5,0.58,-0.02,0.02,0.81
1697352405.59,-0.19,-0.84,0.94,-1.2,0.2,-52.5,0.59,-0.02,0.02,0.81
1697352405.6,-0.24,-0.77,1.24,-0.7,1.6,-51.2,0.59,-0.02,0.02,0.81
1697352405.61,-0.11,-0.76,0.87,0.3,2.6,-50.5,0.6,-0.02,0.02,0.8
1697352405.62,-0.25,-0.99,0.96,1.8,3.6,-51.2,0.6,-0.02,0.02,0.8
1697352405.63,-0.08,-0.92,0.82,-0.6,3.6,-51.4,0.6,-0.02,0.02,0.8
1697352405.64,-0.07,-1.21,0.77,-2.9,3.4,-52.4,0.61,-0.02,0.02,0.79
1697352405.65,0.21,-0.8,0.81,-3.3,1.8,-52.9,0.61,-0.02,0.02,0.79
1697352405.66,0.2,-0.67,0.83,-2.8,1.6,-53.2,0.61,-0.02,0.02,0.79
1697352405.67,-0.03,-0.77,1.09,-0.1,0.8,-53.3,0.61,-0.02,0.02,0.79
1697352405.68,0.09,-0.82,1.09,2.1,0.2,-52.2,0.62,-0.02,0.02,0.78
1697352405.69,0.09,-0.82,1.09,2.1,0.2,-52.2,0.62,-0.02,0.02,0.78
1697352405.7,0.09,-0.82,1.09,2.1,0.2,-52.2,0.62,-0.02,0.02,0.78
1697352405.71,0.09,-0.82,1.09,2.1,0.2,-52.2,0.62,-0.02,0.02,0.78
1697352405.72,0.09,-0.82,1.09,2.1,0.2,-52.2,0.62,-0.02,0.02,0.78
1697352405.73,0.09,-0.82,1.09,2.1,0.2,-52.2,0.62,-0.02,0.02,0.78
1697352405.74,0.09,-0.82,1.09,2.1,0.2,-52.2,0.62,-0.02,0.02,0.78
1697352405.75,0.09,-0.82,1.09,2.1,0.2,-52.2,0.62,-0.02,0.02,0.78
1697352405.76,0.09,-0.82,1.09,2.1,0.2,-52.2,0.62,-0.02,0.02,0.78
1697352405.77,0.09,-0.82,1.09,2.1,0.2,-52.2,0.62,-0.02,0.02,0.78
1697352405.78,0.09,-0.82,1.09,2.1,0.2,-52.2,0.62,-0.02,0.02,0.78
1697352405.79,0.09,-0.82,1.09,2.1,0.2,-52.2,0.62,-0.02,0.02,0.78
1697352405.8,0.09,-0.82,1.09,2.1,0.2,-52.2,0.62,-0.02,0.02,0.78
1697352405.81,-0.12,-0.69,1.5,-2.8,-0.1,-52.4,0.67,-0.03,0.02,0.74
1697352405.82,-0.12,-0.69,1.5,-2.8,-0.1,-52.4,0.67,-0.03,0.02,0.74
1697352405.83,0.16,-0.62,0.49,3.6,-1.5,-51.8,0.67,-0.03,0.02,0.74
1697352405.84,0.16,-0.62,0.49,3.6,-1.5,-51.8,0.67,-0.03,0.02,0.74
1697352405.85,-0.04,-1.02,1.35,2.5,-1.6,-51.3,0.68,-0.03,0.02,0.73
1697352405.86,0.2,-1.07,0.69,-0.2,-1.7,-50.8,0.68,-0.03,0.02,0.73
1697352405.87,-0.06,-0.67,1.04,-3.2,-2.1,-51.1,0.68,-0.03,0.01,0.73
1697352405.88,-0.06,-0.67,1.04,-3.3,-1.5,-50.8,0.69,-0.03,0.01,0.73
1697352405.89,0.13,-0.63,1.23,-0.3,-0.3,-49.7,0.69,-0.03,0.01,0.72
1697352405.9,0.13,-0.63,1.23,4.1,-0.1,-49.1,0.69,-0.03,0.01,0.72
1697352405.91,-0.03,-0.84,0.97,3.2,1.5,-48.7,0.7,-0.03,0.01,0.72
1697352405.92,0.2,-1.04,0.44,-1.3,3,-48.9,0.7,-0.03,0.01,0.71
1697352405.93,-0.18,-0.78,2.15,-1.3,3,-48.9,0.7,-0.03,0.01,0.71
1697352405.94,0.18,-0.95,0.55,-3.6,2.8,-49.3,0.71,-0.03,0.01,0.71
1697352405.95,-0.02,-0.56,1.58,-2.9,3,-48.9,0.71,-0.03,0.01,0.71
1697352405.96,-0.14,-1,1.51,0,2.1,-49.3,0.71,-0.03,0.01,0.7
1697352405.97,0.29,-0.88,0.68,0.9,0.8,-49.6,0.72,-0.03,0.01,0.7
1697352405.98,-0.04,-1.02,1.48,2.4,0.5,-50.3,0.72,-0.03,0.01,0.69
1697352405.99,-0.04,-0.95,1.22,1.5,-0.3,-50.3,0.72,-0.03,0.01,0.69
1697352406,-0.09,-0.66,1.41,1.4,-0.9,-51.2,0.73,-0.03,0.01,0.69
1697352406.01,0.22,-0.83,0.57,1.9,-1.2,-50.6,0.73,-0.03,0.01,0.69
1697352406.02,0.21,-0.72,0.83,3,-0.9,-50,0.73,-0.03,0.01,0.68
1697352406.03,0.02,-1.03,1.37,2.7,-0.2,-48.7,0.73,-0.03,0.01,0.68
1697352406.04,-0.05,-0.9,1.25,0.1,0.4,-47.8,0.74,-0.03,0.01,0.67
1697352406.05,0.48,-0.78,0.6,-1.8,2.3,-47.6,0.74,-0.03,0.01,0.67
1697352406.06,-0.15,-0.85,1.4,-1.9,3.4,-47.2,0.74,-0.03,0.01,0.67
1697352406.07,0.27,-1.12,0.8,-2.1,3.3,-47.1,0.75,-0.03,0.01,0.67
1697352406.08,-0.01,-0.7,1.14,-2.1,3,-48.2,0.75,-0.03,0.01,0.66
1697352406.09,-0.04,-1.1,1.3,-0.4,2.3,-49.3,0.75,-0.03,0.01,0.66
1697352406.1,-0.09,-0.81,1.26,-0.5,1.6,-50.7,0.76,-0.03,0.01,0.65
1697352406.11,0.12,-0.92,0.98,-0.6,0.8,-51.1,0.76,-0.03,0.01,0.65
1697352406.12,0.12,-0.92,0.98,-0.6,0.8,-51.1,0.76,-0.03,0.01,0.65
1697352406.13,0.06,-0.9,1.2,1.9,-0.1,-51.7,0.76,-0.03,0.01,0.64
1697352406.14,0.35,-0.95,0.63,1.5,-0.5,-51.7,0.77,-0.03,0.01,0.64
1697352406.15,0.07,-0.78,1.03,0,-0.3,-51.6,0.77,-0.03,0.01,0.64
1697352406.16,0.03,-0.82,1.17,-1.1,-0.7,-51,0.77,-0.03,0.01,0.63
1697352406.17,0.03,-0.82,1.17,-1.1,-0.7,-51,0.77,-0.03,0.01,0.63
1697352406.18,0.14,-0.7,0.83,2,-0.3,-48.3,0.77,-0.03,0.01,0.63
1697352406.19,0.14,-0.7,0.83,2,-0.3,-48.3,0.78,-0.03,0.01,0.63
1697352406.2,0.14,-0.7,0.83,2,-0.3,-48.3,0.78,-0.03,0.01,0.63
1697352406.21,0.14,-0.7,0.83,2,-0.3,-48.3,0.78,-0.03,0.01,0.63
1697352406.22,0.14,-0.7,0.83,2,-0.3,-48.3,0.78,-0.03,0.01,0.63
1697352406.23,0.14,-0.7,0.83,2,-0.3,-48.3,0.78,-0.03,0.01,0.63
1697352406.24,0.14,-0.7,0.83,2,-0.3,-48.3,0.78,-0.03,0.01,0.63
1697352406.25,0.14,-0.7,0.83,2,-0.3,-48.3,0.78,-0.03,0.01,0.63
1697352406.26,0.14,-0.7,0.83,2,-0.3,-48.3,0.78,-0.03,0.01,0.63
1697352406.27,0.14,-0.7,0.83,2,-0.3,-48.3,0.78,-0.03,0.01,0.63
1697352406.28,0.14,-0.7,0.83,2,-0.3,-48.3,0.78,-0.03,0.01,0.63
1697352406.29,0.14,-0.7,0.83,2,-0.3,-48.3,0.78,-0.03,0.01,0.63
1697352406.3,0.14,-0.7,0.83,2,-0.3,-48.3,0.78,-0.03,0.01,0.63
1697352406.31,0.14,-0.7,0.83,2,-0.3,-48.3,0.78,-0.03,0.01,0.63
1697352406.32,0.14,-0.7,0.83,2,-0.3,-48.3,0.78,-0.03,0.01,0.63
1697352406.33,-0.16,0.1,1.24,4.6,1,-16.4,0.8,-0.03,0.02,0.6
1697352406.34,0.01,0.12,1.06,4,1,-12.6,0.8,-0.03,0.02,0.6
1697352406.35,0.21,0.16,0.64,4.4,2,-10.1,0.8,-0.03,0.02,0.6
1697352406.36,0.27,0.19,0.59,3.8,2.3,-7,0.8,-0.03,0.02,0.6
1697352406.37,0.03,0.2,1.03,3,2.4,-3.6,0.8,-0.03,0.02,0.59
1697352406.38,-0.15,0.26,1.36,3,2.4,-3.6,0.8,-0.03,0.02,0.59
1697352406.39,0.03,0.19,1.15,3,2.4,-3.6,0.8,-0.03,0.02,0.59
1697352406.4,0,0.07,0.81,1.5,1.3,0.2,0.8,-0.03,0.02,0.59
1697352406.41,-0.19,0.21,1.38,0.5,0.7,0.9,0.8,-0.03,0.02,0.59
1697352406.42,0.08,0.11,0.6,-1.6,0,1.5,0.8,-0.03,0.02,0.59
1697352406.43,-0.05,0.39,1.23,-1.6,0,1.5,0.8,-0.03,0.02,0.59
1697352406.44,-0.17,0.18,1.3,4.3,-0.6,2.7,0.8,-0.03,0.02,0.59
1697352406.45,-0.01,0.08,0.96,4.9,0,2.9,0.8,-0.03,0.02,0.59
1697352406.46,-0.14,0.07,0.79,3.1,0.1,3.2,0.8,-0.03,0.02,0.6
1697352406.47,-0.14,0.07,0.79,3.1,0.1,3.2,0.8,-0.03,0.02,0.6
1697352406.48,-0.02,0.27,1.11,1.9,0,4.7,0.8,-0.03,0.02,0.6
1697352406.49,0.06,0.31,1.01,1.9,0,4.7,0.8,-0.03,0.02,0.6
1697352406.5,0.14,0.26,0.75,2.9,0.5,7.7,0.8,-0.03,0.02,0.6
1697352406.51,-0,0.31,1.08,2.9,0.5,7.7,0.8,-0.03,0.02,0.6
1697352406.52,-0,0.31,1.08,2.4,0.4,9.4,0.8,-0.03,0.02,0.6
1697352406.53,-0.1,0.54,1.32,1.5,0.3,11.5,0.8,-0.03,0.02,0.6
1697352406.54,-0.1,0.54,1.32,1.5,0.3,11.5,0.8,-0.03,0.02,0.6
1697352406.55,-0.02,0.49,1.03,1.5,0.5,13.1,0.8,-0.03,0.02,0.6
1697352406.56,-0.1,0.54,0.86,1.9,0.6,15,0.8,-0.03,0.02,0.6
1697352406.57,-0.1,0.54,0.86,2.7,0.7,17,0.8,-0.03,0.02,0.6
1697352406.58,-0.1,0.54,0.86,2.7,0.7,17,0.8,-0.03,0.02,0.6
1697352406.59,-0.1,0.54,0.86,2.7,0.7,17,0.8,-0.03,0.02,0.6
1697352406.6,-0.1,0.54,0.86,2.7,0.7,17,0.8,-0.03,0.02,0.6
1697352406.61,-0.1,0.54,0.86,2.7,0.7,17,0.8,-0.03,0.02,0.6
1697352406.62,-0.1,0.54,0.86,2.7,0.7,17,0.8,-0.03,0.02,0.6
1697352406.63,-0.1,0.54,0.86,2.7,0.7,17,0.8,-0.03,0.02,0.6
1697352406.64,-0.1,0.54,0.86,2.7,0.7,17,0.8,-0.03,0.02,0.6
1697352406.65,-0.1,0.54,0.86,2.7,0.7,17,0.8,-0.03,0.02,0.6
1697352406.66,-0.1,0.54,0.86,2.7,0.7,17,0.8,-0.03,0.02,0.6
1697352406.67,-0.1,0.54,0.86,2.7,0.7,17,0.8,-0.03,0.02,0.6
1697352406.68,-0.1,0.54,0.86,2.7,0.7,17,0.8,-0.03,0.02,0.6
1697352406.69,-0.1,0.54,0.86,2.7,0.7,17,0.8,-0.03,0.02,0.6
1697352406.7,-0.1,0.54,0.86,2.7,0.7,17,0.8,-0.03,0.02,0.6
1697352406.71,0.14,0.56,0.65,0.7,2.1,28.5,0.78,-0.02,0.02,0.63
1697352406.72,-0.06,0.57,1.4,-0.3,1.7,28.7,0.77,-0.02,0.02,0.63
1697352406.73,0.12,0.67,1.02,-0.8,0.6,28.5,0.77,-0.02,0.02,0.63
1697352406.74,0.1,0.53,0.8,0.3,-0.5,28.4,0.77,-0.02,0.02,0.64
1697352406.75,0.06,0.54,0.96,0.7,-1.3,28.6,0.77,-0.02,0.02,0.64
1697352406.76,-0.03,0.46,0.99,1,-2.6,28.1,0.77,-0.02,0.02,0.64
1697352406.77,0.2,0.33,0.76,-0.2,-2.9,27.7,0.77,-0.02,0.02,0.64
1697352406.78,-0.04,0.46,1.15,-1.4,-3.1,27.1,0.76,-0.02,0.02,0.64
1697352406.79,0.07,0.42,1.05,-1.6,-2.6,26.3,0.76,-0.02,0.02,0.64
1697352406.8,-0.05,0.29,1.13,-0.7,-1,24.4,0.76,-0.02,0.02,0.65
1697352406.81,-0.07,0.31,1.03,-1.2,0.2,23.6,0.76,-0.02,0.02,0.65
1697352406.82,0.23,0.33,0.77,-1.2,0.2,23.6,0.76,-0.02,0.02,0.65
1697352406.83,0.04,0.37,0.98,-0.5,1.9,22.3,0.76,-0.02,0.02,0.65
1697352406.84,-0.02,0.29,1.05,-0.3,2.4,22,0.76,-0.02,0.02,0.65
1697352406.85,-0.02,0.29,1.05,-0.3,2.4,22,0.76,-0.02,0.02,0.65
1697352406.86,0.27,0.38,0.68,-1.4,2.6,21.9,0.76,-0.02,0.02,0.65
1697352406.87,0.27,0.38,0.68,-1.4,2.6,21.9,0.76,-0.02,0.02,0.65
1697352406.88,-0.07,0.45,1.18,-1.7,2.5,21.8,0.75,-0.02,0.02,0.66
1697352406.89,-0.07,0.45,1.18,-1.5,1.9,22,0.75,-0.02,0.02,0.66
1697352406.9,0.07,0.45,1.07,-0.1,1,22.2,0.75,-0.02,0.02,0.66
1697352406.91,0.18,0.4,0.78,0.8,0.8,22.4,0.75,-0.02,0.02,0.66
1697352406.92,-0.04,0.39,1.3,1.6,0,22.1,0.75,-0.02,0.02,0.66
1697352406.93,-0,0.33,1.2,1.5,-1.1,22,0.75,-0.02,0.02,0.66
1697352406.94,0.33,0.31,0.61,1.1,-2.1,21.6,0.74,-0.02,0.02,0.67
1697352406.95,-0,0.36,1.13,0.2,-2.4,21.3,0.74,-0.02,0.02,0.67
1697352406.96,0.06,0.37,1.18,0.2,-2.4,21.3,0.74,-0.02,0.02,0.67
1697352406.97,-0.06,0.43,1.07,-0.2,-1.9,20.6,0.74,-0.02,0.02,0.67
1697352406.98,0,0.41,0.95,-0.5,-1.6,20.4,0.74,-0.02,0.02,0.67
1697352406.99,0.08,0.29,0.85,0,-1,20.5,0.74,-0.02,0.02,0.67
1697352407,-0.02,0.36,1.05,-0.8,0,20.4,0.74,-0.02,0.02,0.67
1697352407.01,-0.1,0.42,1.19,-2.4,0.5,20.7,0.74,-0.02,0.02,0.68
1697352407.02,0.09,0.47,0.89,-2.8,0.9,21.4,0.74,-0.02,0.02,0.68
1697352407.03,0.09,0.5,0.7,-1.7,1.2,21.9,0.73,-0.02,0.02,0.68
1697352407.04,-0.14,0.42,1.33,0.6,0.8,22.6,0.73,-0.02,0.02,0.68
1697352407.05,-0.1,0.39,1.29,2.5,0.6,22.9,0.73,-0.02,0.02,0.68
1697352407.06,0.01,0.31,0.98,2.5,0.6,22.9,0.73,-0.02,0.02,0.68
1697352407.07,0.2,0.33,0.58,2.5,-0.2,23,0.73,-0.02,0.02,0.69
1697352407.08,-0.13,0.3,1.2,2.2,-0.3,22.6,0.73,-0.02,0.02,0.69
1697352407.09,-0.09,0.34,0.85,0.7,-0.3,22.1,0.73,-0.02,0.02,0.69
1697352407.1,-0.08,0.4,0.83,-0.7,0.3,21.7,0.72,-0.02,0.02,0.69
1697352407.11,-0.08,0.4,0.83,-0.7,0.3,21.7,0.72,-0.02,0.02,0.69
1697352407.12,-0.08,0.4,0.83,-0.7,0.3,21.7,0.72,-0.02,0.02,0.69
1697352407.13,-0.08,0.4,0.83,-0.7,0.3,21.7,0.72,-0.02,0.02,0.69
1697352407.14,-0.08,0.4,0.83,-0.7,0.3,21.7,0.72,-0.02,0.02,0.69
1697352407.15,-0.08,0.4,0.83,-0.7,0.3,21.7,0.72,-0.02,0.02,0.69
1697352407.16,-0.08,0.4,0.83,-0.7,0.3,21.7,0.72,-0.02,0.02,0.69
1697352407.17,-0.08,0.4,0.83,-0.7,0.3,21.7,0.72,-0.02,0.02,0.69
1697352407.18,-0.08,0.4,0.83,-0.7,0.3,21.7,0.72,-0.02,0.02,0.69
1697352407.19,-0.08,0.4,0.83,-0.7,0.3,21.7,0.72,-0.02,0.02,0.69
1697352407.2,-0.08,0.4,0.83,-0.7,0.3,21.7,0.72,-0.02,0.02,0.69
1697352407.21,-0.08,0.4,0.83,-0.7,0.3,21.7,0.72,-0.02,0.02,0.69
1697352407.22,-0.08,0.4,0.83,-0.7,0.3,21.7,0.72,-0.02,0.02,0.69
1697352407.23,-0.08,0.4,0.83,-0.7,0.3,21.7,0.72,-0.02,0.02,0.69
1697352407.24,-0.05,0.17,0.85,-0.6,-4.8,16.6,0.71,-0.02,0.03,0.7
1697352407.25,-0.17,0.26,1.04,-0.6,-4.8,16.6,0.71,-0.02,0.03,0.7
1697352407.26,-0.01,0.26,0.64,-0.1,-4.8,17.3,0.71,-0.02,0.03,0.71
1697352407.27,-0.01,0.26,0.64,1.2,-4.4,17.3,0.71,-0.02,0.03,0.71
1697352407.28,-0.04,0.27,0.8,1.7,-3.7,17.5,0.71,-0.02,0.02,0.71
1697352407.29,-0.18,0.21,1.28,0.7,-2.7,17.4,0.7,-0.02,0.02,0.71
1697352407.3,-0.15,0.22,1.19,0.1,-2.2,17.3,0.7,-0.02,0.02,0.71
1697352407.31,-0.25,0.32,1.09,-2.2,-0.8,17.2,0.7,-0.02,0.02,0.71
1697352407.32,-0.09,0.45,0.98,-3.3,0.7,17,0.7,-0.02,0.02,0.71
1697352407.33,-0.11,0.46,0.68,-1.6,2.1,17.3,0.7,-0.02,0.02,0.71
1697352407.34,-0.21,0.35,1.18,0.5,2.8,17.5,0.7,-0.02,0.02,0.71
1697352407.35,0.04,0.3,0.95,0.9,2.5,17.3,0.7,-0.02,0.03,0.72
1697352407.36,0.03,0.34,0.68,-0.2,1.4,16.8,0.7,-0.02,0.03,0.72
1697352407.37,-0.03,0.39,1.2,-1.5,-0.5,16.4,0.7,-0.02,0.02,0.72
1697352407.38,0.18,0.39,0.33,-1,-2.1,16.2,0.7,-0.02,0.02,0.72
1697352407.39,-0.02,0.29,0.75,-0.2,-2.5,16.1,0.69,-0.02,0.02,0.72
1697352407.4,-0.2,0.18,1.28,-0.4,-2.1,15.6,0.69,-0.02,0.02,0.72
1697352407.41,-0.03,0.3,0.29,-1.7,-1.6,15,0.69,-0.02,0.02,0.72
1697352407.42,-0.31,0.27,1.35,-2,-0.4,14.7,0.69,-0.02,0.02,0.72
1697352407.43,-0.21,0.32,0.6,0,0,14.4,0.69,-0.02,0.02,0.72
1697352407.44,-0.4,0.16,1.39,0,0,14.4,0.69,-0.02,0.02,0.72
1697352407.45,-0.1,0.09,0.66,1,1.5,13.4,0.69,-0.02,0.02,0.72
1697352407.46,-0.13,0.17,0.88,-1.1,2.3,12.8,0.69,-0.02,0.02,0.73
1697352407.47,-0.11,0.24,1.17,-4,2.3,13.1,0.69,-0.02,0.02,0.73
1697352407.48,-0.17,0.42,1.29,-4,2.3,13.1,0.69,-0.02,0.02,0.73
1697352407.49,-0.09,0.3,1.04,-1.1,0.3,14.3,0.68,-0.02,0.02,0.73
1697352407.5,0.01,0.17,0.75,-1.1,0.3,14.3,0.68,-0.02,0.02,0.73
1697352407.51,-0.06,0.12,0.79,-0.1,-0.6,14.8,0.68,-0.02,0.02,0.73
1697352407.52,-0.06,0.12,0.79,-0.1,-0.6,14.8,0.68,-0.02,0.02,0.73
1697352407.53,0.07,0.15,0.68,-1.6,-0.6,13.8,0.68,-0.02,0.02,0.73
1697352407.54,0.07,0.15,0.68,-1.6,-0.6,13.8,0.68,-0.02,0.02,0.73
1697352407.55,0.12,0.17,0.56,-0.6,-0.6,12.6,0.68,-0.02,0.02,0.73
1697352407.56,0.12,0.17,0.56,-0.4,-0.6,12.3,0.68,-0.02,0.02,0.73
1697352407.57,-0.24,0.1,1.19,0.1,-0.9,11.4,0.68,-0.02,0.02,0.73
1697352407.58,-0.01,0.14,0.9,0.4,-1,10.5,0.68,-0.02,0.02,0.73
1697352407.59,-0.22,0.05,1.28,0.4,-1,10.5,0.68,-0.02,0.02,0.73
1697352407.6,-0.2,-0.11,1.24,1.5,0,8.7,0.68,-0.02,0.02,0.74
1697352407.61,-0.13,-0.15,0.98,0.1,0.9,7.4,0.68,-0.02,0.02,0.74
1697352407.62,-0.15,-0.16,1.44,-2.4,1.9,5.8,0.68,-0.02,0.02,0.74
1697352407.63,0,0.04,0.62,-3.8,2.7,4.2,0.68,-0.02,0.02,0.74
1697352407.64,0,0.04,0.62,-3.8,2.7,4.2,0.68,-0.02,0.02,0.74
1697352407.65,0,0.04,0.62,-3.8,2.7,4.2,0.68,-0.02,0.02,0.74
1697352407.66,0,0.04,0.62,-3.8,2.7,4.2,0.68,-0.02,0.02,0.74
1697352407.67,0,0.04,0.62,-3.8,2.7,4.2,0.68,-0.02,0.02,0.74
1697352407.68,0,0.04,0.62,-3.8,2.7,4.2,0.68,-0.02,0.02,0.74
1697352407.69,0,0.04,0.62,-3.8,2.7,4.2,0.68,-0.02,0.02,0.74
1697352407.7,0,0.04,0.62,-3.8,2.7,4.2,0.68,-0.02,0.02,0.74
1697352407.71,0,0.04,0.62,-3.8,2.7,4.2,0.68,-0.02,0.02,0.74
1697352407.72,0,0.04,0.62,-3.8,2.7,4.2,0.68,-0.02,0.02,0.74
1697352407.73,0,0.04,0.62,-3.8,2.7,4.2,0.68,-0.02,0.02,0.74
1697352407.74,0,0.04,0.62,-3.8,2.7,4.2,0.68,-0.02,0.02,0.74
1697352407.75,0,0.04,0.62,-3.8,2.7,4.2,0.68,-0.02,0.02,0.74
1697352407.76,-0.23,-0.03,1.31,-1.4,0.4,1.3,0.67,-0.02,0.02,0.74
1697352407.77,-0.1,0.08,0.63,-0.2,1.4,1.3,0.67,-0.02,0.02,0.74
1697352407.78,-0.14,0.1,0.9,0.1,1.6,1.3,0.67,-0.02,0.02,0.74
1697352407.79,-0.14,0.1,0.9,0.1,1.6,1.3,0.67,-0.02,0.02,0.74
1697352407.8,0.01,0.09,0.73,1.2,2.2,1.1,0.67,-0.02,0.02,0.74
1697352407.81,-0.16,-0.01,0.87,-0.9,2.2,0.9,0.67,-0.02,0.02,0.74
1697352407.82,-0.09,0.06,0.95,-0.9,2.2,0.9,0.67,-0.02,0.02,0.74
1697352407.83,-0.01,0.1,0.57,-0.8,2.2,0.6,0.67,-0.02,0.02,0.74
1697352407.84,-0.44,-0.05,1.59,-0.6,2,0.5,0.67,-0.02,0.02,0.74
1697352407.85,-0.44,-0.05,1.59,-0.1,1.6,0.3,0.67,-0.02,0.02,0.74
1697352407.86,-0.18,0.02,0.57,0.3,0.3,0,0.67,-0.02,0.02,0.74
1697352407.87,-0.4,0.09,1.33,1.2,-0.6,-0.4,0.67,-0.02,0.02,0.74
1697352407.88,-0.03,-0.09,0.46,1.8,-2,-0.6,0.67,-0.02,0.02,0.74
1697352407.89,-0.24,-0.1,0.62,0.8,-2.3,-1.2,0.67,-0.02,0.02,0.74
1697352407.9,-0.25,-0.16,1.12,-1.5,-2.3,-1.7,0.67,-0.02,0.02,0.74
1697352407.91,-0.45,-0.08,1.47,-2.9,-2.1,-1.8,0.67,-0.02,0.02,0.74
1697352407.92,-0.19,0.09,1.18,-3.6,-1.7,-2.1,0.67,-0.02,0.02,0.74
1697352407.93,-0.16,0.03,0.9,-1.8,-0.7,-1.7,0.67,-0.02,0.02,0.74
1697352407.94,-0.25,0.02,1.05,-0.7,0,-1.3,0.67,-0.02,0.02,0.74
1697352407.95,-0.17,-0.09,0.88,0.5,0.6,-1.2,0.67,-0.02,0.02,0.74
1697352407.96,-0.27,-0.17,1.17,0.4,1.7,-1.1,0.67,-0.02,0.02,0.74
1697352407.97,-0.29,-0.1,1.62,-0.3,2,-1.1,0.67,-0.02,0.02,0.74
1697352407.98,-0.03,-0.04,0.39,-0.6,1.6,-0.8,0.67,-0.02,0.02,0.74
1697352407.99,-0.31,-0.12,1.43,-0.6,1.2,-0.7,0.67,-0.02,0.02,0.74
1697352408,-0.14,-0.01,0.48,0,0.7,-0.5,0.67,-0.02,0.02,0.74
1697352408.01,-0.43,-0.06,2.19,1.8,0.1,-0.5,0.67,-0.02,0.02,0.74
1697352408.02,-0.08,0.1,-0.1,2.4,-1,-0.4,0.67,-0.02,0.02,0.74
1697352408.03,-0.25,-0.08,0.85,3,-2.5,-0.2,0.67,-0.02,0.02,0.74
1697352408.04,-0.14,-0.05,0.47,1.5,-3.4,-0.5,0.67,-0.02,0.02,0.74
1697352408.05,-0.31,-0.15,1.25,-0.3,-3.7,-0.8,0.67,-0.02,0.02,0.74
1697352408.06,-0.2,0.04,0.58,-1.7,-3,-1,0.67,-0.02,0.02,0.74
1697352408.07,-0.33,0,1.27,-1.5,-2.7,-1.2,0.67,-0.02,0.02,0.74
1697352408.08,-0.12,0.1,0.45,-1.6,-1.7,-1.4,0.67,-0.02,0.02,0.74
1697352408.09,-0.43,0.04,1.76,-0.7,-0.8,-1.7,0.67,-0.02,0.02,0.74
1697352408.1,-0.08,0.06,0.2,-0.5,1,-2,0.68,-0.02,0.02,0.74
1697352408.11,-0.26,-0.06,1.38,-0.5,1,-2,0.68,-0.02,0.02,0.74
1697352408.12,-0.17,-0.1,0.68,-0.8,1.8,-3,0.68,-0.02,0.02,0.74
1697352408.13,-0.23,-0.18,1.03,-1.3,1.5,-3.8,0.68,-0.02,0.02,0.74
1697352408.14,-0.07,-0.08,0.91,-1,0.9,-4.1,0.68,-0.02,0.02,0.74
1697352408.15,-0.07,-0.08,0.91,-1,0.9,-4.1,0.68,-0.02,0.02,0.74
1697352408.16,-0.07,-0.08,0.91,-1,0.9,-4.1,0.68,-0.02,0.02,0.74
1697352408.17,-0.07,-0.08,0.91,-1,0.9,-4.1,0.68,-0.02,0.02,0.74
1697352408.18,-0.07,-0.08,0.91,-1,0.9,-4.1,0.68,-0.02,0.02,0.74
1697352408.19,-0.07,-0.08,0.91,-1,0.9,-4.1,0.68,-0.02,0.02,0.74
1697352408.2,-0.07,-0.08,0.91,-1,0.9,-4.1,0.68,-0.02,0.02,0.74
1697352408.21,-0.07,-0.08,0.91,-1,0.9,-4.1,0.68,-0.02,0.02,0.74
1697352408.22,-0.07,-0.08,0.91,-1,0.9,-4.1,0.68,-0.02,0.02,0.74
1697352408.23,-0.07,-0.08,0.91,-1,0.9,-4.1,0.68,-0.02,0.02,0.74
1697352408.24,-0.07,-0.08,0.91,-1,0.9,-4.1,0.68,-0.02,0.02,0.74
1697352408.25,-0.07,-0.08,0.91,-1,0.9,-4.1,0.68,-0.02,0.02,0.74
1697352408.26,-0.07,-0.08,0.91,-1,0.9,-4.1,0.68,-0.02,0.02,0.74
1697352408.27,-0.07,-0.08,0.91,-1,0.9,-4.1,0.68,-0.02,0.02,0.74
1697352408.28,-0.07,-0.08,0.91,-1,0.9,-4.1,0.68,-0.02,0.02,0.74
1697352408.29,-0.07,-0.08,0.91,-1,0.9,-4.1,0.68,-0.02,0.02,0.74
1697352408.3,-0.07,-0.08,0.91,-1,0.9,-4.1,0.68,-0.02,0.02,0.74
1697352408.31,-0.07,-0.08,0.91,-1,0.9,-4.1,0.68,-0.02,0.02,0.74
1697352408.32,-0.07,-0.08,0.91,-1,0.9,-4.1,0.68,-0.02,0.02,0.74
1697352408.33,-0.07,-0.08,0.91,-1,0.9,-4.1,0.68,-0.02,0.02,0.74
1697352408.34,-0.07,-0.08,0.91,-1,0.9,-4.1,0.68,-0.02,0.02,0.74
1697352408.35,-0.07,-0.08,0.91,-1,0.9,-4.1,0.68,-0.02,0.02,0.74
1697352408.36,-0.07,-0.08,0.91,-1,0.9,-4.1,0.68,-0.02,0.02,0.74
1697352408.37,-0.07,-0.08,0.91,-1,0.9,-4.1,0.68,-0.02,0.02,0.74
1697352408.38,-0.07,-0.08,0.91,-1,0.9,-4.1,0.68,-0.02,0.02,0.74
1697352408.39,-0.07,-0.08,0.91,-1,0.9,-4.1,0.68,-0.02,0.02,0.74
1697352408.4,-0.07,-0.08,0.91,-1,0.9,-4.1,0.68,-0.02,0.02,0.74
1697352408.41,-0.07,-0.08,0.91,-1,0.9,-4.1,0.68,-0.02,0.02,0.74
1697352408.42,-0.07,-0.08,0.91,-1,0.9,-4.1,0.68,-0.02,0.02,0.74
1697352408.43,-0.07,-0.08,0.91,-1,0.9,-4.1,0.68,-0.02,0.02,0.74
1697352408.44,-0.07,-0.08,0.91,-1,0.9,-4.1,0.68,-0.02,0.02,0.74
1697352408.45,-0.07,-0.08,0.91,-1,0.9,-4.1,0.68,-0.02,0.02,0.74
1697352408.46,-0.07,-0.08,0.91,-1,0.9,-4.1,0.68,-0.02,0.02,0.74
1697352408.47,-0.07,-0.08,0.91,-1,0.9,-4.1,0.68,-0.02,0.02,0.74
1697352408.48,-0.07,-0.08,0.91,-1,0.9,-4.1,0.68,-0.02,0.02,0.74
1697352408.49,-0.07,-0.08,0.91,-1,0.9,-4.1,0.68,-0.02,0.02,0.74
1697352408.5,-0.05,-0.16,0.68,-0.4,2.6,-10.8,0.69,-0.02,0.02,0.72
1697352408.51,0.05,-0.22,0.76,1.2,1.8,-10.9,0.69,-0.02,0.02,0.72
1697352408.52,-0.06,-0.28,1.22,1.6,-0.7,-10.3,0.69,-0.02,0.02,0.72
1697352408.53,-0.04,-0.23,0.56,1.6,-0.7,-10.3,0.69,-0.02,0.02,0.72
1697352408.54,0.01,-0.13,1.02,0,-1.4,-10,0.69,-0.02,0.02,0.72
1697352408.55,-0.12,-0.06,0.97,1,-1.5,-9.6,0.69,-0.02,0.02,0.72
1697352408.56,-0.07,-0.15,1.47,1,-1.5,-9.6,0.69,-0.02,0.02,0.72
1697352408.57,-0.07,-0.15,1.47,1.1,-1.4,-9.4,0.69,-0.02,0.02,0.72
1697352408.58,-0.18,-0.1,0.85,2.9,-1.5,-9.5,0.69,-0.02,0.02,0.72
1697352408.59,-0.07,-0.17,0.94,2.1,-1.2,-9.6,0.7,-0.02,0.02,0.72
1697352408.6,-0.07,-0.19,1.5,0.6,-0.6,-9.8,0.7,-0.02,0.02,0.72
1697352408.61,-0.19,-0.14,0.84,-1,0.4,-9.9,0.7,-0.02,0.02,0.72
1697352408.62,-0.12,-0.13,1.24,-1.7,1.4,-9.7,0.7,-0.02,0.02,0.72
1697352408.63,-0.17,-0.06,1.1,-0.4,2.2,-9.8,0.7,-0.02,0.02,0.72
1697352408.64,-0.04,-0.01,1.12,0.9,2.4,-9.5,0.7,-0.02,0.02,0.72
1697352408.65,-0.15,-0.07,1.26,1,2.4,-9.1,0.7,-0.02,0.02,0.71
1697352408.66,-0.01,-0.07,0.72,0.1,2,-8.6,0.7,-0.02,0.02,0.71
1697352408.67,0.01,-0.07,1.3,-0.3,1,-8.2,0.7,-0.02,0.02,0.71
1697352408.68,-0.03,-0.09,0.72,-0.7,-0.1,-7.8,0.7,-0.02,0.02,0.71
1697352408.69,0.07,-0.02,0.67,-1.2,-0.9,-7.1,0.7,-0.02,0.02,0.71
1697352408.7,-0.04,0.07,0.64,-1.2,-1.2,-6.8,0.7,-0.02,0.02,0.71
1697352408.71,-0.04,0.03,1.09,0,-2,-5.7,0.7,-0.02,0.02,0.71
1697352408.72,-0.07,0.02,1.2,0,-2,-5.7,0.7,-0.02,0.02,0.71
1697352408.73,-0.11,0.09,0.42,1,-2.6,-3.8,0.7,-0.02,0.02,0.71
1697352408.74,-0.11,0.09,0.42,1,-2.6,-3.8,0.7,-0.02,0.02,0.71
1697352408.75,-0.12,0.18,1.32,2,-1.9,-1.1,0.7,-0.02,0.02,0.71
1697352408.76,-0.12,0.18,1.32,2,-1.9,-1.1,0.7,-0.02,0.02,0.71
1697352408.77,-0.11,0.08,1.52,3.2,-0.1,1.3,0.7,-0.02,0.02,0.71
1697352408.78,-0.18,0.08,0.96,2.5,0.3,2.6,0.7,-0.02,0.02,0.71
1697352408.79,0.04,0.13,0.54,1,0.8,3.5,0.7,-0.02,0.02,0.71
1697352408.8,0.04,0.13,0.54,1,0.8,3.5,0.7,-0.02,0.02,0.71
1697352408.81,-0.02,0.28,0.77,0.2,0.7,5.3,0.7,-0.02,0.02,0.71
1697352408.82,-0.01,0.19,1.36,0.2,0.7,5.3,0.7,-0.02,0.02,0.71
1697352408.83,-0.12,0.23,1.08,1.2,0,5.6,0.7,-0.02,0.02,0.71
1697352408.84,0,0.18,0.64,1.2,-0.2,5.3,0.7,-0.02,0.02,0.71
1697352408.85,-0.05,0.12,1.2,0.2,-0.1,5.3,0.7,-0.02,0.02,0.71
1697352408.86,-0.1,0.06,0.82,-0.7,-0.2,5.4,0.7,-0.02,0.02,0.71
1697352408.87,-0.1,0.06,0.82,-0.7,-0.2,5.4,0.7,-0.02,0.02,0.71
1697352408.88,-0.1,0.16,0.78,-1.1,-0.1,5.4,0.7,-0.02,0.02,0.71
1697352408.89,-0.1,0.16,0.78,-2.2,-0.1,5.4,0.7,-0.02,0.02,0.71
1697352408.9,-0.1,0.16,0.78,-2.2,-0.1,5.4,0.7,-0.02,0.02,0.71
1697352408.91,-0.1,0.16,0.78,-2.2,-0.1,5.4,0.7,-0.02,0.02,0.71
1697352408.92,-0.1,0.16,0.78,-2.2,-0.1,5.4,0.7,-0.02,0.02,0.71
1697352408.93,-0.1,0.16,0.78,-2.2,-0.1,5.4,0.7,-0.02,0.02,0.71
1697352408.94,-0.1,0.16,0.78,-2.2,-0.1,5.4,0.7,-0.02,0.02,0.71
1697352408.95,-0.1,0.16,0.78,-2.2,-0.1,5.4,0.7,-0.02,0.02,0.71
1697352408.96,-0.1,0.16,0.78,-2.2,-0.1,5.4,0.7,-0.02,0.02,0.71
1697352408.97,-0.1,0.16,0.78,-2.2,-0.1,5.4,0.7,-0.02,0.02,0.71
1697352408.98,-0.1,0.16,0.78,-2.2,-0.1,5.4,0.7,-0.02,0.02,0.71
1697352408.99,-0.1,0.16,0.78,-2.2,-0.1,5.4,0.7,-0.02,0.02,0.71
1697352409,-0.1,0.16,0.78,-2.2,-0.1,5.4,0.7,-0.02,0.02,0.71
1697352409.01,-0.1,0.16,0.78,-2.2,-0.1,5.4,0.7,-0.02,0.02,0.71
1697352409.02,0.14,0.04,1.34,0.6,-0.2,6.7,0.69,-0.02,0.02,0.72
1697352409.03,0.25,0.1,0.78,-0.9,-0.5,6.8,0.69,-0.02,0.02,0.72
1697352409.04,0.35,0.2,1.08,-0.9,-1.2,6.8,0.69,-0.02,0.02,0.72
1697352409.05,0.2,0.11,1.15,0.5,-1.9,6.9,0.69,-0.02,0.02,0.72
1697352409.06,0.12,0.12,0.63,0.5,-1.9,6.9,0.69,-0.02,0.02,0.72
1697352409.07,-0.06,-0.06,1.4,0,-1,5.8,0.69,-0.02,0.02,0.72
1697352409.08,0.01,-0.02,0.79,-1.6,0.2,5.1,0.69,-0.02,0.02,0.72
1697352409.09,-0.09,0.03,0.88,-1.7,0.8,5,0.69,-0.02,0.02,0.72
1697352409.1,-0.21,0.06,1.25,-1.1,1.7,4.8,0.69,-0.02,0.02,0.72
1697352409.11,0.02,0.11,1.02,0,2,4.8,0.69,-0.02,0.02,0.72
1697352409.12,-0.06,0.08,0.67,1.6,1.7,4.4,0.69,-0.02,0.02,0.72
1697352409.13,0.16,0.06,1.15,1.6,1.1,4.4,0.69,-0.02,0.02,0.72
1697352409.14,0.16,0.06,1.15,1.6,1.1,4.4,0.69,-0.02,0.02,0.72
1697352409.15,0.26,0.02,1.07,0,-2.3,4.3,0.69,-0.02,0.02,0.72
1697352409.16,0.26,0.02,1.07,0,-2.3,4.3,0.69,-0.02,0.02,0.72
1697352409.17,0.27,0.13,0.84,0.2,-4.3,4.1,0.69,-0.02,0.02,0.73
1697352409.18,0.27,0.13,0.84,0.2,-4.3,4.1,0.69,-0.02,0.02,0.73
1697352409.19,-0.04,0.09,0.82,0.2,-2.6,3.2,0.69,-0.02,0.02,0.73
1697352409.2,-0.04,0.09,0.82,0.2,-2.6,3.2,0.69,-0.02,0.02,0.73
1697352409.21,0,0.03,1.04,-0.1,-0.7,2.5,0.69,-0.02,0.02,0.73
1697352409.22,0,0.03,1.04,-0.1,1.1,2.1,0.69,-0.02,0.02,0.73
1697352409.23,-0.2,0,1.17,0,2.9,1.5,0.69,-0.02,0.02,0.73
1697352409.24,-0.2,0,1.17,0,2.9,1.5,0.69,-0.02,0.02,0.73
1697352409.25,-0.04,-0.08,1.5,0.2,3.2,1.5,0.69,-0.02,0.02,0.73
1697352409.26,0.14,-0.08,1.44,-0.3,2.8,1.4,0.69,-0.02,0.02,0.73
1697352409.27,0.16,0.01,1.01,-0.3,2.8,1.4,0.69,-0.02,0.02,0.73
1697352409.28,0.34,-0,0.93,-1.2,1.6,1.5,0.69,-0.02,0.02,0.73
1697352409.29,0.23,0.02,1.09,-1.6,0.1,1.5,0.69,-0.02,0.02,0.73
1697352409.3,0.19,0.1,0.52,-1.1,-1.4,1.6,0.69,-0.02,0.02,0.73
1697352409.31,0,0.03,1.08,0,-2,1.6,0.69,-0.02,0.02,0.73
1697352409.32,-0.07,-0.03,1.23,1.5,-2.2,1.2,0.69,-0.02,0.02,0.73
1697352409.33,-0.09,-0.1,0.52,2.3,-1.7,0.9,0.69,-0.02,0.02,0.73
1697352409.34,-0.13,-0.09,0.77,1.4,-0.7,0.4,0.69,-0.02,0.02,0.73
1697352409.35,-0.04,-0.08,1.32,0,0,-0.2,0.69,-0.02,0.02,0.73
1697352409.36,0,0.03,1.11,-1,0.8,-0.5,0.69,-0.02,0.02,0.73
1697352409.37,0,0.01,1.52,-0.1,1,-0.6,0.69,-0.02,0.02,0.73
1697352409.38,0.19,0.02,0.41,0.6,1,-0.6,0.69,-0.02,0.02,0.73
1697352409.39,0.18,-0.02,1.51,1.1,0.8,-0.7,0.69,-0.02,0.02,0.73
1697352409.4,0.04,-0,0.91,0.5,0.9,-0.4,0.69,-0.02,0.02,0.73
1697352409.41,0.04,-0,0.91,0.5,0.9,-0.4,0.69,-0.02,0.02,0.73
1697352409.42,0.04,-0,0.91,0.5,0.9,-0.4,0.69,-0.02,0.02,0.73
1697352409.43,0.04,-0,0.91,0.5,0.9,-0.4,0.69,-0.02,0.02,0.73
1697352409.44,0.04,-0,0.91,0.5,0.9,-0.4,0.69,-0.02,0.02,0.73
1697352409.45,0.04,-0,0.91,0.5,0.9,-0.4,0.69,-0.02,0.02,0.73
1697352409.46,0.04,-0,0.91,0.5,0.9,-0.4,0.69,-0.02,0.02,0.73
1697352409.47,0.04,-0,0.91,0.5,0.9,-0.4,0.69,-0.02,0.02,0.73
1697352409.48,0.04,-0,0.91,0.5,0.9,-0.4,0.69,-0.02,0.02,0.73
1697352409.49,0.04,-0,0.91,0.5,0.9,-0.4,0.69,-0.02,0.02,0.73
1697352409.5,0.04,-0,0.91,0.5,0.9,-0.4,0.69,-0.02,0.02,0.73
1697352409.51,0.04,-0,0.91,0.5,0.9,-0.4,0.69,-0.02,0.02,0.73
1697352409.52,0.04,-0,0.91,0.5,0.9,-0.4,0.69,-0.02,0.02,0.73
1697352409.53,0.04,-0,0.91,0.5,0.9,-0.4,0.69,-0.02,0.02,0.73
1697352409.54,0.04,-0,0.91,0.5,0.9,-0.4,0.69,-0.02,0.02,0.73
1697352409.55,0.04,-0,0.91,0.5,0.9,-0.4,0.69,-0.02,0.02,0.73
1697352409.56,0.04,-0,0.91,0.5,0.9,-0.4,0.69,-0.02,0.02,0.73
1697352409.57,0.04,-0,0.91,0.5,0.9,-0.4,0.69,-0.02,0.02,0.73
1697352409.58,0.04,-0,0.91,0.5,0.9,-0.4,0.69,-0.02,0.02,0.73
1697352409.59,0.04,-0,0.91,0.5,0.9,-0.4,0.69,-0.02,0.02,0.73
1697352409.6,0.04,-0,0.91,0.5,0.9,-0.4,0.69,-0.02,0.02,0.73
1697352409.61,0.04,-0,0.91,0.5,0.9,-0.4,0.69,-0.02,0.02,0.73
1697352409.62,0.04,-0,0.91,0.5,0.9,-0.4,0.69,-0.02,0.02,0.73
1697352409.63,0.04,-0,0.91,0.5,0.9,-0.4,0.69,-0.02,0.02,0.73
1697352409.64,0.04,-0,0.91,0.5,0.9,-0.4,0.69,-0.02,0.02,0.73
1697352409.65,0.04,-0,0.91,0.5,0.9,-0.4,0.69,-0.02,0.02,0.73
1697352409.66,0.04,-0,0.91,0.5,0.9,-0.4,0.69,-0.02,0.02,0.73
1697352409.67,0.04,-0,0.91,0.5,0.9,-0.4,0.69,-0.02,0.02,0.73
1697352409.68,0.04,-0,0.91,0.5,0.9,-0.4,0.69,-0.02,0.02,0.73
1697352409.69,0.04,-0,0.91,0.5,0.9,-0.4,0.69,-0.02,0.02,0.73
1697352409.7,0.04,-0,0.91,0.5,0.9,-0.4,0.69,-0.02,0.02,0.73
1697352409.71,0.04,-0,0.91,0.5,0.9,-0.4,0.69,-0.02,0.02,0.73
1697352409.72,0.04,-0,0.91,0.5,0.9,-0.4,0.69,-0.02,0.02,0.73
1697352409.73,0.04,-0,0.91,0.5,0.9,-0.4,0.69,-0.02,0.02,0.73
1697352409.74,0.04,-0,0.91,0.5,0.9,-0.4,0.69,-0.02,0.02,0.73
1697352409.75,0.04,-0,0.91,0.5,0.9,-0.4,0.69,-0.02,0.02,0.73
1697352409.76,0.04,-0,0.91,0.5,0.9,-0.4,0.69,-0.02,0.02,0.73
1697352409.77,0.04,-0,0.91,0.5,0.9,-0.4,0.69,-0.02,0.02,0.73
1697352409.78,0.04,-0,0.91,0.5,0.9,-0.4,0.69,-0.02,0.02,0.73
1697352409.79,0.04,-0,0.91,0.5,0.9,-0.4,0.69,-0.02,0.02,0.73
1697352409.8,0.04,-0,0.91,0.5,0.9,-0.4,0.69,-0.02,0.02,0.73
1697352409.81,0.04,-0,0.91,0.5,0.9,-0.4,0.69,-0.02,0.02,0.73
1697352409.82,0.04,-0,0.91,0.5,0.9,-0.4,0.69,-0.02,0.02,0.73
1697352409.83,0.04,-0,0.91,0.5,0.9,-0.4,0.69,-0.02,0.02,0.73
1697352409.84,0.04,-0,0.91,0.5,0.9,-0.4,0.69,-0.02,0.02,0.73
1697352409.85,0.04,-0,0.91,0.5,0.9,-0.4,0.69,-0.02,0.02,0.73
1697352409.86,0.04,-0,0.91,0.5,0.9,-0.4,0.69,-0.02,0.02,0.73
1697352409.87,0.04,-0,0.91,0.5,0.9,-0.4,0.69,-0.02,0.02,0.73
1697352409.88,0.04,-0,0.91,0.5,0.9,-0.4,0.69,-0.02,0.02,0.73
1697352409.89,0.04,-0,0.91,0.5,0.9,-0.4,0.69,-0.02,0.02,0.73
1697352409.9,0.04,-0,0.91,0.5,0.9,-0.4,0.69,-0.02,0.02,0.73
1697352409.91,0.04,-0,0.91,0.5,0.9,-0.4,0.69,-0.02,0.02,0.73
1697352409.92,0.04,-0,0.91,0.5,0.9,-0.4,0.69,-0.02,0.02,0.73
1697352409.93,0.04,-0,0.91,0.5,0.9,-0.4,0.69,-0.02,0.02,0.73
1697352409.94,0.04,-0,0.91,0.5,0.9,-0.4,0.69,-0.02,0.02,0.73
1697352409.95,0.04,-0,0.91,0.5,0.9,-0.4,0.69,-0.02,0.02,0.73
1697352409.96,0.04,-0,0.91,0.5,0.9,-0.4,0.69,-0.02,0.02,0.73
1697352409.97,0.04,-0,0.91,0.5,0.9,-0.4,0.69,-0.02,0.02,0.73
1697352409.98,0.04,-0,0.91,0.5,0.9,-0.4,0.69,-0.02,0.02,0.73
1697352409.99,0.04,-0,0.91,0.5,0.9,-0.4,0.69,-0.02,0.02,0.73
1697352410,0.04,-0,0.91,0.5,0.9,-0.4,0.69,-0.02,0.02,0.73
1697352410.01,0.04,-0,0.91,0.5,0.9,-0.4,0.69,-0.02,0.02,0.73
1697352410.02,0.04,-0,0.91,0.5,0.9,-0.4,0.69,-0.02,0.02,0.73
1697352410.03,0.04,-0,0.91,0.5,0.9,-0.4,0.69,-0.02,0.02,0.73
1697352410.04,0.04,-0,0.91,0.5,0.9,-0.4,0.69,-0.02,0.02,0.73
1697352410.05,0.04,-0,0.91,0.5,0.9,-0.4,0.69,-0.02,0.02,0.73
1697352410.06,0.04,-0,0.91,0.5,0.9,-0.4,0.69,-0.02,0.02,0.73
1697352410.07,0.04,-0,0.91,0.5,0.9,-0.4,0.69,-0.02,0.02,0.73
1697352410.08,0.04,-0,0.91,0.5,0.9,-0.4,0.69,-0.02,0.02,0.73
1697352410.09,0.04,-0,0.91,0.5,0.9,-0.4,0.69,-0.02,0.02,0.73
1697352410.1,0.04,-0,0.91,0.5,0.9,-0.4,0.69,-0.02,0.02,0.73
1697352410.11,0.04,-0,0.91,0.5,0.9,-0.4,0.69,-0.02,0.02,0.73
1697352410.12,0.04,-0,0.91,0.5,0.9,-0.4,0.69,-0.02,0.02,0.73
1697352410.13,0.04,-0,0.91,0.5,0.9,-0.4,0.69,-0.02,0.02,0.73
1697352410.14,0.04,-0,0.91,0.5,0.9,-0.4,0.69,-0.02,0.02,0.73
1697352410.15,0.04,-0,0.91,0.5,0.9,-0.4,0.69,-0.02,0.02,0.73
1697352410.16,0.04,-0,0.91,0.5,0.9,-0.4,0.69,-0.02,0.02,0.73
1697352410.17,0.04,-0,0.91,0.5,0.9,-0.4,0.69,-0.02,0.02,0.73
1697352410.18,0.04,-0,0.91,0.5,0.9,-0.4,0.69,-0.02,0.02,0.73
1697352410.19,0.04,-0,0.91,0.5,0.9,-0.4,0.69,-0.02,0.02,0.73
1697352410.2,0.04,-0,0.91,0.5,0.9,-0.4,0.69,-0.02,0.02,0.73
1697352410.21,0.04,-0,0.91,0.5,0.9,-0.4,0.69,-0.02,0.02,0.73
1697352410.22,0.04,-0,0.91,0.5,0.9,-0.4,0.69,-0.02,0.02,0.73
1697352410.23,0.04,-0,0.91,0.5,0.9,-0.4,0.69,-0.02,0.02,0.73
1697352410.24,0.04,-0,0.91,0.5,0.9,-0.4,0.69,-0.02,0.02,0.73
1697352410.25,0.04,-0,0.91,0.5,0.9,-0.4,0.69,-0.02,0.02,0.73
1697352410.26,0.04,-0,0.91,0.5,0.9,-0.4,0.69,-0.02,0.02,0.73
1697352410.27,0.04,-0,0.91,0.5,0.9,-0.4,0.69,-0.02,0.02,0.73
1697352410.28,0.04,-0,0.91,0.5,0.9,-0.4,0.69,-0.02,0.02,0.73
1697352410.29,0.04,-0,0.91,-1.5,-0.3,-1.8,0.69,-0.02,0.02,0.72
1697352410.3,-0.06,-0.07,1.38,2.5,-0.6,-2,0.69,-0.02,0.02,0.72
1697352410.31,0.15,-0.13,0.69,2,-0.4,-2.1,0.69,-0.02,0.02,0.72
1697352410.32,0.15,-0.13,0.69,2,-0.4,-2.1,0.69,-0.02,0.02,0.72
1697352410.33,0.16,-0.07,0.76,0.5,0,-1.9,0.69,-0.02,0.02,0.72
1697352410.34,0.16,-0.07,0.76,-1.1,-0.2,-2.4,0.69,-0.02,0.02,0.72
1697352410.35,-0,-0.07,1.46,-1.9,0.1,-2.4,0.69,-0.02,0.02,0.72
1697352410.36,0.04,-0.02,1.42,-2.1,0.3,-2.3,0.69,-0.02,0.02,0.72
1697352410.37,0.1,0.08,0.42,-2.1,1.2,-2.1,0.69,-0.02,0.02,0.72
1697352410.38,0.05,-0.01,1.39,-0.2,2.4,-1.8,0.7,-0.02,0.02,0.72
1697352410.39,0.01,-0.07,0.95,1.6,2.4,-1.9,0.7,-0.02,0.02,0.72
1697352410.4,0.19,-0.14,0.95,1.3,2.1,-2,0.7,-0.02,0.02,0.72
1697352410.41,0.08,-0.12,0.87,-0.3,1.5,-2,0.7,-0.02,0.02,0.72
1697352410.42,0.16,-0.01,0.97,-1.6,0.7,-2.1,0.7,-0.02,0.02,0.72
1697352410.43,0.02,0.01,1,-1.5,0,-2,0.7,-0.02,0.02,0.72
1697352410.44,0.21,-0.04,0.53,-0.7,-0.9,-1.9,0.7,-0.02,0.02,0.72
1697352410.45,0.03,0.01,1.17,-0.3,-1.2,-2,0.7,-0.02,0.02,0.72
1697352410.46,0.06,-0.04,1.24,0.4,-1.7,-1.8,0.7,-0.02,0.02,0.72
1697352410.47,0.28,-0.08,0.57,1.1,-2.3,-1.5,0.7,-0.02,0.02,0.72
1697352410.48,-0.1,-0.04,1.24,0.5,-2.1,-1.9,0.7,-0.02,0.02,0.72
1697352410.49,0.13,0.04,0.84,0.7,-1.5,-1.9,0.7,-0.02,0.02,0.72
1697352410.5,-0.02,-0.06,0.92,2.5,-0.4,-1.7,0.7,-0.02,0.02,0.72
1697352410.51,0.2,-0.18,0.76,4,0.3,-1.9,0.7,-0.02,0.02,0.72
1697352410.52,-0.09,-0.27,1.38,2.8,1,-2.3,0.7,-0.02,0.02,0.72
1697352410.53,0.12,-0.12,0.97,-0.8,1.4,-2.5,0.7,-0.02,0.02,0.72
1697352410.54,0.1,0.01,1.33,-4.1,1.8,-2.4,0.7,-0.02,0.02,0.72
1697352410.55,0.05,0.12,1.42,-3,1.4,-2.2,0.7,-0.02,0.02,0.72
1697352410.56,0.16,0.04,0.76,0.3,0.6,-1.9,0.7,-0.02,0.02,0.72
1697352410.57,0.1,-0.08,1.35,1.8,0.2,-1.7,0.7,-0.02,0.02,0.72
1697352410.58,0.17,-0.08,0.73,0.2,-0.1,-1.4,0.7,-0.02,0.02,0.72
1697352410.59,0.01,-0.01,1.25,-1.1,-0.1,-1.9,0.7,-0.02,0.02,0.72
1697352410.6,0.21,0.09,0.45,-2,-0.4,-1.8,0.7,-0.02,0.02,0.72
1697352410.61,0.02,0.07,1.33,-2,-0.4,-1.8,0.7,-0.02,0.02,0.72
1697352410.62,0.13,0,0.63,0.2,-0.7,-1.8,0.7,-0.02,0.02,0.72
1697352410.63,0,-0.03,1.17,0.2,-0.7,-1.8,0.7,-0.02,0.02,0.72
1697352410.64,0.2,-0.1,0.76,1.4,-1.1,-1.6,0.7,-0.02,0.02,0.72
1697352410.65,0.01,-0.01,1.14,0.8,-1.1,-1.7,0.7,-0.02,0.02,0.72
1697352410.66,-0.03,0.02,1.37,0.9,-0.7,-1.6,0.7,-0.02,0.02,0.71
1697352410.67,-0.03,0.02,1.37,0.9,-0.7,-1.6,0.7,-0.02,0.02,0.71
1697352410.68,-0.03,0.02,1.37,0.9,-0.7,-1.6,0.7,-0.02,0.02,0.71
1697352410.69,-0.03,0.02,1.37,0.9,-0.7,-1.6,0.7,-0.02,0.02,0.71
1697352410.7,-0.03,0.02,1.37,0.9,-0.7,-1.6,0.7,-0.02,0.02,0.71
1697352410.71,-0.03,0.02,1.37,0.9,-0.7,-1.6,0.7,-0.02,0.02,0.71
1697352410.72,-0.03,0.02,1.37,0.9,-0.7,-1.6,0.7,-0.02,0.02,0.71
1697352410.73,-0.03,0.02,1.37,0.9,-0.7,-1.6,0.7,-0.02,0.02,0.71
1697352410.74,-0.03,0.02,1.37,0.9,-0.7,-1.6,0.7,-0.02,0.02,0.71
1697352410.75,-0.03,0.02,1.37,0.9,-0.7,-1.6,0.7,-0.02,0.02,0.71
1697352410.76,-0.03,0.02,1.37,0.9,-0.7,-1.6,0.7,-0.02,0.02,0.71
1697352410.77,-0.03,0.02,1.37,0.9,-0.7,-1.6,0.7,-0.02,0.02,0.71
1697352410.78,-0.03,0.02,1.37,0.9,-0.7,-1.6,0.7,-0.02,0.02,0.71
1697352410.79,-0.03,0.02,1.37,0.9,-0.7,-1.6,0.7,-0.02,0.02,0.71
1697352410.8,-0.03,0.02,1.37,0.9,-0.7,-1.6,0.7,-0.02,0.02,0.71
1697352410.81,-0.03,0.02,1.37,0.9,-0.7,-1.6,0.7,-0.02,0.02,0.71
1697352410.82,-0.03,0.02,1.37,0.9,-0.7,-1.6,0.7,-0.02,0.02,0.71
1697352410.83,-0.03,0.02,1.37,0.9,-0.7,-1.6,0.7,-0.02,0.02,0.71
1697352410.84,-0.03,0.02,1.37,0.9,-0.7,-1.6,0.7,-0.02,0.02,0.71
1697352410.85,-0.03,0.02,1.37,0.9,-0.7,-1.6,0.7,-0.02,0.02,0.71
1697352410.86,-0.03,0.02,1.37,0.9,-0.7,-1.6,0.7,-0.02,0.02,0.71
1697352410.87,-0.03,0.02,1.37,0.9,-0.7,-1.6,0.7,-0.02,0.02,0.71
1697352410.88,-0.03,0.02,1.37,0.9,-0.7,-1.6,0.7,-0.02,0.02,0.71
1697352410.89,-0.03,0.02,1.37,0.9,-0.7,-1.6,0.7,-0.02,0.02,0.71
1697352410.9,-0.03,0.02,1.37,0.9,-0.7,-1.6,0.7,-0.02,0.02,0.71
1697352410.91,-0.03,0.02,1.37,0.9,-0.7,-1.6,0.7,-0.02,0.02,0.71
1697352410.92,-0.03,0.02,1.37,0.9,-0.7,-1.6,0.7,-0.02,0.02,0.71
1697352410.93,-0.03,0.02,1.37,0.9,-0.7,-1.6,0.7,-0.02,0.02,0.71
1697352410.94,-0.03,0.02,1.37,0.9,-0.7,-1.6,0.7,-0.02,0.02,0.71
1697352410.95,-0.03,0.02,1.37,0.9,-0.7,-1.6,0.7,-0.02,0.02,0.71
1697352410.96,-0.03,0.02,1.37,0.9,-0.7,-1.6,0.7,-0.02,0.02,0.71
1697352410.97,-0.03,0.02,1.37,0.9,-0.7,-1.6,0.7,-0.02,0.02,0.71
1697352410.98,-0.03,0.02,1.37,0.9,-0.7,-1.6,0.7,-0.02,0.02,0.71
1697352410.99,-0.03,0.02,1.37,0.9,-0.7,-1.6,0.7,-0.02,0.02,0.71
1697352411,-0.03,0.02,1.37,0.9,-0.7,-1.6,0.7,-0.02,0.02,0.71
1697352411.01,-0.03,0.02,1.37,0.9,-0.7,-1.6,0.7,-0.02,0.02,0.71
1697352411.02,-0.03,0.02,1.37,0.9,-0.7,-1.6,0.7,-0.02,0.02,0.71
1697352411.03,-0.03,0.02,1.37,0.9,-0.7,-1.6,0.7,-0.02,0.02,0.71
1697352411.04,-0.03,0.02,1.37,0.9,-0.7,-1.6,0.7,-0.02,0.02,0.71
1697352411.05,-0.03,0.02,1.37,0.9,-0.7,-1.6,0.7,-0.02,0.02,0.71
1697352411.06,-0.03,0.02,1.37,0.9,-0.7,-1.6,0.7,-0.02,0.02,0.71
1697352411.07,-0.03,0.02,1.37,0.9,-0.7,-1.6,0.7,-0.02,0.02,0.71
1697352411.08,-0.03,0.02,1.37,0.9,-0.7,-1.6,0.7,-0.02,0.02,0.71
1697352411.09,-0.03,0.02,1.37,0.9,-0.7,-1.6,0.7,-0.02,0.02,0.71
1697352411.1,-0.03,0.02,1.37,0.9,-0.7,-1.6,0.7,-0.02,0.02,0.71
1697352411.11,-0.03,0.02,1.37,0.9,-0.7,-1.6,0.7,-0.02,0.02,0.71
1697352411.12,-0.03,0.02,1.37,0.9,-0.7,-1.6,0.7,-0.02,0.02,0.71
1697352411.13,-0.03,0.02,1.37,0.9,-0.7,-1.6,0.7,-0.02,0.02,0.71
1697352411.14,-0.03,0.02,1.37,0.9,-0.7,-1.6,0.7,-0.02,0.02,0.71
1697352411.15,-0.03,0.02,1.37,0.9,-0.7,-1.6,0.7,-0.02,0.02,0.71
1697352411.16,-0.03,0.02,1.37,0.9,-0.7,-1.6,0.7,-0.02,0.02,0.71
1697352411.17,-0.03,0.02,1.37,0.9,-0.7,-1.6,0.7,-0.02,0.02,0.71
1697352411.18,-0.03,0.02,1.37,0.9,-0.7,-1.6,0.7,-0.02,0.02,0.71
1697352411.19,-0.03,0.02,1.37,0.9,-0.7,-1.6,0.7,-0.02,0.02,0.71
1697352411.2,-0.03,0.02,1.37,0.9,-0.7,-1.6,0.7,-0.02,0.02,0.71
1697352411.21,-0.03,0.02,1.37,0.9,-0.7,-1.6,0.7,-0.02,0.02,0.71
1697352411.22,-0.03,0.02,1.37,0.9,-0.7,-1.6,0.7,-0.02,0.02,0.71
1697352411.23,-0.03,0.02,1.37,0.9,-0.7,-1.6,0.7,-0.02,0.02,0.71
1697352411.24,-0.03,0.02,1.37,0.9,-0.7,-1.6,0.7,-0.02,0.02,0.71
1697352411.25,-0.03,0.02,1.37,0.9,-0.7,-1.6,0.7,-0.02,0.02,0.71
1697352411.26,-0.03,0.02,1.37,0.9,-0.7,-1.6,0.7,-0.02,0.02,0.71
1697352411.27,-0.03,0.02,1.37,0.9,-0.7,-1.6,0.7,-0.02,0.02,0.71
1697352411.28,-0.03,0.02,1.37,0.9,-0.7,-1.6,0.7,-0.02,0.02,0.71
1697352411.29,-0.03,0.02,1.37,0.9,-0.7,-1.6,0.7,-0.02,0.02,0.71
1697352411.3,-0.03,0.02,1.37,0.9,-0.7,-1.6,0.7,-0.02,0.02,0.71
1697352411.31,-0.03,0.02,1.37,0.9,-0.7,-1.6,0.7,-0.02,0.02,0.71
1697352411.32,-0.03,0.02,1.37,0.9,-0.7,-1.6,0.7,-0.02,0.02,0.71
1697352411.33,-0.03,0.02,1.37,0.9,-0.7,-1.6,0.7,-0.02,0.02,0.71
1697352411.34,-0.03,0.02,1.37,0.9,-0.7,-1.6,0.7,-0.02,0.02,0.71
1697352411.35,-0.03,0.02,1.37,0.9,-0.7,-1.6,0.7,-0.02,0.02,0.71
1697352411.36,-0.03,0.02,1.37,0.9,-0.7,-1.6,0.7,-0.02,0.02,0.71
1697352411.37,-0.03,0.02,1.37,0.9,-0.7,-1.6,0.7,-0.02,0.02,0.71
1697352411.38,-0.03,0.02,1.37,0.9,-0.7,-1.6,0.7,-0.02,0.02,0.71
1697352411.39,-0.03,0.02,1.37,0.9,-0.7,-1.6,0.7,-0.02,0.02,0.71
1697352411.4,-0.03,0.02,1.37,0.9,-0.7,-1.6,0.7,-0.02,0.02,0.71
1697352411.41,-0.03,0.02,1.37,0.9,-0.7,-1.6,0.7,-0.02,0.02,0.71
1697352411.42,-0.03,0.02,1.37,0.9,-0.7,-1.6,0.7,-0.02,0.02,0.71
1697352411.43,-0.03,0.02,1.37,0.9,-0.7,-1.6,0.7,-0.02,0.02,0.71
1697352411.44,-0.03,0.02,1.37,0.9,-0.7,-1.6,0.7,-0.02,0.02,0.71
1697352411.45,-0.03,0.02,1.37,0.9,-0.7,-1.6,0.7,-0.02,0.02,0.71
1697352411.46,-0.03,0.02,1.37,0.9,-0.7,-1.6,0.7,-0.02,0.02,0.71
1697352411.47,-0.03,0.02,1.37,0.9,-0.7,-1.6,0.7,-0.02,0.02,0.71
1697352411.48,-0.03,0.02,1.37,0.9,-0.7,-1.6,0.7,-0.02,0.02,0.71
1697352411.49,-0.03,0.02,1.37,0.9,-0.7,-1.6,0.7,-0.02,0.02,0.71
1697352411.5,-0.03,0.02,1.37,0.9,-0.7,-1.6,0.7,-0.02,0.02,0.71
1697352411.51,-0.03,0.02,1.37,0.9,-0.7,-1.6,0.7,-0.02,0.02,0.71
1697352411.52,-0.03,0.02,1.37,0.9,-0.7,-1.6,0.7,-0.02,0.02,0.71
1697352411.53,-0.03,0.02,1.37,0.9,-0.7,-1.6,0.7,-0.02,0.02,0.71
1697352411.54,-0.03,0.02,1.37,0.9,-0.7,-1.6,0.7,-0.02,0.02,0.71
1697352411.55,-0.03,0.02,1.37,0.9,-0.7,-1.6,0.7,-0.02,0.02,0.71
1697352411.56,-0.03,0.02,1.37,0.9,-0.7,-1.6,0.7,-0.02,0.02,0.71
1697352411.57,-0.03,0.02,1.37,0.9,-0.7,-1.6,0.7,-0.02,0.02,0.71
1697352411.58,-0.03,0.02,1.37,0.9,-0.7,-1.6,0.7,-0.02,0.02,0.71
1697352411.59,-0.03,0.02,1.37,0.9,-0.7,-1.6,0.7,-0.02,0.02,0.71
1697352411.6,-0.03,0.02,1.37,0.9,-0.7,-1.6,0.7,-0.02,0.02,0.71
1697352411.61,-0.03,0.02,1.37,0.9,-0.7,-1.6,0.7,-0.02,0.02,0.71
1697352411.62,-0.03,0.02,1.37,0.9,-0.7,-1.6,0.7,-0.02,0.02,0.71
1697352411.63,-0.18,0.68,1.21,0.7,-1.3,38.4,0.6,-0.02,0.03,0.8
1697352411.64,0.15,0.33,0.99,0.3,-1.9,37.3,0.6,-0.02,0.03,0.8
1697352411.65,-0.08,0.6,1.05,-1.6,-1.6,35.9,0.59,-0.02,0.03,0.8
1697352411.66,-0.09,0.46,1.12,-1.6,-1.6,35.9,0.59,-0.02,0.03,0.81
1697352411.67,0.21,0.51,0.85,-2.6,-0.9,34,0.59,-0.02,0.03,0.81
1697352411.68,-0.12,0.58,1.2,-2.6,-0.9,34,0.59,-0.02,0.03,0.81
1697352411.69,-0.06,0.41,1.2,-0.3,1.4,32.6,0.58,-0.02,0.03,0.81
1697352411.7,-0.03,0.46,1.35,0,2.1,31.9,0.58,-0.02,0.03,0.81
1697352411.71,-0.03,0.46,1.35,0,2.1,31.9,0.58,-0.02,0.03,0.82
1697352411.72,0.01,0.4,0.97,0.6,2.6,31.3,0.58,-0.02,0.03,0.82
1697352411.73,0.1,0.29,1.05,-0.1,1.8,29.8,0.57,-0.02,0.03,0.82
1697352411.74,0.1,0.29,1.05,-0.1,1.8,29.8,0.57,-0.02,0.03,0.82
1697352411.75,-0.06,0.27,0.81,-1.8,1.1,28.8,0.57,-0.02,0.03,0.82
1697352411.76,0.05,0.29,1.18,-2.8,0.3,27.6,0.57,-0.02,0.03,0.82
1697352411.77,0.29,0.31,0.54,-2.8,-0.7,25.9,0.57,-0.02,0.03,0.82
1697352411.78,0.1,0.24,1.11,-3.2,-0.9,24.8,0.56,-0.02,0.03,0.83
1697352411.79,0.12,0.22,1.15,-3.2,-0.9,24.8,0.56,-0.02,0.03,0.83
1697352411.8,0.32,0.13,0.49,-3.6,-3.3,20.2,0.56,-0.02,0.03,0.83
1697352411.81,0.02,0.18,1.07,-3,-2.9,17.6,0.56,-0.02,0.03,0.83
1697352411.82,0.12,0.08,1.29,-1,-3.6,14.9,0.56,-0.02,0.03,0.83
1697352411.83,0.21,-0.11,0.84,-1.1,-4,12.8,0.56,-0.02,0.03,0.83
1697352411.84,-0.08,0.06,1.25,-2.6,-4.2,11.4,0.56,-0.02,0.03,0.83
1697352411.85,-0.12,-0.17,1.11,-2,-3.5,10.5,0.56,-0.02,0.03,0.83
1697352411.86,0.07,-0.13,1.13,-1.5,-2.5,9.1,0.55,-0.02,0.03,0.83
1697352411.87,-0.04,-0.27,0.9,-1.3,-1.6,8,0.55,-0.02,0.03,0.83
1697352411.88,-0.14,-0.38,1.12,-2.5,-0.8,6.3,0.55,-0.02,0.03,0.83
1697352411.89,0.17,-0.36,0.66,-4.4,-0.2,4,0.55,-0.02,0.03,0.83
1697352411.9,0.04,-0.36,0.88,-5.1,1.2,0.8,0.55,-0.02,0.02,0.83
1697352411.91,-0.01,-0.25,1.26,-3.3,1.3,-3.8,0.55,-0.02,0.02,0.83
1697352411.92,0.24,-0.32,0.9,-1,0.6,-6.4,0.55,-0.02,0.02,0.83
1697352411.93,-0.1,-0.48,1.37,-1.6,0.1,-9.1,0.55,-0.02,0.02,0.83
1697352411.94,0.15,-0.51,0.87,-3.3,-0.1,-11.4,0.55,-0.02,0.02,0.83
1697352411.95,-0.05,-0.39,1.12,-4.3,-0.9,-12.7,0.56,-0.02,0.02,0.83
1697352411.96,0.32,-0.33,0.69,-4.8,-1.2,-13.6,0.56,-0.02,0.02,0.83
1697352411.97,-0.03,-0.21,1.28,-4.2,-1.2,-14,0.56,-0.02,0.02,0.83
1697352411.98,0.04,-0.18,1.08,-3.3,-1.2,-13.7,0.56,-0.02,0.02,0.83
1697352411.99,-0,-0.13,1.21,-1.1,-1,-13.1,0.56,-0.02,0.02,0.83
1697352412,0.14,-0.29,0.91,-1.1,-1,-13.1,0.56,-0.02,0.02,0.83
1697352412.01,0.09,-0.29,0.69,2.4,-0.3,-10.9,0.56,-0.02,0.02,0.83
1697352412.02,0.09,-0.29,0.69,2.4,-0.3,-10.9,0.56,-0.02,0.02,0.83
1697352412.03,0.09,-0.29,0.69,2.4,-0.3,-10.9,0.56,-0.02,0.02,0.83
1697352412.04,0.09,-0.29,0.69,2.4,-0.3,-10.9,0.56,-0.02,0.02,0.83
1697352412.05,0.09,-0.29,0.69,2.4,-0.3,-10.9,0.56,-0.02,0.02,0.83
1697352412.06,0.09,-0.29,0.69,2.4,-0.3,-10.9,0.56,-0.02,0.02,0.83
1697352412.07,0.09,-0.29,0.69,2.4,-0.3,-10.9,0.56,-0.02,0.02,0.83
1697352412.08,0.09,-0.29,0.69,2.4,-0.3,-10.9,0.56,-0.02,0.02,0.83
1697352412.09,0.09,-0.29,0.69,2.4,-0.3,-10.9,0.56,-0.02,0.02,0.83
1697352412.1,0.09,-0.29,0.69,2.4,-0.3,-10.9,0.56,-0.02,0.02,0.83
1697352412.11,0.09,-0.29,0.69,2.4,-0.3,-10.9,0.56,-0.02,0.02,0.83
1697352412.12,0.09,-0.29,0.69,2.4,-0.3,-10.9,0.56,-0.02,0.02,0.83
1697352412.13,0.09,-0.29,0.69,2.4,-0.3,-10.9,0.56,-0.02,0.02,0.83
1697352412.14,0.09,-0.29,0.69,-0.6,1.2,-5.7,0.56,-0.02,0.02,0.83
1697352412.15,0.19,-0.37,1.21,1.8,0.6,-6.6,0.57,-0.02,0.02,0.82
1697352412.16,0.19,-0.37,1.21,1.4,0,-7.7,0.57,-0.02,0.02,0.82
1697352412.17,0.04,-0.51,1.04,-0.6,-0.9,-10.2,0.57,-0.02,0.02,0.82
1697352412.18,-0.09,-0.57,0.57,-2.8,-1,-12.5,0.57,-0.02,0.02,0.82
1697352412.19,-0.1,-0.24,1.41,-4.3,-1,-15.1,0.57,-0.02,0.02,0.82
1697352412.2,-0.12,-0.29,1.02,-5,-0.4,-16,0.57,-0.02,0.02,0.82
1697352412.21,0.07,-0.26,1.22,-2.8,-0.1,-17.3,0.57,-0.02,0.02,0.82
1697352412.22,0.28,-0.46,0.4,-1.6,-0.2,-17.6,0.57,-0.02,0.02,0.82
1697352412.23,0.01,-0.46,1.06,-1.4,0,-17.9,0.58,-0.02,0.02,0.82
1697352412.24,0.18,-0.42,0.87,-3.3,-0.3,-17.7,0.58,-0.02,0.02,0.82
1697352412.25,-0.04,-0.39,1.17,-3,-1.2,-17.4,0.58,-0.02,0.02,0.82
1697352412.26,0.01,-0.61,1.04,-1.5,-1.8,-17.4,0.58,-0.02,0.02,0.81
1697352412.27,-0.19,-0.43,1.43,-0.5,-1.1,-18.4,0.58,-0.02,0.02,0.81
1697352412.28,-0.01,-0.55,1.04,-1.6,-0.4,-18.2,0.58,-0.02,0.02,0.81
1697352412.29,0.08,-0.42,1.15,-1.2,-0.6,-19.3,0.58,-0.02,0.02,0.81
1697352412.3,0.09,-0.32,0.95,-1.6,-0.4,-19.5,0.58,-0.02,0.02,0.81
1697352412.31,0.21,-0.29,0.77,0.2,0.5,-19.6,0.59,-0.02,0.02,0.81
1697352412.32,-0.04,-0.49,1.06,1.8,1.1,-19.1,0.59,-0.02,0.02,0.81
1697352412.33,0.04,-0.53,1.06,1.6,1.3,-18.6,0.59,-0.02,0.02,0.81
1697352412.34,0.32,-0.47,0.57,0.2,1.3,-18.9,0.59,-0.02,0.02,0.81
1697352412.35,-0.13,-0.47,1.24,-2.4,1.7,-19,0.59,-0.02,0.02,0.81
1697352412.36,-0.03,-0.37,1.22,-3.5,1.9,-19.5,0.59,-0.02,0.02,0.81
1697352412.37,0.3,-0.33,0.39,-3.5,2.2,-19.9,0.59,-0.02,0.02,0.8
1697352412.38,-0.07,-0.42,1.2,-2.8,2.3,-20.3,0.6,-0.02,0.02,0.8
1697352412.39,-0.07,-0.48,1.28,-2.8,2.3,-20.3,0.6,-0.02,0.02,0.8
1697352412.4,-0.2,-0.65,1.54,0.2,1.8,-23.5,0.6,-0.02,0.02,0.8
1697352412.41,0.11,-0.86,0.72,0.5,1.6,-25.4,0.6,-0.02,0.02,0.8
1697352412.42,-0.11,-0.88,0.99,-1.6,1.7,-27.8,0.6,-0.02,0.02,0.8
1697352412.43,-0.16,-0.79,1.46,-4.6,1.4,-30.1,0.6,-0.02,0.02,0.8
1697352412.44,-0.16,-0.79,1.46,-4.6,1.4,-30.1,0.61,-0.02,0.02,0.8
1697352412.45,-0.05,-0.76,1.46,-6.5,1.7,-33.7,0.61,-0.02,0.02,0.79
1697352412.46,-0.08,-0.8,1.15,-6.5,1.7,-33.7,0.61,-0.02,0.02,0.79
1697352412.47,0.19,-1.06,0.43,-3.4,0.7,-37.3,0.61,-0.02,0.02,0.79
1697352412.48,0.19,-1.06,0.43,-3.4,0.7,-37.3,0.61,-0.02,0.02,0.79
1697352412.49,0.07,-1.02,0.71,-4.3,1,-39.4,0.61,-0.02,0.02,0.79
1697352412.5,-0.07,-0.96,0.94,-5.1,0.7,-42.1,0.62,-0.02,0.02,0.78
1697352412.51,-0.31,-0.91,1.52,-5,0,-43.7,0.62,-0.02,0.02,0.78
1697352412.52,0.09,-1.02,0.82,-4.3,-0.4,-46,0.62,-0.02,0.02,0.78
1697352412.53,0.09,-1.02,0.82,-4.3,-0.4,-46,0.62,-0.02,0.02,0.78
1697352412.54,0.09,-1.02,0.82,-4.3,-0.4,-46,0.62,-0.02,0.02,0.78
1697352412.55,0.09,-1.02,0.82,-4.3,-0.4,-46,0.62,-0.02,0.02,0.78
1697352412.56,0.09,-1.02,0.82,-4.3,-0.4,-46,0.62,-0.02,0.02,0.78
1697352412.57,0.09,-1.02,0.82,-4.3,-0.4,-46,0.62,-0.02,0.02,0.78
1697352412.58,0.09,-1.02,0.82,-4.3,-0.4,-46,0.62,-0.02,0.02,0.78
1697352412.59,0.09,-1.02,0.82,-4.3,-0.4,-46,0.62,-0.02,0.02,0.78
1697352412.6,0.09,-1.02,0.82,-4.3,-0.4,-46,0.62,-0.02,0.02,0.78
1697352412.61,0.09,-1.02,0.82,-4.3,-0.4,-46,0.62,-0.02,0.02,0.78
1697352412.62,0.09,-1.02,0.82,-4.3,-0.4,-46,0.62,-0.02,0.02,0.78
1697352412.63,0.09,-1.02,0.82,-4.3,-0.4,-46,0.62,-0.02,0.02,0.78
1697352412.64,0.09,-1.02,0.82,-4.3,-0.4,-46,0.62,-0.02,0.02,0.78
1697352412.65,0.09,-1.02,0.82,-4.3,-0.4,-46,0.62,-0.02,0.02,0.78
1697352412.66,0.17,-0.82,0.71,0.9,1.7,-47.4,0.67,-0.03,0.02,0.74
1697352412.67,0.24,-0.84,0.94,0.5,0.2,-46.5,0.67,-0.03,0.02,0.74
1697352412.68,0.04,-0.62,0.78,1.3,-0.4,-45.3,0.68,-0.03,0.02,0.74
1697352412.69,-0.01,-0.76,1.21,2.4,-1.1,-44.7,0.68,-0.03,0.02,0.74
1697352412.7,0.22,-0.92,0.62,1.1,-1.2,-45,0.68,-0.03,0.02,0.73
1697352412.71,0.07,-0.9,0.81,1.1,-1.2,-45,0.68,-0.03,0.02,0.73
1697352412.72,-0.09,-0.85,0.77,-2.3,-0.6,-45.5,0.69,-0.03,0.02,0.73
1697352412.73,-0.25,-0.75,1.5,-2.3,-0.6,-45.5,0.69,-0.03,0.02,0.73
1697352412.74,0.1,-0.79,0.84,-0.8,-0.4,-46.3,0.69,-0.03,0.01,0.72
1697352412.75,-0.2,-0.76,0.78,2.1,0.4,-46.5,0.69,-0.03,0.01,0.72
1697352412.76,-0.16,-1.04,1.15,2,2.6,-47,0.7,-0.03,0.02,0.71
1697352412.77,-0.16,-1.04,1.15,2,2.6,-47,0.7,-0.03,0.02,0.71
1697352412.78,0.13,-0.88,1.05,-2.8,2.9,-46,0.71,-0.03,0.02,0.71
1697352412.79,-0,-0.72,1.17,-2.8,2.9,-46,0.71,-0.03,0.02,0.71
1697352412.8,0.06,-0.59,1.02,1.1,2.4,-43.2,0.71,-0.03,0.02,0.7
1697352412.81,0.06,-0.59,1.02,1.1,2.4,-43.2,0.71,-0.03,0.02,0.7
1697352412.82,0.04,-0.97,0.89,1.9,1.3,-43.8,0.71,-0.03,0.02,0.7
1697352412.83,0.09,-1.03,1.11,0,0.7,-44.5,0.72,-0.03,0.02,0.7
1697352412.84,0.04,-0.87,0.5,-0.6,1.2,-44.6,0.72,-0.03,0.02,0.7
1697352412.85,-0.19,-0.84,1.14,1.7,1.4,-45.9,0.72,-0.03,0.02,0.69
1697352412.86,-0.01,-0.82,0.77,1.2,2.1,-45.7,0.73,-0.03,0.02,0.69
1697352412.87,0,-0.93,0.55,0,3.4,-46.2,0.73,-0.03,0.02,0.68
1697352412.88,-0.19,-0.91,1.34,-1.6,4.1,-46,0.73,-0.03,0.02,0.68
1697352412.89,-0.08,-0.82,1.59,-2.9,4,-45.4,0.74,-0.03,0.02,0.68
1697352412.9,0.07,-0.82,0.65,-1.6,3.9,-45.1,0.74,-0.03,0.02,0.67
1697352412.91,0.19,-0.71,0.83,0.4,3.7,-44.6,0.74,-0.03,0.02,0.67
1697352412.92,-0.2,-0.79,1.35,1,3.4,-44.4,0.74,-0.03,0.02,0.67
1697352412.93,-0.17,-0.87,1.14,1.9,3.1,-45.4,0.75,-0.03,0.02,0.66
1697352412.94,0.12,-0.83,0.42,1.7,3,-46.2,0.75,-0.03,0.02,0.66
1697352412.95,-0.32,-0.94,1.18,1.8,2.7,-47,0.75,-0.03,0.02,0.66
1697352412.96,-0.05,-0.9,0.94,2,2.4,-47.3,0.76,-0.03,0.02,0.65
1697352412.97,-0.29,-1.02,1.49,0.1,1.8,-47.4,0.76,-0.03,0.02,0.65
1697352412.98,0.19,-0.85,0.26,-0.5,1.3,-47.5,0.76,-0.03,0.02,0.65
1697352412.99,-0.23,-0.81,1.4,0.3,0.8,-47.1,0.76,-0.03,0.02,0.64
1697352413,-0.22,-0.78,0.95,1.3,0.5,-46.8,0.77,-0.03,0.02,0.64
1697352413.01,0.01,-0.77,0.52,2,0.1,-46.3,0.77,-0.03,0.02,0.64
1697352413.02,-0.27,-0.92,1.55,1.2,-0.2,-46,0.77,-0.03,0.02,0.64
1697352413.03,-0.31,-0.93,1.36,0.8,0,-46.1,0.77,-0.03,0.02,0.63
1697352413.04,-0.17,-0.92,1.15,0.8,0,-46.1,0.77,-0.03,0.02,0.63
1697352413.05,-0.17,-0.92,1.15,-2.7,0.4,-46.1,0.77,-0.03,0.02,0.63
1697352413.06,-0.17,-0.92,1.15,-2.7,0.4,-46.1,0.77,-0.03,0.02,0.63
1697352413.07,-0.17,-0.92,1.15,-2.7,0.4,-46.1,0.77,-0.03,0.02,0.63
1697352413.08,-0.17,-0.92,1.15,-2.7,0.4,-46.1,0.77,-0.03,0.02,0.63
1697352413.09,-0.17,-0.92,1.15,-2.7,0.4,-46.1,0.77,-0.03,0.02,0.63
1697352413.1,-0.17,-0.92,1.15,-2.7,0.4,-46.1,0.77,-0.03,0.02,0.63
1697352413.11,-0.17,-0.92,1.15,-2.7,0.4,-46.1,0.77,-0.03,0.02,0.63
1697352413.12,-0.17,-0.92,1.15,-2.7,0.4,-46.1,0.77,-0.03,0.02,0.63
1697352413.13,-0.17,-0.92,1.15,-2.7,0.4,-46.1,0.77,-0.03,0.02,0.63
1697352413.14,-0.17,-0.92,1.15,-2.7,0.4,-46.1,0.77,-0.03,0.02,0.63
1697352413.15,-0.17,-0.92,1.15,-2.7,0.4,-46.1,0.77,-0.03,0.02,0.63
1697352413.16,-0.17,-0.92,1.15,-2.7,0.4,-46.1,0.77,-0.03,0.02,0.63
1697352413.17,0.29,0.06,0.44,-2.7,0.4,-46.1,0.77,-0.03,0.02,0.63
1697352413.18,0.07,0.08,0.84,6.8,-4.3,-17.6,0.8,-0.03,0.02,0.6
1697352413.19,0.17,0.04,0.85,8.3,-4,-13.8,0.8,-0.03,0.02,0.6
1697352413.2,0.04,0.22,1.07,7.3,-3.1,-9.5,0.8,-0.03,0.02,0.59
1697352413.21,-0.12,0.24,1.31,6.4,-2,-5.4,0.8,-0.03,0.02,0.59
1697352413.22,0.1,0.3,0.74,6.5,-1.2,-2.6,0.8,-0.03,0.02,0.59
1697352413.23,-0.06,0.33,0.89,6.3,0.4,-0.3,0.8,-0.03,0.02,0.59
1697352413.24,-0.14,0.19,1.28,7.7,0.6,0.9,0.8,-0.03,0.02,0.59
1697352413.25,0.1,0.23,0.93,7,0.4,1.5,0.8,-0.03,0.02,0.59
1697352413.26,-0.13,0.29,1.14,7,0.4,1.5,0.8,-0.03,0.02,0.59
1697352413.27,-0.02,0.44,0.91,2.2,0,1.6,0.8,-0.03,0.02,0.59
1697352413.28,-0.14,0.21,0.98,1.8,-0.3,2.4,0.8,-0.03,0.02,0.59
1697352413.29,-0.26,0.43,1.4,-0.2,-0.3,3.1,0.8,-0.03,0.02,0.59
1697352413.3,-0.1,0.69,1.11,-2.6,-0.3,4.5,0.8,-0.03,0.02,0.6
1697352413.31,-0.04,0.78,0.95,-1.6,0,7.7,0.8,-0.03,0.02,0.6
1697352413.32,0.03,0.57,1.06,2,0.1,10.5,0.8,-0.03,0.02,0.6
1697352413.33,0.29,0.59,0.7,5.7,-0.1,13.1,0.8,-0.03,0.02,0.6
1697352413.34,0.2,0.49,0.91,5.7,-0.1,13.1,0.8,-0.03,0.02,0.6
1697352413.35,0.15,0.65,0.96,5.4,-0.8,19.6,0.8,-0.03,0.02,0.6
1697352413.36,0.15,0.65,0.96,5.4,-0.8,19.6,0.8,-0.03,0.02,0.6
1697352413.37,0.04,0.99,0.86,3.9,-0.8,25.7,0.8,-0.02,0.02,0.6
1697352413.38,-0.18,1.03,1.17,3.9,-0.8,25.7,0.8,-0.02,0.02,0.6
1697352413.39,-0.07,0.92,1.2,9.1,-0.5,33.3,0.79,-0.02,0.02,0.61
1697352413.4,-0.07,0.92,1.2,9.1,-0.5,33.3,0.79,-0.02,0.02,0.61
1697352413.41,-0.08,1.08,0.84,7.8,0,41.7,0.79,-0.02,0.02,0.62
1697352413.42,-0.25,1.09,1.08,6.4,0,45.1,0.79,-0.02,0.02,0.62
1697352413.43,0.09,0.93,0.67,5.3,-0.5,47.9,0.78,-0.02,0.02,0.62
1697352413.44,0.02,1.02,0.71,1.3,-1.3,50,0.78,-0.02,0.02,0.62
1697352413.45,-0.06,1.16,0.91,-2.1,-1.9,51.8,0.78,-0.02,0.02,0.63
1697352413.46,-0.26,1.14,1.45,0.8,-2.7,54.2,0.77,-0.02,0.02,0.63
1697352413.47,-0.02,1.25,0.62,4.4,-1.4,55.7,0.77,-0.02,0.02,0.63
1697352413.48,-0.2,1.32,0.82,4.4,-1.4,55.7,0.77,-0.02,0.02,0.64
1697352413.49,-0.2,1.32,0.82,8.1,-1.4,56.4,0.77,-0.02,0.02,0.64
1697352413.5,-0.16,1.19,1,7.8,0,57.4,0.76,-0.02,0.02,0.64
1697352413.51,-0.11,1.23,0.7,5.4,1,58.2,0.76,-0.02,0.03,0.65
1697352413.52,-0.32,1.17,1.31,3.1,2.1,59.7,0.76,-0.02,0.03,0.65
1697352413.53,-0.21,1.28,0.9,2.1,2.7,60.8,0.75,-0.02,0.03,0.66
1697352413.54,-0.37,1.33,0.91,2,3.8,61.7,0.75,-0.02,0.03,0.66
1697352413.55,-0.16,1.33,0.46,3,4.6,63.6,0.75,-0.02,0.03,0.66
1697352413.56,-0.28,1.37,0.84,3.4,4.4,65,0.74,-0.02,0.03,0.67
1697352413.57,-0.15,1.35,0.67,3.1,5,67.2,0.74,-0.02,0.03,0.67
1697352413.58,-0.15,1.35,0.67,3.1,5,67.2,0.74,-0.02,0.03,0.67
1697352413.59,-0.15,1.35,0.67,3.1,5,67.2,0.74,-0.02,0.03,0.67
1697352413.6,-0.15,1.35,0.67,3.1,5,67.2,0.74,-0.02,0.03,0.67
1697352413.61,-0.15,1.35,0.67,3.1,5,67.2,0.74,-0.02,0.03,0.67
1697352413.62,-0.15,1.35,0.67,3.1,5,67.2,0.74,-0.02,0.03,0.67
1697352413.63,-0.15,1.35,0.67,3.1,5,67.2,0.74,-0.02,0.03,0.67
1697352413.64,-0.15,1.35,0.67,3.1,5,67.2,0.74,-0.02,0.03,0.67
1697352413.65,-0.15,1.35,0.67,3.1,5,67.2,0.74,-0.02,0.03,0.67
1697352413.66,-0.15,1.35,0.67,3.1,5,67.2,0.74,-0.02,0.03,0.67
1697352413.67,-0.15,1.35,0.67,3.1,5,67.2,0.74,-0.02,0.03,0.67
1697352413.68,-0.15,1.35,0.67,3.1,5,67.2,0.74,-0.02,0.03,0.67
1697352413.69,-0.15,1.35,0.67,3.1,5,67.2,0.74,-0.02,0.03,0.67
1697352413.7,-0.15,1.35,0.67,3.1,5,67.2,0.74,-0.02,0.03,0.67
1697352413.71,-0.15,1.35,0.67,3.1,5,67.2,0.74,-0.02,0.03,0.67
1697352413.72,-0.15,1.35,0.67,3.1,5,67.2,0.74,-0.02,0.03,0.67
1697352413.73,-0.15,1.35,0.67,3.1,5,67.2,0.74,-0.02,0.03,0.67
1697352413.74,-0.15,1.35,0.67,3.1,5,67.2,0.74,-0.02,0.03,0.67
1697352413.75,-0.3,1.63,0.64,-1.8,4.6,78.8,0.65,-0.01,0.03,0.76
1697352413.76,-0.3,1.63,0.64,-1.8,4.6,78.8,0.65,-0.02,0.03,0.76
1697352413.77,-0.1,1.26,0.51,2.9,4.2,77.9,0.64,-0.02,0.03,0.77
1697352413.78,-0.1,1.26,0.51,2.9,4.2,77.9,0.64,-0.02,0.04,0.77
1697352413.79,-0.21,1.3,0.84,-0.1,4.3,78.6,0.63,-0.02,0.04,0.77
1697352413.8,-0.21,1.3,0.84,-0.1,4.3,78.6,0.63,-0.02,0.04,0.78
1697352413.81,-0.21,1.47,1.16,-0.9,3.9,78.5,0.62,-0.02,0.04,0.78
1697352413.82,-0.21,1.47,1.16,-1,3.3,79.5,0.62,-0.02,0.04,0.79
1697352413.83,0.11,1.37,0.28,-0.6,2.3,80.4,0.61,-0.02,0.04,0.79
1697352413.84,-0.28,1.39,1.5,0.1,0.7,80.4,0.6,-0.01,0.04,0.8
1697352413.85,-0.28,1.11,1.23,0.4,0.2,80.1,0.6,-0.01,0.04,0.8
1697352413.86,-0,0.75,0.94,-0.8,-0.5,78.2,0.59,-0.01,0.04,0.8
1697352413.87,0.07,0.67,0.86,-4.6,-1.3,75,0.59,-0.01,0.04,0.81
1697352413.88,0.03,0.65,1.08,-7.6,-2,70.7,0.58,-0.01,0.04,0.81
1697352413.89,0.09,0.7,1.07,-8.2,-2.6,64.7,0.58,-0.01,0.04,0.82
1697352413.9,0.05,0.81,0.65,-6.9,-2.1,58.4,0.57,-0.01,0.03,0.82
1697352413.91,-0.08,0.63,0.95,-5,-1,52.6,0.57,-0.01,0.03,0.82
1697352413.92,-0.07,0.72,1.19,-2.6,-0.1,45.9,0.57,-0.01,0.03,0.82
1697352413.93,-0.04,0.61,0.88,-2.3,1.4,40.5,0.56,-0.01,0.03,0.83
1697352413.94,-0.1,0.55,1.31,-1.8,2.5,35.5,0.56,-0.01,0.03,0.83
1697352413.95,0.04,0.53,0.47,-3.8,3.9,31.6,0.56,-0.02,0.03,0.83
1697352413.96,-0.11,0.62,1.3,-7.3,4.8,29.7,0.56,-0.02,0.03,0.83
1697352413.97,0.09,0.63,0.55,-9,4.7,28.6,0.55,-0.02,0.03,0.83
1697352413.98,-0.07,0.51,1.16,-8.1,4.5,28.1,0.55,-0.02,0.03,0.83
1697352413.99,0.05,0.3,1.23,-6.4,3.6,27.5,0.55,-0.02,0.03,0.83
1697352414,0.13,0.04,0.92,-4.8,2.5,27,0.55,-0.02,0.03,0.84
1697352414.01,0.23,-0.09,0.96,-4,0.4,24.5,0.55,-0.02,0.03,0.84
1697352414.02,0.06,-0.21,1.32,-6.2,-0.5,22.3,0.54,-0.02,0.03,0.84
1697352414.03,0.14,-0.12,1.07,-8.3,-1.2,21,0.54,-0.02,0.03,0.84
1697352414.04,-0.02,0.17,0.7,-6.8,-1.4,20.3,0.54,-0.02,0.03,0.84
1697352414.05,0.02,0.07,1.13,-4.2,-1.1,19.9,0.54,-0.02,0.03,0.84
1697352414.06,0.06,0.11,1.03,-1.1,-1.3,18.6,0.54,-0.02,0.03,0.84
1697352414.07,0.03,-0.02,0.71,-0.5,-0.7,17.8,0.54,-0.02,0.03,0.84
1697352414.08,-0.11,-0.17,1.43,-1,-0.6,15.8,0.54,-0.02,0.03,0.84
1697352414.09,-0.12,-0.15,1.4,-2.7,0.3,13.2,0.54,-0.02,0.03,0.84
1697352414.1,0.24,-0.06,0.78,-2.7,0.3,13.2,0.53,-0.02,0.03,0.84
1697352414.11,0.2,-0.1,0.94,-5.6,0.8,7.8,0.53,-0.02,0.03,0.85
1697352414.12,0.11,-0.17,1.17,-4.8,1.3,4,0.53,-0.02,0.03,0.85
1697352414.13,0.2,-0.45,0.9,-4.8,1.3,0.3,0.53,-0.02,0.03,0.85
1697352414.14,0.2,-0.45,0.9,-4.8,1.3,0.3,0.53,-0.02,0.03,0.85
1697352414.15,0.2,-0.45,0.9,-4.8,1.3,0.3,0.53,-0.02,0.03,0.85
1697352414.16,0.2,-0.45,0.9,-4.8,1.3,0.3,0.53,-0.02,0.03,0.85
1697352414.17,0.2,-0.45,0.9,-4.8,1.3,0.3,0.53,-0.02,0.03,0.85
1697352414.18,0.2,-0.45,0.9,-4.8,1.3,0.3,0.53,-0.02,0.03,0.85
1697352414.19,0.2,-0.45,0.9,-4.8,1.3,0.3,0.53,-0.02,0.03,0.85
1697352414.2,0.2,-0.45,0.9,-4.8,1.3,0.3,0.53,-0.02,0.03,0.85
1697352414.21,0.2,-0.45,0.9,-4.8,1.3,0.3,0.53,-0.02,0.03,0.85
1697352414.22,0.2,-0.45,0.9,-4.8,1.3,0.3,0.53,-0.02,0.03,0.85
1697352414.23,0.2,-0.45,0.9,-4.8,1.3,0.3,0.53,-0.02,0.03,0.85
1697352414.24,0.2,-0.45,0.9,-4.8,1.3,0.3,0.53,-0.02,0.03,0.85
1697352414.25,0.2,-0.45,0.9,-4.8,1.3,0.3,0.53,-0.02,0.03,0.85
1697352414.26,0.2,-0.45,0.9,-4.8,1.3,0.3,0.53,-0.02,0.03,0.85
1697352414.27,0.02,-0.92,0.59,-5.2,-2.1,-38.8,0.55,-0.02,0.02,0.83
1697352414.28,-0.05,-0.85,0.65,-4.5,-1.1,-40.6,0.56,-0.02,0.02,0.83
1697352414.29,-0.18,-0.97,1.49,-2.3,-0.8,-42.5,0.56,-0.02,0.02,0.83
1697352414.3,0.21,-1.06,0.42,-0.7,-0.3,-44.7,0.56,-0.02,0.02,0.83
1697352414.31,0.21,-1.06,0.42,-0.7,-0.3,-44.7,0.56,-0.02,0.02,0.83
1697352414.32,-0.1,-1.14,1.35,-2.6,1.2,-47.6,0.57,-0.02,0.02,0.82
1697352414.33,0.05,-0.96,0.54,-3.4,0.9,-48.8,0.57,-0.03,0.02,0.82
1697352414.34,0.05,-0.93,0.59,-2.4,1.3,-49.8,0.57,-0.03,0.02,0.82
1697352414.35,-0.26,-1.01,1.32,-1.7,1,-50.4,0.58,-0.03,0.02,0.82
1697352414.36,0.09,-0.97,0.69,-1.2,1.1,-51.5,0.58,-0.03,0.02,0.81
1697352414.37,-0.18,-0.97,1.06,-0.7,0.1,-52.5,0.59,-0.03,0.02,0.81
1697352414.38,-0.12,-1.09,1.05,-1,-0.1,-53,0.59,-0.03,0.02,0.81
1697352414.39,-0.12,-1.09,1.05,-1,-0.1,-53,0.59,-0.03,0.02,0.8
1697352414.4,-0.06,-0.88,0.67,-2.1,0,-53,0.6,-0.03,0.02,0.8
1697352414.41,-0.06,-0.88,0.67,-2.1,0,-53,0.6,-0.03,0.02,0.8
1697352414.42,-0.01,-1.03,0.94,-0.3,0.1,-52.6,0.6,-0.03,0.02,0.8
1697352414.43,-0.01,-1.03,0.94,-0.3,0.1,-52.6,0.61,-0.03,0.02,0.79
1697352414.44,-0.32,-1.06,1.31,-0.3,1.1,-52.7,0.61,-0.03,0.02,0.79
1697352414.45,-0.32,-1.06,1.31,-0.3,1.1,-52.7,0.61,-0.03,0.02,0.79
1697352414.46,-0.09,-0.98,0.88,0,1.8,-52.8,0.62,-0.03,0.02,0.79
1697352414.47,0.04,-1.06,0.42,0,1.9,-53,0.62,-0.03,0.02,0.78
1697352414.48,-0.15,-1.07,1.33,-0.6,1.9,-53.2,0.63,-0.03,0.02,0.78
1697352414.49,0.01,-0.99,0.5,-1.3,2,-53.5,0.63,-0.03,0.02,0.78
1697352414.5,-0.17,-0.97,1.13,-2.1,1.4,-53.6,0.63,-0.03,0.02,0.77
1697352414.51,-0.21,-0.84,1.3,-1,1,-53.5,0.63,-0.03,0.02,0.77
1697352414.52,0.05,-0.88,0.64,0.8,0.2,-53.6,0.64,-0.03,0.02,0.77
1697352414.53,-0.15,-0.93,1.35,1.1,-0.9,-53.4,0.64,-0.03,0.02,0.77
1697352414.54,-0.15,-0.93,1.35,1.1,-0.9,-53.4,0.65,-0.03,0.02,0.76
1697352414.55,-0.05,-0.95,1.07,-0.7,-1,-52.7,0.65,-0.03,0.02,0.76
1697352414.56,0.08,-0.76,0.93,-0.7,-1,-52.7,0.65,-0.03,0.02,0.76
1697352414.57,0.14,-0.81,0.9,-1.8,-1,-51.5,0.66,-0.03,0.02,0.75
1697352414.58,0.15,-0.73,1.09,-1.4,-0.8,-50,0.66,-0.03,0.02,0.75
1697352414.59,-0.27,-0.75,1.63,0.4,-0.6,-49,0.67,-0.03,0.01,0.74
1697352414.6,-0.03,-1.05,0.86,1.8,-0.5,-48.6,0.67,-0.03,0.01,0.74
1697352414.61,-0.23,-1.02,1.07,1.9,0.4,-49.4,0.67,-0.03,0.01,0.74
1697352414.62,-0.01,-1.01,1.16,0.9,1.1,-50.7,0.68,-0.03,0.01,0.74
1697352414.63,-0.07,-1.02,0.79,0.8,2,-51.5,0.68,-0.03,0.01,0.73
1697352414.64,-0.09,-1.11,1.5,0.7,2.4,-53.1,0.68,-0.03,0.01,0.73
1697352414.65,-0.1,-0.98,1.24,-0.6,2.4,-55,0.69,-0.03,0.01,0.73
1697352414.66,0.04,-1.01,1.06,-2.3,2.3,-55.1,0.69,-0.03,0.01,0.73
1697352414.67,0.04,-1.01,1.06,-2.3,2.3,-55.1,0.69,-0.03,0.01,0.73
1697352414.68,0.04,-1.01,1.06,-2.3,2.3,-55.1,0.69,-0.03,0.01,0.73
1697352414.69,0.04,-1.01,1.06,-2.3,2.3,-55.1,0.69,-0.03,0.01,0.73
1697352414.7,0.04,-1.01,1.06,-2.3,2.3,-55.1,0.69,-0.03,0.01,0.73
1697352414.71,0.04,-1.01,1.06,-2.3,2.3,-55.1,0.69,-0.03,0.01,0.73
1697352414.72,0.04,-1.01,1.06,-2.3,2.3,-55.1,0.69,-0.03,0.01,0.73
1697352414.73,0.04,-1.01,1.06,-2.3,2.3,-55.1,0.69,-0.03,0.01,0.73
1697352414.74,0.04,-1.01,1.06,-2.3,2.3,-55.1,0.69,-0.03,0.01,0.73
1697352414.75,0.04,-1.01,1.06,-2.3,2.3,-55.1,0.69,-0.03,0.01,0.73
1697352414.76,0.04,-1.01,1.06,-2.3,2.3,-55.1,0.69,-0.03,0.01,0.73
1697352414.77,0.04,-1.01,1.06,-2.3,2.3,-55.1,0.69,-0.03,0.01,0.73
1697352414.78,0.04,-1.01,1.06,-2.3,2.3,-55.1,0.69,-0.03,0.01,0.73
1697352414.79,0.39,-1.1,0.1,0.6,0.7,-52.6,0.73,-0.03,0.01,0.68
1697352414.8,-0.15,-0.95,1.08,0,2.5,-52.2,0.74,-0.03,0.01,0.67
1697352414.81,-0.15,-0.95,1.08,0,2.5,-52.2,0.74,-0.03,0.01,0.67
1697352414.82,0.24,-1.08,0.67,-0.3,3.3,-52.5,0.74,-0.03,0.01,0.67
1697352414.83,0.24,-1.08,0.67,-0.3,3.3,-52.5,0.74,-0.03,0.01,0.67
1697352414.84,0.02,-0.88,0.85,-0.6,3,-53,0.75,-0.03,0.01,0.66
1697352414.85,-0.09,-0.97,1.43,-0.1,0.7,-53.8,0.75,-0.03,0.01,0.66
1697352414.86,0.02,-1.04,0.99,-0.1,0.7,-53.8,0.75,-0.03,0.01,0.66
1697352414.87,0.02,-1.04,0.99,0.3,-0.1,-54,0.76,-0.03,0.01,0.65
1697352414.88,-0.08,-0.98,1.38,0.2,-0.5,-54.3,0.76,-0.03,0.01,0.65
1697352414.89,-0.08,-0.98,1.38,0.1,-0.8,-54.9,0.76,-0.03,0.01,0.64
1697352414.9,-0.22,-1.01,1.66,0.2,-0.9,-56.4,0.77,-0.03,0.01,0.64
1697352414.91,-0.22,-1.01,1.66,0.2,-0.9,-56.4,0.77,-0.03,0.01,0.64
1697352414.92,0.1,-0.85,0.99,1.3,-0.6,-55.9,0.77,-0.03,0.01,0.63
1697352414.93,0.1,-0.85,0.99,3.9,-0.5,-55.2,0.78,-0.03,0.01,0.63
1697352414.94,0.18,-0.83,0.95,4.7,-0.3,-52.9,0.78,-0.03,0.01,0.62
1697352414.95,0.07,-0.69,1.16,5.5,-0.7,-50.3,0.78,-0.03,0.01,0.62
1697352414.96,0.17,-0.46,1.11,6.2,-0.8,-46,0.79,-0.03,0.01,0.62
1697352414.97,0.41,-0.34,0.86,7,-0.1,-41.8,0.79,-0.03,0.01,0.62
1697352414.98,0.45,-0.09,-0.25,6.2,0.2,-37.2,0.79,-0.03,0.01,0.61
1697352414.99,-0.26,-0.09,1.47,6.1,1.3,-30.7,0.79,-0.03,0.01,0.61
1697352415,0.3,0.03,0.11,6.2,2.5,-25.9,0.79,-0.03,0.01,0.61
1697352415.01,0.12,0.42,0.5,7.1,2,-18.8,0.79,-0.03,0.01,0.61
1697352415.02,0.09,0.52,0.79,10,1.9,-12.1,0.8,-0.03,0.01,0.61
1697352415.03,-0.02,0.53,0.98,9.6,2.3,-5.4,0.8,-0.03,0.02,0.6
1697352415.04,0.25,0.37,0.86,7.8,1.2,0.8,0.8,-0.03,0.02,0.6
1697352415.05,0.12,0.53,0.91,6.2,-0.2,5.7,0.8,-0.03,0.02,0.6
1697352415.06,0.02,0.75,1.06,7.1,-0.7,11.1,0.8,-0.03,0.02,0.6
1697352415.07,0.12,0.66,1.33,7.4,-0.7,12,0.79,-0.03,0.02,0.61
1697352415.08,0.17,0.62,0.59,8.1,-1.1,14.6,0.79,-0.03,0.02,0.61
1697352415.09,-0.02,0.55,1.24,8.8,-2,16.2,0.79,-0.03,0.02,0.61
1697352415.1,-0.06,0.73,0.8,7.5,-1.9,17.2,0.79,-0.03,0.02,0.61
1697352415.11,-0.18,0.78,1.11,7,-1.6,18.4,0.79,-0.03,0.02,0.61
1697352415.12,-0.04,0.82,0.98,8,-1.2,20.3,0.79,-0.02,0.02,0.61
1697352415.13,-0.24,0.71,1.43,8.2,-1,21.9,0.79,-0.02,0.02,0.61
1697352415.14,0.02,0.6,0.87,5.5,-0.6,23.8,0.79,-0.02,0.02,0.61
1697352415.15,-0.14,0.67,1.01,2.3,-0.6,25.1,0.79,-0.02,0.02,0.62
1697352415.16,-0.03,0.87,0.89,-1.6,-0.2,26.8,0.79,-0.02,0.02,0.62
1697352415.17,-0.06,0.8,0.94,-2.1,-0.1,28.1,0.78,-0.02,0.02,0.62
1697352415.18,0.08,0.75,0.92,-1.3,-0.5,29.4,0.78,-0.02,0.02,0.62
1697352415.19,0.08,0.75,0.92,-1.3,-0.5,29.4,0.78,-0.02,0.02,0.62
1697352415.2,0.08,0.75,0.92,-1.3,-0.5,29.4,0.78,-0.02,0.02,0.62
1697352415.21,0.08,0.75,0.92,-1.3,-0.5,29.4,0.78,-0.02,0.02,0.62
1697352415.22,0.08,0.75,0.92,-1.3,-0.5,29.4,0.78,-0.02,0.02,0.62
1697352415.23,0.08,0.75,0.92,-1.3,-0.5,29.4,0.78,-0.02,0.02,0.62
1697352415.24,0.08,0.75,0.92,-1.3,-0.5,29.4,0.78,-0.02,0.02,0.62
1697352415.25,0.08,0.75,0.92,-1.3,-0.5,29.4,0.78,-0.02,0.02,0.62
1697352415.26,0.08,0.75,0.92,-1.3,-0.5,29.4,0.78,-0.02,0.02,0.62
1697352415.27,0.08,0.75,0.92,-1.3,-0.5,29.4,0.78,-0.02,0.02,0.62
1697352415.28,0.08,0.75,0.92,-1.3,-0.5,29.4,0.78,-0.02,0.02,0.62
1697352415.29,0.08,0.75,0.92,-1.3,-0.5,29.4,0.78,-0.02,0.02,0.62
1697352415.3,0.08,0.75,0.92,-1.3,-0.5,29.4,0.78,-0.02,0.02,0.62
1697352415.31,0.08,0.75,0.92,-1.3,-0.5,29.4,0.78,-0.02,0.02,0.62
1697352415.32,0.01,0.74,1.06,-1.9,0.2,42.9,0.76,-0.02,0.02,0.65
1697352415.33,0.17,0.94,0.99,-1.9,0.2,42.9,0.75,-0.02,0.02,0.66
1697352415.34,0.12,0.81,0.8,-0.8,0,42.4,0.75,-0.02,0.02,0.66
1697352415.35,0.12,0.81,0.8,1.2,-0.9,41.9,0.75,-0.02,0.02,0.66
1697352415.36,0.07,0.84,1.06,1.2,-0.9,41.9,0.75,-0.02,0.02,0.66
1697352415.37,0.07,0.66,0.78,3.5,-2.4,41.2,0.74,-0.02,0.02,0.67
1697352415.38,0.06,0.7,0.66,1.9,-1.9,40.5,0.74,-0.02,0.02,0.67
1697352415.39,0.06,0.78,0.79,-0.2,-1.1,40.7,0.74,-0.02,0.02,0.67
1697352415.4,-0.16,0.91,0.98,-1.4,-0.5,41,0.74,-0.02,0.02,0.68
1697352415.41,-0.21,0.84,1.37,-0.4,0.3,41,0.73,-0.02,0.02,0.68
1697352415.42,0.21,0.75,0.51,1,1.1,40.9,0.73,-0.02,0.02,0.68
1697352415.43,0,0.7,1.31,0.7,2.1,40.4,0.73,-0.02,0.02,0.68
1697352415.44,0,0.74,1.17,0.1,2.3,39.9,0.73,-0.02,0.02,0.69
1697352415.45,0.22,0.73,0.8,0,2.2,39.4,0.72,-0.02,0.02,0.69
1697352415.46,0.13,0.6,0.92,-0.7,1.6,39.2,0.72,-0.02,0.02,0.69
1697352415.47,-0.04,0.71,1.14,-2.1,1.1,38.9,0.72,-0.02,0.02,0.69
1697352415.48,0.1,0.61,0.89,-3.3,0.6,38.7,0.72,-0.02,0.02,0.69
1697352415.49,0.05,0.64,0.81,-3.8,0.3,38.7,0.72,-0.02,0.02,0.7
1697352415.5,0.25,0.61,0.6,-4,0,38.4,0.71,-0.02,0.02,0.7
1697352415.51,-0.02,0.65,0.98,-3.3,0.3,37.8,0.71,-0.02,0.02,0.7
1697352415.52,-0.08,0.55,1.29,-1.6,0.2,36.8,0.71,-0.02,0.02,0.7
1697352415.53,0.14,0.54,1.02,-0.4,0,35.7,0.71,-0.02,0.02,0.71
1697352415.54,0.08,0.51,1.06,0.2,0.3,34.3,0.71,-0.02,0.02,0.71
1697352415.55,-0.08,0.54,1.39,1.7,0.9,32.4,0.7,-0.02,0.02,0.71
1697352415.56,0.2,0.3,1,2.7,0.7,30.9,0.7,-0.02,0.02,0.71
1697352415.57,0.14,0.31,1.16,1.1,0.5,28.4,0.7,-0.02,0.02,0.71
1697352415.58,-0.01,0.28,1.04,-2.3,0.4,27.2,0.7,-0.02,0.02,0.72
1697352415.59,0.03,0.48,0.95,-3.8,0.5,25.9,0.7,-0.02,0.02,0.72
1697352415.6,-0.04,0.26,1.05,-3.4,0.4,25.2,0.69,-0.02,0.02,0.72
1697352415.61,0.16,0.33,0.94,-3.4,0.4,25.2,0.69,-0.02,0.02,0.72
1697352415.62,0.06,0.16,1.01,-2.6,-0.1,23.2,0.69,-0.02,0.02,0.72
1697352415.63,0.06,0.16,1.01,-2.6,-0.1,23.2,0.69,-0.02,0.02,0.72
1697352415.64,0.22,0.07,0.57,-5.2,-1.2,19.2,0.69,-0.02,0.02,0.73
1697352415.65,0.15,0.24,1.1,-5.4,-1.7,17,0.69,-0.02,0.02,0.73
1697352415.66,0.26,0.24,0.75,-5.4,-1.7,17,0.68,-0.02,0.02,0.73
1697352415.67,0.26,0.24,0.75,-4.2,-2.1,15,0.68,-0.02,0.02,0.73
1697352415.68,0.01,-0.06,0.93,-1.1,-0.6,13,0.68,-0.02,0.02,0.73
1697352415.69,0.01,-0.06,0.93,-1.1,-0.6,13,0.68,-0.02,0.02,0.73
1697352415.7,0.01,-0.06,0.93,-1.1,-0.6,13,0.68,-0.02,0.02,0.73
1697352415.71,0.01,-0.06,0.93,-1.1,-0.6,13,0.68,-0.02,0.02,0.73
1697352415.72,0.01,-0.06,0.93,-1.1,-0.6,13,0.68,-0.02,0.02,0.73
1697352415.73,0.01,-0.06,0.93,-1.1,-0.6,13,0.68,-0.02,0.02,0.73
1697352415.74,0.01,-0.06,0.93,-1.1,-0.6,13,0.68,-0.02,0.02,0.73
1697352415.75,0.01,-0.06,0.93,-1.1,-0.6,13,0.68,-0.02,0.02,0.73
1697352415.76,0.01,-0.06,0.93,-1.1,-0.6,13,0.68,-0.02,0.02,0.73
1697352415.77,0.01,-0.06,0.93,-1.1,-0.6,13,0.68,-0.02,0.02,0.73
1697352415.78,0.01,-0.06,0.93,-1.1,-0.6,13,0.68,-0.02,0.02,0.73
1697352415.79,0.01,-0.06,0.93,-1.1,-0.6,13,0.68,-0.02,0.02,0.73
1697352415.8,0.01,-0.06,0.93,-1.1,-0.6,13,0.68,-0.02,0.02,0.73
1697352415.81,0.01,-0.06,0.93,-1.1,-0.6,13,0.68,-0.02,0.02,0.73
1697352415.82,0.01,-0.06,0.93,-1.1,-0.6,13,0.68,-0.02,0.02,0.73
1697352415.83,0,-0.19,0.91,3.5,-1.6,-3.1,0.68,-0.03,0.02,0.73
1697352415.84,-0.21,-0.21,1.52,1.2,-0.5,-2.9,0.68,-0.03,0.02,0.73
1697352415.85,-0.08,-0.22,1.2,-1.5,0.4,-2.5,0.68,-0.02,0.02,0.73
1697352415.86,-0.08,-0.01,1.06,-1.9,1.3,-2.6,0.68,-0.03,0.02,0.73
1697352415.87,0.12,-0.08,0.89,-1,2.3,-2.1,0.68,-0.03,0.02,0.73
1697352415.88,0.16,0.06,0.92,0.5,2.3,-2.1,0.68,-0.03,0.02,0.73
1697352415.89,0.16,0.01,0.97,1.7,2.2,-1.8,0.68,-0.03,0.02,0.73
1697352415.9,0.16,0.01,0.97,2.8,2.8,-1.5,0.68,-0.03,0.02,0.73
1697352415.91,0,-0.09,1.06,3.8,2.5,-1.6,0.68,-0.03,0.02,0.73
1697352415.92,-0.05,-0.09,1.02,2.4,1.8,-1.7,0.68,-0.03,0.02,0.73
1697352415.93,0.12,-0.14,0.76,-0.1,1.4,-1.8,0.68,-0.03,0.02,0.73
1697352415.94,0.18,-0.01,0.75,-2,0.1,-1.4,0.68,-0.03,0.02,0.73
1697352415.95,-0.18,0.18,1.37,-2.4,-1.1,-0.6,0.68,-0.03,0.02,0.73
1697352415.96,-0.17,0.31,0.97,1.6,-0.6,0.5,0.68,-0.03,0.02,0.73
1697352415.97,-0.19,0.26,1.21,5.8,0,2,0.68,-0.03,0.02,0.73
1697352415.98,0.14,-0.06,0.74,3.9,0.4,3,0.68,-0.03,0.02,0.73
1697352415.99,-0.04,-0.07,1.1,0,0.8,3,0.68,-0.03,0.02,0.73
1697352416,-0.08,0.05,1.19,-1.8,0.9,3.5,0.68,-0.03,0.02,0.73
1697352416.01,-0.04,0.16,0.99,-1.8,0.9,3.5,0.68,-0.03,0.02,0.73
1697352416.02,0.17,0.24,0.95,2.2,1,4.3,0.68,-0.03,0.02,0.73
1697352416.03,0,0.22,1.25,3.9,0.8,4.7,0.68,-0.03,0.02,0.73
1697352416.04,0.15,0.04,0.95,3.1,0.2,4.7,0.68,-0.03,0.02,0.73
1697352416.05,-0.04,0.09,1.23,1.6,-0.6,5.1,0.68,-0.03,0.02,0.73
1697352416.06,-0.04,0.09,1.23,1.6,-0.6,5.1,0.68,-0.02,0.02,0.73
1697352416.07,0.14,0.06,0.76,-0.9,-1.5,5.4,0.68,-0.02,0.02,0.73
1697352416.08,0.07,0.21,0.88,-0.9,-1.5,5.4,0.68,-0.02,0.02,0.73
1697352416.09,0.07,0.21,0.88,-0.8,-0.9,5.7,0.68,-0.02,0.02,0.73
1697352416.1,-0.15,0.28,1.22,-0.9,-1,6.2,0.68,-0.02,0.02,0.73
1697352416.11,-0.14,0.26,1.06,0,-0.7,7,0.68,-0.02,0.02,0.73
1697352416.12,-0.06,0.24,1.07,1.1,-0.8,7.8,0.68,-0.02,0.02,0.73
1697352416.13,-0.06,0.24,1.07,1.5,-0.7,8.5,0.68,-0.02,0.02,0.74
1697352416.14,-0.15,0.14,0.98,0.5,0.1,9.7,0.68,-0.02,0.02,0.74
1697352416.15,-0.19,0.24,1.13,1,0.3,10.5,0.68,-0.02,0.02,0.74
1697352416.16,-0.08,0.29,1.12,1,0.3,10.5,0.68,-0.02,0.02,0.74
1697352416.17,0.04,0.26,1.1,1.4,0.5,11.4,0.67,-0.02,0.02,0.74
1697352416.18,0.01,0.26,1.08,1.2,0.8,12.4,0.67,-0.02,0.02,0.74
1697352416.19,-0.18,0.26,1.59,1.7,1.1,12.8,0.67,-0.02,0.02,0.74
1697352416.2,0.01,0.25,0.9,1.6,0.8,13.1,0.67,-0.02,0.02,0.74
1697352416.21,0.01,0.25,0.9,1.6,0.8,13.1,0.67,-0.02,0.02,0.74
1697352416.22,0.01,0.25,0.9,1.6,0.8,13.1,0.67,-0.02,0.02,0.74
1697352416.23,0.01,0.25,0.9,1.6,0.8,13.1,0.67,-0.02,0.02,0.74
1697352416.24,0.01,0.25,0.9,1.6,0.8,13.1,0.67,-0.02,0.02,0.74
1697352416.25,0.01,0.25,0.9,1.6,0.8,13.1,0.67,-0.02,0.02,0.74
1697352416.26,0.01,0.25,0.9,1.6,0.8,13.1,0.67,-0.02,0.02,0.74
1697352416.27,0.01,0.25,0.9,1.6,0.8,13.1,0.67,-0.02,0.02,0.74
1697352416.28,0.01,0.25,0.9,1.6,0.8,13.1,0.67,-0.02,0.02,0.74
1697352416.29,0.01,0.25,0.9,1.6,0.8,13.1,0.67,-0.02,0.02,0.74
1697352416.3,0.01,0.25,0.9,1.6,0.8,13.1,0.67,-0.02,0.02,0.74
1697352416.31,0.01,0.25,0.9,1.6,0.8,13.1,0.67,-0.02,0.02,0.74
1697352416.32,0.01,0.25,0.9,1.6,0.8,13.1,0.67,-0.02,0.02,0.74
1697352416.33,0.01,0.25,0.9,1.6,0.8,13.1,0.67,-0.02,0.02,0.74
1697352416.34,0.01,0.83,0.97,1,-0.9,38,0.65,-0.02,0.03,0.76
1697352416.35,0.05,0.82,1.12,1.9,-0.9,39.5,0.65,-0.02,0.03,0.76
1697352416.36,0.11,0.88,1.02,3.5,-0.6,40.6,0.64,-0.02,0.03,0.76
1697352416.37,-0.09,0.83,1.1,3.6,-0.9,41.3,0.64,-0.02,0.03,0.77
1697352416.38,-0.16,0.74,1.2,3.2,-0.8,41.4,0.64,-0.02,0.03,0.77
1697352416.39,-0.19,0.68,1.23,0.5,-1,42,0.64,-0.02,0.03,0.77
1697352416.4,0.05,0.93,0.78,-0.4,-1,42.2,0.64,-0.02,0.03,0.77
1697352416.41,0.05,0.93,0.78,-0.4,-1,42.2,0.63,-0.02,0.03,0.77
1697352416.42,0,0.81,1.05,0.6,-0.9,41.4,0.63,-0.02,0.03,0.78
1697352416.43,0.1,0.74,0.9,0.6,-0.9,41.4,0.63,-0.02,0.03,0.78
1697352416.44,0.1,0.74,0.9,0.3,-1,40.2,0.62,-0.02,0.03,0.78
1697352416.45,0.13,0.78,0.97,-0.6,-1.4,38.9,0.62,-0.02,0.03,0.78
1697352416.46,0.13,0.78,0.97,-0.6,-1.4,38.9,0.62,-0.02,0.03,0.78
1697352416.47,0.13,0.78,0.97,-0.6,-1.4,38.9,0.62,-0.02,0.03,0.78
1697352416.48,0.2,0.71,1.09,-0.3,-1.8,37.6,0.62,-0.02,0.03,0.78
1697352416.49,0.02,0.79,1.2,-1.2,-0.7,35,0.61,-0.02,0.03,0.79
1697352416.5,0.14,0.69,0.96,-1,-0.9,35.4,0.61,-0.02,0.03,0.79
1697352416.51,-0.02,0.69,1.07,-0.1,-0.9,35.6,0.61,-0.02,0.03,0.79
1697352416.52,0.18,0.6,0.75,-0.2,-0.6,36.3,0.6,-0.02,0.03,0.8
1697352416.53,-0.1,0.56,1.41,-0.9,-0.1,37,0.6,-0.02,0.03,0.8
1697352416.54,-0.14,0.59,1.2,-1.6,-0.2,37.1,0.6,-0.02,0.03,0.8
1697352416.55,0.18,0.63,0.61,-1.1,-0.2,36.8,0.6,-0.02,0.03,0.8
1697352416.56,0.08,0.62,0.99,0.3,0,36.5,0.59,-0.02,0.03,0.8
1697352416.57,0.02,0.55,0.98,1.1,0.2,36.3,0.59,-0.02,0.03,0.81
1697352416.58,0.02,0.55,0.98,1.1,0.2,36.3,0.59,-0.02,0.03,0.81
1697352416.59,0.02,0.55,0.98,1.1,0.2,36.3,0.59,-0.02,0.03,0.81
1697352416.6,0.02,0.55,0.98,1.1,0.2,36.3,0.59,-0.02,0.03,0.81
1697352416.61,0.02,0.55,0.98,1.1,0.2,36.3,0.59,-0.02,0.03,0.81
1697352416.62,0.02,0.55,0.98,1.1,0.2,36.3,0.59,-0.02,0.03,0.81
1697352416.63,0.02,0.55,0.98,1.1,0.2,36.3,0.59,-0.02,0.03,0.81
1697352416.64,0.02,0.55,0.98,1.1,0.2,36.3,0.59,-0.02,0.03,0.81
1697352416.65,0.02,0.55,0.98,1.1,0.2,36.3,0.59,-0.02,0.03,0.81
1697352416.66,0.02,0.55,0.98,1.1,0.2,36.3,0.59,-0.02,0.03,0.81
1697352416.67,0.02,0.55,0.98,1.1,0.2,36.3,0.59,-0.02,0.03,0.81
1697352416.68,0.02,0.55,0.98,1.1,0.2,36.3,0.59,-0.02,0.03,0.81
1697352416.69,0.02,0.55,0.98,1.1,0.2,36.3,0.59,-0.02,0.03,0.81
1697352416.7,0.02,0.55,0.98,1.1,0.2,36.3,0.59,-0.02,0.03,0.81
1697352416.71,0.02,0.55,0.98,1.1,0.2,36.3,0.59,-0.02,0.03,0.81
1697352416.72,0.02,0.55,0.98,1.1,0.2,36.3,0.59,-0.02,0.03,0.81
1697352416.73,0.02,0.55,0.98,1.1,0.2,36.3,0.59,-0.02,0.03,0.81
1697352416.74,0.02,0.55,0.98,1.1,0.2,36.3,0.59,-0.02,0.03,0.81
1697352416.75,0.02,0.55,0.98,1.1,0.2,36.3,0.59,-0.02,0.03,0.81
1697352416.76,0.02,0.55,0.98,1.1,0.2,36.3,0.59,-0.02,0.03,0.81
1697352416.77,0.02,0.55,0.98,1.1,0.2,36.3,0.59,-0.02,0.03,0.81
1697352416.78,0.02,0.55,0.98,1.1,0.2,36.3,0.59,-0.02,0.03,0.81
1697352416.79,0.02,0.55,0.98,1.1,0.2,36.3,0.59,-0.02,0.03,0.81
1697352416.8,0.02,0.55,0.98,1.1,0.2,36.3,0.59,-0.02,0.03,0.81
1697352416.81,0.02,0.55,0.98,1.1,0.2,36.3,0.59,-0.02,0.03,0.81
1697352416.82,0.02,0.55,0.98,1.1,0.2,36.3,0.59,-0.02,0.03,0.81
1697352416.83,0.02,0.55,0.98,1.1,0.2,36.3,0.59,-0.02,0.03,0.81
1697352416.84,0.02,0.55,0.98,1.1,0.2,36.3,0.59,-0.02,0.03,0.81
1697352416.85,0.02,0.55,0.98,1.1,0.2,36.3,0.59,-0.02,0.03,0.81
1697352416.86,-0.12,0.68,1.09,-0.2,4,32.2,0.52,-0.02,0.03,0.85
1697352416.87,-0.14,0.54,0.93,0.5,4.7,31.1,0.52,-0.02,0.03,0.86
1697352416.88,-0.03,0.45,0.8,-1.2,4.5,30.4,0.52,-0.02,0.03,0.86
1697352416.89,-0.07,0.52,1.02,-2.4,4.6,29.6,0.51,-0.02,0.03,0.86
1697352416.9,0.1,0.62,0.84,-1.9,4.8,29.4,0.51,-0.02,0.03,0.86
1697352416.91,0.07,0.6,0.88,-1.9,4.8,29.4,0.51,-0.02,0.03,0.86
1697352416.92,-0.11,0.65,1.12,0.2,4.1,30.5,0.5,-0.02,0.03,0.86
1697352416.93,-0.05,0.58,0.85,0,3.7,31.4,0.5,-0.02,0.03,0.86
1697352416.94,0.11,0.57,0.95,0.4,2.9,32.1,0.5,-0.02,0.03,0.87
1697352416.95,0.01,0.47,1.11,-0.2,2.1,32.4,0.5,-0.02,0.03,0.87
1697352416.96,-0.06,0.54,1.03,-0.6,1.3,32.2,0.49,-0.02,0.03,0.87
1697352416.97,0.05,0.55,0.87,-1.6,0.8,32.1,0.49,-0.02,0.03,0.87
1697352416.98,0,0.64,0.98,-1.6,0.8,32.1,0.49,-0.02,0.03,0.87
1697352416.99,-0.09,0.64,1.12,-0.1,0,31,0.49,-0.02,0.03,0.87
1697352417,0.05,0.56,0.86,1.1,0.3,30.2,0.48,-0.02,0.03,0.87
1697352417.01,0.09,0.62,0.79,1.3,0.3,30,0.48,-0.02,0.03,0.87
1697352417.02,-0.04,0.54,0.89,0.9,0.9,29.6,0.48,-0.02,0.03,0.88
1697352417.03,0.07,0.54,0.76,0.9,0.9,29.6,0.48,-0.02,0.03,0.88
1697352417.04,0.07,0.54,0.76,0.6,1.1,29.4,0.48,-0.02,0.03,0.88
1697352417.05,-0.11,0.73,1.1,-0.3,2.2,29,0.47,-0.02,0.03,0.88
1697352417.06,-0.11,0.73,1.1,0.8,2.3,29.4,0.47,-0.02,0.03,0.88
1697352417.07,0.01,0.67,0.82,2.9,2.4,30.1,0.47,-0.02,0.03,0.88
1697352417.08,0.03,0.56,1.02,2.9,2,30.4,0.47,-0.02,0.03,0.88
1697352417.09,-0.08,0.53,1.33,1.8,1.7,30.8,0.46,-0.02,0.03,0.88
1697352417.1,-0.08,0.49,1,0,1.5,31.1,0.46,-0.02,0.03,0.89
1697352417.11,0.1,0.45,1.05,-0.2,1.1,30.7,0.46,-0.02,0.03,0.89
1697352417.12,0.18,0.65,0.76,1.2,0.3,30.4,0.46,-0.02,0.03,0.89
1697352417.13,0.14,0.6,1.05,1.7,-0.6,30.3,0.46,-0.02,0.03,0.89
1697352417.14,0.05,0.59,1.1,2.8,-1.3,29.7,0.45,-0.02,0.03,0.89
1697352417.15,0.17,0.64,0.87,3.3,-1.5,29.4,0.45,-0.02,0.03,0.89
1697352417.16,-0.03,0.68,0.89,4.7,-1.9,29.5,0.45,-0.02,0.04,0.89
1697352417.17,-0.21,0.57,1.34,4.5,-2.8,29.8,0.45,-0.02,0.04,0.89
1697352417.18,0.14,0.64,1.02,2.3,-3.6,30.5,0.44,-0.02,0.04,0.9
1697352417.19,-0.02,0.42,0.79,-0.1,-3.5,30.7,0.44,-0.02,0.04,0.9
1697352417.2,-0.16,0.66,1.34,-1.7,-2.8,31.5,0.44,-0.02,0.04,0.9
1697352417.21,-0.04,0.93,1.3,2,-2.1,33.3,0.43,-0.02,0.04,0.9
1697352417.22,0.04,0.91,1.04,5.6,-1.4,34.5,0.43,-0.02,0.04,0.9
1697352417.23,-0.03,0.73,1.15,7,-1.2,35.5,0.43,-0.02,0.04,0.9
1697352417.24,-0.03,0.65,1.17,6,-1.4,36.8,0.43,-0.02,0.04,0.9
1697352417.25,-0.03,0.65,1.17,6,-1.4,36.8,0.43,-0.02,0.04,0.9
1697352417.26,-0.06,0.67,1.19,3.7,-2.2,38.3,0.42,-0.02,0.04,0.9
1697352417.27,-0.06,0.67,1.19,3.7,-2.2,38.3,0.42,-0.02,0.04,0.9
1697352417.28,-0.06,0.67,1.19,3.7,-2.2,38.3,0.42,-0.02,0.04,0.9
1697352417.29,-0.06,0.67,1.19,3.7,-2.2,38.3,0.42,-0.02,0.04,0.9
1697352417.3,-0.06,0.67,1.19,3.7,-2.2,38.3,0.42,-0.02,0.04,0.9
1697352417.31,-0.06,0.67,1.19,3.7,-2.2,38.3,0.42,-0.02,0.04,0.9
1697352417.32,-0.06,0.67,1.19,3.7,-2.2,38.3,0.42,-0.02,0.04,0.9
1697352417.33,-0.06,0.67,1.19,3.7,-2.2,38.3,0.42,-0.02,0.04,0.9
1697352417.34,-0.06,0.67,1.19,3.7,-2.2,38.3,0.42,-0.02,0.04,0.9
1697352417.35,-0.06,0.67,1.19,3.7,-2.2,38.3,0.42,-0.02,0.04,0.9
1697352417.36,-0.06,0.67,1.19,3.7,-2.2,38.3,0.42,-0.02,0.04,0.9
1697352417.37,-0.06,0.67,1.19,3.7,-2.2,38.3,0.42,-0.02,0.04,0.9
1697352417.38,-0.06,0.67,1.19,3.7,-2.2,38.3,0.42,-0.02,0.04,0.9
1697352417.39,0.04,0.7,0.99,-4.5,-0.8,38.7,0.38,-0.01,0.04,0.92
1697352417.4,0.04,1.03,0.89,-6.6,-1.3,38.7,0.38,-0.01,0.04,0.93
1697352417.41,0.04,1.03,0.89,-4.2,-0.7,39.5,0.37,-0.01,0.04,0.93
1697352417.42,-0.18,0.96,1.14,6,1.7,40.6,0.37,-0.01,0.04,0.93
1697352417.43,-0.18,0.96,1.14,6,1.7,40.6,0.37,-0.01,0.04,0.93
1697352417.44,-0.21,0.52,1.38,5.3,2.2,41,0.36,-0.01,0.04,0.93
1697352417.45,-0.03,0.6,0.91,0.2,2.5,41.4,0.36,-0.01,0.04,0.93
1697352417.46,-0.03,0.6,0.91,-4,3.2,41.6,0.36,-0.01,0.04,0.93
