time,accel_x,accel_y,accel_z,gyro_x,gyro_y,gyro_z,quat_w,quat_x,quat_y,quat_z
1697352244.65,0.21,1.1,0.51,-6.2,0.8,97,0.9,0.01,-0.01,0.43
1697352244.66,0.17,1.14,1.3,-6.2,-1.1,99.8,0.9,0.01,-0.01,0.44
1697352244.67,0.19,1.01,1.15,-6.2,-1.1,99.8,0.89,0.01,-0.01,0.45
1697352244.68,0.17,1.07,1.1,-3.6,-4.8,104.5,0.89,0.01,-0.01,0.46
1697352244.69,0.06,1.05,1.2,-1.5,-4.2,104.6,0.89,0.01,-0.01,0.46
1697352244.7,0.04,1.06,0.62,0.7,-3.3,102.6,0.88,0.01,-0.01,0.47
1697352244.71,-0.34,1.25,1.22,2.8,-0.9,98.9,0.88,0.01,-0.01,0.48
1697352244.72,-0.22,0.92,1.03,2.8,-0.9,98.9,0.87,0.01,-0.01,0.49
1697352244.73,-0.3,0.97,1.32,2.7,3.3,91,0.87,0.01,-0.01,0.5
1697352244.74,-0.11,0.88,0.81,2.7,3.3,91,0.86,0.01,-0.01,0.5
1697352244.75,-0.24,1.07,0.77,0.5,5.5,87.9,0.86,0.01,-0.01,0.51
1697352244.76,-0.24,1.07,0.77,-0.6,7.5,85.3,0.86,0.01,-0.01,0.52
1697352244.77,-0.32,1.04,1.14,-0.2,8.9,83.6,0.85,0.01,-0.01,0.52
1697352244.78,-0.35,1.18,1.1,0.7,9.1,84.2,0.85,0.01,-0.01,0.53
1697352244.79,-0.14,1.21,0.95,0.7,9.1,84.2,0.84,0.01,-0.01,0.54
1697352244.8,-0.16,1.36,0.61,1.2,8.7,86,0.84,0.01,-0,0.54
1697352244.81,-0.23,1.12,1.57,1.6,6.1,91.5,0.84,0.01,-0,0.55
1697352244.82,-0.23,1.12,1.57,1.6,6.1,91.5,0.84,0.01,-0,0.55
1697352244.83,0.1,1.16,0.85,1.9,4.3,93.8,0.83,0.01,-0,0.56
1697352244.84,0.1,1.16,0.85,-0.4,2.4,97.4,0.83,0.01,-0,0.56
1697352244.85,0.08,1.07,1.21,-1.9,0.6,100.4,0.82,0.01,-0,0.57
1697352244.86,0.12,1.22,1.04,-4.7,-1.3,104.2,0.82,0,-0,0.58
1697352244.87,0.24,1.05,1.16,-5.1,-2.2,106.9,0.81,0,-0,0.59
1697352244.88,0.18,1.27,0.86,-3.9,-3,106.9,0.81,0,-0,0.59
1697352244.89,-0.02,1.13,1.17,-0.6,-2.3,106.2,0.8,0,-0,0.6
1697352244.9,-0.05,1.06,0.7,3.6,-1.7,103.9,0.79,0,-0,0.61
1697352244.91,-0.18,1.11,0.94,6.5,0.5,100.1,0.79,0,-0,0.61
1697352244.92,-0.34,0.95,1.18,7,2.6,96.4,0.78,0,-0,0.62
1697352244.93,-0.22,1,0.54,3.8,6,91.5,0.78,0,-0,0.63
1697352244.94,-0.35,1.03,1.28,3.8,6,91.5,0.77,0,-0,0.64
1697352244.95,-0.23,1.15,0.93,0.9,8,88.7,0.76,0,-0,0.65
1697352244.96,-0.16,1.2,0.56,-1.1,9.3,87.2,0.76,0,-0,0.65
1697352244.97,-0.16,1.2,0.56,-1.1,9.3,87.2,0.76,0,-0,0.65
1697352244.98,-0.16,1.2,0.56,-1.1,9.3,87.2,0.76,0,-0,0.65
1697352244.99,-0.16,1.2,0.56,-1.1,9.3,87.2,0.76,0,-0,0.65
1697352245,-0.16,1.2,0.56,-1.1,9.3,87.2,0.76,0,-0,0.65
1697352245.01,-0.16,1.2,0.56,-1.1,9.3,87.2,0.76,0,-0,0.65
1697352245.02,-0.16,1.2,0.56,-1.1,9.3,87.2,0.76,0,-0,0.65
1697352245.03,-0.16,1.2,0.56,-1.1,9.3,87.2,0.76,0,-0,0.65
1697352245.04,-0.16,1.2,0.56,-1.1,9.3,87.2,0.76,0,-0,0.65
1697352245.05,-0.16,1.2,0.56,-1.1,9.3,87.2,0.76,0,-0,0.65
1697352245.06,-0.16,1.2,0.56,-1.1,9.3,87.2,0.76,0,-0,0.65
1697352245.07,-0.16,1.2,0.56,-1.1,9.3,87.2,0.76,0,-0,0.65
1697352245.08,-0.16,1.2,0.56,-1.1,9.3,87.2,0.76,0,-0,0.65
1697352245.09,-0.16,1.2,0.56,-1.1,9.3,87.2,0.76,0,-0,0.65
1697352245.1,-0.16,1.2,0.56,-1.1,9.3,87.2,0.76,0,-0,0.65
1697352245.11,-0.16,1.2,0.56,-1.1,9.3,87.2,0.76,0,-0,0.65
1697352245.12,-0.16,1.2,0.56,-1.1,9.3,87.2,0.76,0,-0,0.65
1697352245.13,-0.16,1.2,0.56,-1.1,9.3,87.2,0.76,0,-0,0.65
1697352245.14,-0.16,1.2,0.56,-1.1,9.3,87.2,0.76,0,-0,0.65
1697352245.15,-0.16,1.2,0.56,-1.1,9.3,87.2,0.76,0,-0,0.65
1697352245.16,0.19,0.56,1.14,-9.9,6.6,56,0.65,0,-0,0.76
1697352245.17,0.19,0.56,1.14,-10.4,5.6,52.6,0.65,-0,-0,0.76
1697352245.18,0.27,0.49,0.94,-9.4,4.3,49.7,0.65,-0,-0,0.76
1697352245.19,0.41,0.31,1.06,-7.5,1.9,45,0.64,-0,-0,0.77
1697352245.2,0.27,0.28,1.33,-6.2,0,42.1,0.64,-0,-0,0.77
1697352245.21,0.16,-0.06,1.12,-6.2,-1.5,39.5,0.64,-0,-0,0.77
1697352245.22,0.36,-0.02,0.61,-6.4,-2,36.9,0.63,-0,-0,0.77
1697352245.23,0.11,-0.14,1.16,-8.1,-3.1,35.5,0.63,-0,-0,0.78
1697352245.24,0.2,-0.08,1.42,-9.5,-3.5,33.9,0.63,-0,-0.01,0.78
1697352245.25,0.18,0,0.88,-7.2,-3.7,32.2,0.63,-0,-0.01,0.78
1697352245.26,0.08,0.18,1.14,-4.2,-3.6,31.3,0.62,-0,-0.01,0.78
1697352245.27,0.28,0.16,1.05,-0.7,-3.8,30.3,0.62,-0,-0.01,0.78
1697352245.28,0.31,0.08,1.21,0.3,-3.8,28.7,0.62,-0,-0.01,0.78
1697352245.29,0.26,-0.04,1,-1,-3.5,28.1,0.62,-0,-0.01,0.79
1697352245.3,0.14,0.09,1.11,-1.4,-3.3,27.8,0.62,-0,-0.01,0.79
1697352245.31,0.22,0.17,0.85,-1,-2.8,26.4,0.61,-0,-0.01,0.79
1697352245.32,0.15,0.15,0.98,0.9,-2.1,25.4,0.61,-0,-0.01,0.79
1697352245.33,0.17,-0.18,0.68,1.2,-1.1,24.1,0.61,-0,-0.01,0.79
1697352245.34,0.17,-0.01,1.08,-0.3,-0.6,21.8,0.61,-0,-0.01,0.79
1697352245.35,0.06,-0.18,1.17,-1.7,0.4,19.5,0.61,-0,-0.01,0.79
1697352245.36,0.09,-0.23,1.45,-2.1,0.6,16.5,0.61,-0,-0.01,0.79
1697352245.37,0.32,-0.29,0.93,-2.4,0.7,12,0.61,-0,-0.01,0.79
1697352245.38,0.21,-0.14,1.1,-4.9,0.9,7.2,0.61,-0,-0.01,0.8
1697352245.39,0.28,0,1.31,-4.9,0.9,7.2,0.61,-0,-0.01,0.8
1697352245.4,0.27,-0.02,0.85,-2.8,0.8,1.4,0.61,-0,-0.01,0.8
1697352245.41,0.17,-0.19,1.1,-0.8,0.7,-0.3,0.61,-0,-0.01,0.8
1697352245.42,0.13,-0.28,1.25,-3,0.9,-2.3,0.61,-0,-0.01,0.8
1697352245.43,0.1,-0.32,0.91,-5.7,1.5,-3.1,0.61,-0,-0.01,0.8
1697352245.44,0.2,-0.4,0.69,-7.1,2.1,-4.5,0.61,-0.01,-0.01,0.8
1697352245.45,0.2,-0.4,0.69,-7.1,2.1,-4.5,0.61,-0.01,-0.01,0.8
1697352245.46,0.24,-0.42,1.24,-3.9,2.2,-8.2,0.61,-0.01,-0.01,0.79
1697352245.47,0.24,-0.42,1.24,-3.9,2.2,-8.2,0.61,-0.01,-0.01,0.79
1697352245.48,0.22,-0.67,1.51,-2.5,0.9,-11,0.61,-0.01,-0.01,0.79
1697352245.49,0.22,-0.67,1.51,-2.5,0.9,-11,0.61,-0.01,-0.01,0.79
1697352245.5,0.21,-0.67,0.97,-2.9,-0.1,-13.4,0.61,-0.01,-0.01,0.79
1697352245.51,0.21,-0.67,0.97,-4.9,-2.1,-17.3,0.61,-0.01,-0.01,0.79
1697352245.52,0.1,-0.53,1.15,-4.2,-2.8,-19.2,0.61,-0.01,-0.01,0.79
1697352245.53,0.2,-0.62,1.02,-2.7,-2.7,-21.1,0.61,-0.01,-0.01,0.79
1697352245.54,0.2,-0.62,1.02,-2.7,-2.7,-21.1,0.61,-0.01,-0.01,0.79
1697352245.55,0.2,-0.62,1.02,-2.7,-2.7,-21.1,0.61,-0.01,-0.01,0.79
1697352245.56,0.2,-0.62,1.02,-2.7,-2.7,-21.1,0.61,-0.01,-0.01,0.79
1697352245.57,0.2,-0.62,1.02,-2.7,-2.7,-21.1,0.61,-0.01,-0.01,0.79
1697352245.58,0.2,-0.62,1.02,-2.7,-2.7,-21.1,0.61,-0.01,-0.01,0.79
1697352245.59,0.2,-0.62,1.02,-2.7,-2.7,-21.1,0.61,-0.01,-0.01,0.79
1697352245.6,0.2,-0.62,1.02,-2.7,-2.7,-21.1,0.61,-0.01,-0.01,0.79
1697352245.61,0.2,-0.62,1.02,-2.7,-2.7,-21.1,0.61,-0.01,-0.01,0.79
1697352245.62,0.2,-0.62,1.02,-2.7,-2.7,-21.1,0.61,-0.01,-0.01,0.79
1697352245.63,0.2,-0.62,1.02,-2.7,-2.7,-21.1,0.61,-0.01,-0.01,0.79
1697352245.64,0.2,-0.62,1.02,-2.7,-2.7,-21.1,0.61,-0.01,-0.01,0.79
1697352245.65,0.2,-0.62,1.02,-2.7,-2.7,-21.1,0.61,-0.01,-0.01,0.79
1697352245.66,0.2,-0.62,1.02,-2.7,-2.7,-21.1,0.61,-0.01,-0.01,0.79
1697352245.67,0.2,-0.62,1.02,-2.7,-2.7,-21.1,0.61,-0.01,-0.01,0.79
1697352245.68,0.2,-0.62,1.02,-2.7,-2.7,-21.1,0.61,-0.01,-0.01,0.79
1697352245.69,-0.06,-0.37,0.8,0.2,0.9,-32.7,0.61,-0.01,-0.01,0.79
1697352245.7,0.12,-0.58,1.28,-0.3,2.5,-34,0.65,-0.01,-0.01,0.76
1697352245.71,0.12,-0.61,0.2,-1.1,2.4,-33.7,0.65,-0.01,-0.01,0.76
1697352245.72,0.1,-0.45,1.61,-1,3.1,-35.2,0.65,-0.01,-0.01,0.76
1697352245.73,0.1,-0.45,1.61,-1,3.1,-35.2,0.65,-0.01,-0.01,0.76
1697352245.74,0.08,-0.66,0.66,-0.3,1.5,-35.8,0.66,-0.01,-0.01,0.75
1697352245.75,0.24,-0.66,1.15,-0.4,0.8,-37.2,0.66,-0.01,-0.01,0.75
1697352245.76,-0.07,-0.5,1.13,-2.1,-0.3,-37.9,0.66,-0.01,-0.01,0.75
1697352245.77,-0.07,-0.5,1.13,-2.1,-0.3,-37.9,0.66,-0.01,-0.01,0.75
1697352245.78,0.05,-0.5,1.04,-3.2,-1.4,-38.3,0.67,-0.01,-0.01,0.74
1697352245.79,0.05,-0.5,1.04,-2.8,-1.6,-38.6,0.67,-0.01,-0.01,0.74
1697352245.8,-0.02,-0.55,0.65,-3.1,-1.8,-38.6,0.67,-0.01,-0.01,0.74
1697352245.81,-0.04,-0.55,0.98,-1.3,-1.8,-38.1,0.67,-0.01,-0.01,0.74
1697352245.82,-0.06,-0.54,1.53,1.2,-1.6,-38.2,0.68,-0.01,-0.01,0.74
1697352245.83,-0.04,-0.84,0.64,1.9,-0.7,-37.6,0.68,-0.01,-0.01,0.73
1697352245.84,-0.01,-0.79,1.18,1.6,0.1,-38.1,0.68,-0.01,-0.01,0.73
1697352245.85,-0.01,-0.69,1.43,-0.6,0.5,-38.8,0.68,-0.01,-0.01,0.73
1697352245.86,-0.09,-0.87,0.83,-2.2,1,-38.9,0.69,-0.01,-0.01,0.73
1697352245.87,-0.09,-0.65,1.24,-3,1.5,-40.1,0.69,-0.01,-0.01,0.72
1697352245.88,0.16,-0.61,1.43,-5.3,1.2,-40.3,0.69,-0.01,-0.01,0.72
1697352245.89,0.05,-0.47,0.8,1.4,-0.2,-41.7,0.7,-0.01,-0.01,0.72
1697352245.9,0.12,-0.58,1.02,1.7,-1,-41.3,0.7,-0.01,-0.01,0.72
1697352245.91,0.05,-0.79,0.83,2.3,-1.6,-41.9,0.7,-0.01,-0.01,0.71
1697352245.92,0.22,-0.72,1.25,0.3,-1.9,-42.3,0.7,-0.01,-0.01,0.71
1697352245.93,0.09,-0.77,0.85,-1.9,-2,-41.7,0.71,-0.01,-0.02,0.71
1697352245.94,0.16,-0.61,0.91,-1.8,-1.7,-41.6,0.71,-0.01,-0.02,0.71
1697352245.95,0.22,-0.72,0.96,-2.1,-1.3,-41,0.71,-0.01,-0.02,0.7
1697352245.96,-0.1,-0.63,1.38,-0.2,-0.7,-41,0.71,-0.01,-0.02,0.7
1697352245.97,-0.17,-0.54,1.11,0.9,-0.8,-40.6,0.72,-0.01,-0.02,0.7
1697352245.98,-0.11,-1.06,0.72,1.4,0.7,-42.9,0.72,-0.01,-0.02,0.69
1697352245.99,0.37,-0.81,1.19,-3.4,2,-43,0.72,-0.01,-0.02,0.69
1697352246,0.03,-0.72,1.23,-4,2.8,-44,0.72,-0.01,-0.02,0.69
1697352246.01,-0.04,-0.5,1.25,-1.5,3.7,-43.8,0.72,-0.01,-0.02,0.69
1697352246.02,-0.04,-0.5,1.25,-1.5,3.7,-43.8,0.73,-0.01,-0.02,0.69
1697352246.03,0.12,-1.05,1.22,1.7,3.6,-44.9,0.73,-0.01,-0.02,0.68
1697352246.04,0.12,-1.05,1.22,1.7,3.6,-44.9,0.73,-0.01,-0.02,0.68
1697352246.05,0.27,-0.76,1.07,-4.6,0.4,-45,0.73,-0.01,-0.02,0.68
1697352246.06,0.27,-0.76,1.07,-4.6,0.4,-45,0.74,-0.01,-0.02,0.67
1697352246.07,0.1,-0.53,0.47,-5,-0.9,-45.7,0.74,-0.01,-0.02,0.67
1697352246.08,0.1,-0.53,0.47,-5,-0.9,-45.7,0.74,-0.01,-0.02,0.67
1697352246.09,0.1,-0.53,0.47,-5,-0.9,-45.7,0.74,-0.01,-0.02,0.67
1697352246.1,0.1,-0.53,0.47,-5,-0.9,-45.7,0.74,-0.01,-0.02,0.67
1697352246.11,0.1,-0.53,0.47,-5,-0.9,-45.7,0.74,-0.01,-0.02,0.67
1697352246.12,0.1,-0.53,0.47,-5,-0.9,-45.7,0.74,-0.01,-0.02,0.67
1697352246.13,0.1,-0.53,0.47,-5,-0.9,-45.7,0.74,-0.01,-0.02,0.67
1697352246.14,0.1,-0.53,0.47,-5,-0.9,-45.7,0.74,-0.01,-0.02,0.67
1697352246.15,0.1,-0.53,0.47,-5,-0.9,-45.7,0.74,-0.01,-0.02,0.67
1697352246.16,0.1,-0.53,0.47,-5,-0.9,-45.7,0.74,-0.01,-0.02,0.67
1697352246.17,0.1,-0.53,0.47,-5,-0.9,-45.7,0.74,-0.01,-0.02,0.67
1697352246.18,0.1,-0.53,0.47,-5,-0.9,-45.7,0.74,-0.01,-0.02,0.67
1697352246.19,0.1,-0.53,0.47,-5,-0.9,-45.7,0.74,-0.01,-0.02,0.67
1697352246.2,0.1,-0.53,0.47,-5,-0.9,-45.7,0.74,-0.01,-0.02,0.67
1697352246.21,0.1,-0.53,0.47,-5,-0.9,-45.7,0.74,-0.01,-0.02,0.67
1697352246.22,0.1,-0.53,0.47,-5,-0.9,-45.7,0.74,-0.01,-0.02,0.67
1697352246.23,0.1,-0.53,0.47,-5,-0.9,-45.7,0.74,-0.01,-0.02,0.67
1697352246.24,0.1,-0.53,0.47,-5,-0.9,-45.7,0.74,-0.01,-0.02,0.67
1697352246.25,0.1,-0.53,0.47,-5,-0.9,-45.7,0.74,-0.01,-0.02,0.67
1697352246.26,0.1,-0.53,0.47,-5,-0.9,-45.7,0.74,-0.01,-0.02,0.67
1697352246.27,0.1,-0.53,0.47,-5,-0.9,-45.7,0.74,-0.01,-0.02,0.67
1697352246.28,0.1,-0.53,0.47,-5,-0.9,-45.7,0.74,-0.01,-0.02,0.67
1697352246.29,0.1,-0.53,0.47,-5,-0.9,-45.7,0.74,-0.01,-0.02,0.67
1697352246.3,0.1,-0.53,0.47,-5,-0.9,-45.7,0.74,-0.01,-0.02,0.67
1697352246.31,0.1,-0.53,0.47,-5,-0.9,-45.7,0.74,-0.01,-0.02,0.67
1697352246.32,0.1,-0.53,0.47,-5,-0.9,-45.7,0.74,-0.01,-0.02,0.67
1697352246.33,-0.25,-0.73,1.3,2.5,4.4,-42.4,0.8,-0.01,-0.01,0.6
1697352246.34,-0.01,-0.62,0.68,3.5,4.9,-42.8,0.8,-0.01,-0.01,0.6
1697352246.35,-0.04,-0.95,1.3,1.9,5,-43,0.81,-0.01,-0.01,0.59
1697352246.36,0.22,-0.79,1.21,-0.7,4,-43.5,0.81,-0.01,-0.01,0.59
1697352246.37,0.11,-0.63,1.22,-1.8,1.9,-43.2,0.81,-0.01,-0.01,0.59
1697352246.38,0.32,-0.65,1.01,-2.2,-0.5,-42.4,0.81,-0.01,-0.01,0.58
1697352246.39,-0.21,-0.56,0.55,-0.3,-1.8,-42,0.81,-0.01,-0.01,0.58
1697352246.4,0.22,-0.35,0.2,2.3,-2.5,-42.4,0.82,-0.01,-0.01,0.58
1697352246.41,-0.06,-0.87,1.24,2.1,-2.6,-41.4,0.82,-0.01,-0.01,0.57
1697352246.42,-0.09,-0.99,1.29,-0.6,-3,-42.6,0.82,-0.01,-0.01,0.57
1697352246.43,-0.11,-0.7,1.33,-0.6,-3,-42.6,0.82,-0.01,-0.01,0.57
1697352246.44,-0.11,-0.7,1.33,-6.4,-3,-43.1,0.82,-0.01,-0.01,0.57
1697352246.45,0.03,-0.51,1.22,-1.7,-3.1,-43.6,0.83,-0.01,-0.01,0.56
1697352246.46,0.03,-0.51,1.22,-1.7,-3.1,-43.6,0.83,-0.01,-0.01,0.56
1697352246.47,-0.28,-0.51,1.24,3.9,-2.6,-43.2,0.83,-0.01,-0.01,0.56
1697352246.48,-0.07,-0.72,1.17,6.4,-1.7,-42.6,0.83,-0.01,-0.02,0.55
1697352246.49,0.01,-0.96,0.76,4.6,-1.1,-42,0.84,-0.01,-0.01,0.55
1697352246.5,-0.1,-0.95,1.4,-0.3,0.3,-41.6,0.84,-0.01,-0.01,0.55
1697352246.51,-0.01,-0.63,0.9,-4.4,1.4,-41.2,0.84,-0.01,-0.01,0.54
1697352246.52,0.1,-0.52,1.21,-4.2,2,-41.2,0.84,-0.01,-0.01,0.54
1697352246.53,-0.18,-0.58,0.98,-4.2,2,-41.2,0.84,-0.01,-0.01,0.54
1697352246.54,-0.18,-0.58,0.98,-4.2,2,-41.2,0.84,-0.01,-0.01,0.54
1697352246.55,-0.18,-0.58,0.98,-4.2,2,-41.2,0.84,-0.01,-0.01,0.54
1697352246.56,-0.18,-0.58,0.98,-4.2,2,-41.2,0.84,-0.01,-0.01,0.54
1697352246.57,-0.18,-0.58,0.98,-4.2,2,-41.2,0.84,-0.01,-0.01,0.54
1697352246.58,-0.18,-0.58,0.98,-4.2,2,-41.2,0.84,-0.01,-0.01,0.54
1697352246.59,-0.18,-0.58,0.98,-4.2,2,-41.2,0.84,-0.01,-0.01,0.54
1697352246.6,-0.18,-0.58,0.98,-4.2,2,-41.2,0.84,-0.01,-0.01,0.54
1697352246.61,-0.18,-0.58,0.98,-4.2,2,-41.2,0.84,-0.01,-0.01,0.54
1697352246.62,-0.18,-0.58,0.98,-4.2,2,-41.2,0.84,-0.01,-0.01,0.54
1697352246.63,-0.18,-0.58,0.98,-4.2,2,-41.2,0.84,-0.01,-0.01,0.54
1697352246.64,-0.18,-0.58,0.98,-4.2,2,-41.2,0.84,-0.01,-0.01,0.54
1697352246.65,-0.18,-0.58,0.98,-4.2,2,-41.2,0.84,-0.01,-0.01,0.54
1697352246.66,-0.12,-0.6,1.04,-3.6,1.5,-45.3,0.87,-0.01,-0.01,0.49
1697352246.67,-0.12,-0.6,1.04,-3.6,1.5,-45.3,0.87,-0.01,-0.01,0.49
1697352246.68,0.01,-0.74,0.81,-0.1,3.8,-44.2,0.87,-0.01,-0.01,0.49
1697352246.69,0.01,-0.74,0.81,-0.1,3.8,-44.2,0.87,-0.01,-0.01,0.48
1697352246.7,0.07,-0.66,0.83,0.6,4.5,-45,0.88,-0.01,-0.01,0.48
1697352246.71,0.23,-0.85,0.79,0.6,4.5,-45,0.88,-0.01,-0.01,0.48
1697352246.72,0.18,-0.7,0.84,1.2,3.1,-45.3,0.88,-0.01,-0.01,0.48
1697352246.73,0.18,-0.7,0.84,1.2,3.1,-45.3,0.88,-0.01,-0.01,0.47
1697352246.74,0.05,-0.86,1.18,2,1.9,-45.2,0.88,-0.01,-0.01,0.47
1697352246.75,0.42,-0.64,0.48,3.7,1.5,-46,0.88,-0.01,-0.01,0.47
1697352246.76,0.25,-0.84,0.64,3.4,0.8,-45.8,0.89,-0.01,-0.01,0.46
1697352246.77,-0.12,-0.75,1.33,4.3,0.1,-46.2,0.89,-0.01,-0.01,0.46
1697352246.78,0.22,-0.72,1.1,5.4,0.5,-46.1,0.89,-0,-0.01,0.45
1697352246.79,0.22,-0.72,1.1,7.6,1.9,-46.1,0.89,-0,-0.01,0.45
1697352246.8,0.15,-0.94,1.65,7.6,1.9,-46.1,0.89,-0,-0.01,0.45
1697352246.81,-0.07,-1.02,1.27,7.7,3.4,-45.4,0.9,-0,-0.01,0.44
1697352246.82,-0.07,-1.02,1.27,4.2,4.7,-45.6,0.9,-0,-0.01,0.44
1697352246.83,-0.17,-0.6,1.3,-0.7,6,-46.1,0.9,-0,-0.01,0.43
1697352246.84,-0.04,-0.92,1.22,-4.5,5.5,-46.3,0.9,-0,-0.01,0.43
1697352246.85,0.07,-0.58,1.02,-4,4.8,-47.3,0.9,-0,-0.01,0.43
1697352246.86,-0.07,-0.69,0.9,-1.8,3.1,-48,0.91,-0,-0.01,0.42
1697352246.87,0.26,-0.75,0.71,0.6,1.2,-48.5,0.91,-0,-0.01,0.42
1697352246.88,-0.09,-0.74,1.27,2.4,-0.1,-49.8,0.91,-0,-0.01,0.41
1697352246.89,0.09,-0.78,1.1,2.1,-1.2,-49.9,0.91,-0,-0.01,0.41
1697352246.9,0.28,-0.62,0.7,2,-2.3,-50.4,0.91,-0,-0.01,0.41
1697352246.91,0.15,-0.65,0.96,1,-3.1,-50,0.92,-0,-0.01,0.4
1697352246.92,0.13,-0.59,1.11,1.4,-3.5,-49.3,0.92,-0,-0.01,0.4
1697352246.93,-0.04,-0.8,1.03,0.4,-3.2,-47.8,0.92,-0,-0.01,0.39
1697352246.94,0.02,-0.45,0.88,-0.1,-1.7,-46.2,0.92,-0,-0.01,0.39
1697352246.95,-0.1,-0.71,1.25,-0.4,0.3,-45.6,0.92,-0,-0.01,0.39
1697352246.96,-0.12,-0.72,1.18,0.3,1.8,-45,0.92,-0,-0.01,0.38
1697352246.97,-0.12,-0.72,1.18,2.2,3.6,-43.8,0.92,-0,-0.01,0.38
1697352246.98,0.19,-0.85,1.05,2.9,4.6,-44.1,0.93,-0,-0.01,0.38
1697352246.99,0.06,-0.91,0.87,-0.4,5,-44.1,0.93,-0,-0.01,0.37
1697352247,0.16,-0.66,0.93,-3.5,4.5,-44.4,0.93,-0,-0.01,0.37
1697352247.01,0,-0.57,0.88,-4.8,3.3,-45,0.93,-0,-0.01,0.36
1697352247.02,0.06,-0.48,0.95,-2.5,1.3,-45,0.93,-0,-0.01,0.36
1697352247.03,0.06,-0.59,0.82,1.4,0,-45,0.93,-0,-0.01,0.36
1697352247.04,-0.01,-0.68,1.09,3.9,-1.1,-44.7,0.94,-0,-0.01,0.35
1697352247.05,0.04,-0.72,0.77,3.9,-1.1,-44.7,0.94,-0,-0.01,0.35
1697352247.06,0.04,-0.72,0.77,3.9,-1.1,-44.7,0.94,-0,-0.01,0.35
1697352247.07,0.04,-0.72,0.77,3.9,-1.1,-44.7,0.94,-0,-0.01,0.35
1697352247.08,0.04,-0.72,0.77,3.9,-1.1,-44.7,0.94,-0,-0.01,0.35
1697352247.09,0.04,-0.72,0.77,3.9,-1.1,-44.7,0.94,-0,-0.01,0.35
1697352247.1,0.04,-0.72,0.77,3.9,-1.1,-44.7,0.94,-0,-0.01,0.35
1697352247.11,0.04,-0.72,0.77,3.9,-1.1,-44.7,0.94,-0,-0.01,0.35
1697352247.12,0.04,-0.72,0.77,3.9,-1.1,-44.7,0.94,-0,-0.01,0.35
1697352247.13,0.04,-0.72,0.77,3.9,-1.1,-44.7,0.94,-0,-0.01,0.35
1697352247.14,0.04,-0.72,0.77,3.9,-1.1,-44.7,0.94,-0,-0.01,0.35
1697352247.15,0.04,-0.72,0.77,3.9,-1.1,-44.7,0.94,-0,-0.01,0.35
1697352247.16,0.04,-0.72,0.77,3.9,-1.1,-44.7,0.94,-0,-0.01,0.35
1697352247.17,0.04,-0.72,0.77,3.9,-1.1,-44.7,0.94,-0,-0.01,0.35
1697352247.18,0.1,-0.56,1.29,3.8,2,-37.3,0.95,-0,-0.01,0.31
1697352247.19,0.01,-0.79,0.8,2.4,1.6,-36.4,0.95,-0,-0.01,0.3
1697352247.2,-0.06,-0.44,0.93,2.7,2.4,-36,0.95,-0,-0.01,0.3
1697352247.21,0.12,-0.36,0.43,3.2,2.6,-34,0.95,-0,-0,0.3
1697352247.22,0.06,-0.46,1.14,4.6,2.7,-33.2,0.96,-0,-0,0.3
1697352247.23,0.04,-0.28,1.15,5.7,2,-31.7,0.96,-0,-0,0.29
1697352247.24,0.21,-0.5,0.99,5.1,1.8,-30,0.96,-0,-0,0.29
1697352247.25,0.09,-0.49,0.95,3.9,1.7,-29,0.96,-0,-0,0.29
1697352247.26,0.1,-0.35,1.08,3.7,1.5,-28.4,0.96,-0,-0,0.29
1697352247.27,0.04,-0.26,1.19,2.2,1.2,-28,0.96,-0,-0,0.28
1697352247.28,0.02,-0.47,0.99,0.3,1.6,-27.4,0.96,-0,-0,0.28
1697352247.29,0.09,-0.28,1.04,-1.4,2.5,-26.9,0.96,-0,-0,0.28
1697352247.3,0.12,-0.23,0.96,-1.4,2.2,-26.4,0.96,-0,-0,0.28
1697352247.31,0.03,-0.35,1.2,-1.5,2.4,-26.3,0.96,-0,-0,0.27
1697352247.32,0.07,-0.27,1.22,-1.5,2.5,-25.9,0.96,-0,-0,0.27
1697352247.33,0.21,-0.29,0.76,-1.5,3,-25.1,0.96,-0,-0,0.27
1697352247.34,-0.04,-0.36,0.94,-0.4,3.3,-25.8,0.96,-0,-0,0.27
1697352247.35,0.12,-0.26,0.74,-0.2,3.7,-26.2,0.96,-0,-0,0.26
1697352247.36,0.14,-0.34,0.87,-1.5,2.8,-26.1,0.97,-0,-0,0.26
1697352247.37,0.15,-0.13,1.15,-2.7,2,-26.6,0.97,-0,-0,0.26
1697352247.38,0.08,-0.53,1.07,-1.3,0.8,-26.8,0.97,-0,-0,0.26
1697352247.39,0.08,-0.53,1.07,-1.3,0.8,-26.8,0.97,-0,-0,0.26
1697352247.4,0.12,-0.55,0.72,4.4,-1.6,-24.8,0.97,-0,-0,0.25
1697352247.41,0.1,-0.64,1.23,4,-2.2,-24.6,0.97,-0,-0,0.25
1697352247.42,0.01,-0.46,0.92,1.8,-2.9,-23.8,0.97,-0,-0,0.25
1697352247.43,0.16,-0.46,1.25,0.5,-3.3,-24.2,0.97,-0,-0,0.25
1697352247.44,0.16,-0.46,1.25,-1.5,-3.6,-23.7,0.97,-0,-0,0.25
1697352247.45,0.22,-0.28,0.72,-2.3,-3,-23.5,0.97,-0,-0,0.24
1697352247.46,0.22,-0.28,0.72,-0.8,-2.3,-22.8,0.97,-0,-0,0.24
1697352247.47,0.22,-0.28,0.72,-0.8,-2.3,-22.8,0.97,-0,-0,0.24
1697352247.48,-0.09,-0.34,1.31,1,-1.6,-22.5,0.97,-0,-0,0.24
1697352247.49,0.16,-0.32,1.11,1.5,-0.3,-22.4,0.97,-0,-0,0.24
1697352247.5,-0,-0.26,1.13,-0.4,0.8,-22.6,0.97,-0,-0,0.24
1697352247.51,-0,-0.26,1.13,-0.4,0.8,-22.6,0.97,-0,-0,0.23
1697352247.52,-0.05,-0.16,1.3,0.8,1.4,-23.3,0.97,-0,-0,0.23
1697352247.53,-0.04,-0.36,0.8,3,2.2,-23.1,0.97,-0,-0,0.23
1697352247.54,0.14,-0.3,1.5,2.9,2.6,-23.4,0.97,-0,-0,0.23
1697352247.55,0.15,-0.24,0.66,1.1,2.3,-22.1,0.97,-0,-0,0.23
1697352247.56,0.22,-0.36,1.11,1.1,1.1,-21.5,0.97,-0,-0,0.22
1697352247.57,0.09,-0.41,0.92,-1.1,0.8,-20.5,0.98,-0,-0,0.22
1697352247.58,0.09,-0.41,0.92,-1.1,0.8,-20.5,0.98,-0,-0,0.22
1697352247.59,0.09,-0.41,0.92,-1.1,0.8,-20.5,0.98,-0,-0,0.22
1697352247.6,0.09,-0.41,0.92,-1.1,0.8,-20.5,0.98,-0,-0,0.22
1697352247.61,0.09,-0.41,0.92,-1.1,0.8,-20.5,0.98,-0,-0,0.22
1697352247.62,0.09,-0.41,0.92,-1.1,0.8,-20.5,0.98,-0,-0,0.22
1697352247.63,0.09,-0.41,0.92,-1.1,0.8,-20.5,0.98,-0,-0,0.22
1697352247.64,0.09,-0.41,0.92,-1.1,0.8,-20.5,0.98,-0,-0,0.22
1697352247.65,0.09,-0.41,0.92,-1.1,0.8,-20.5,0.98,-0,-0,0.22
1697352247.66,0.09,-0.41,0.92,-1.1,0.8,-20.5,0.98,-0,-0,0.22
1697352247.67,0.09,-0.41,0.92,-1.1,0.8,-20.5,0.98,-0,-0,0.22
1697352247.68,0.09,-0.41,0.92,-1.1,0.8,-20.5,0.98,-0,-0,0.22
1697352247.69,0.09,-0.41,0.92,-1.1,0.8,-20.5,0.98,-0,-0,0.22
1697352247.7,0.09,-0.41,0.92,-1.1,0.8,-20.5,0.98,-0,-0,0.22
1697352247.71,0.13,-0.07,1.26,4.5,-1,-4.5,0.98,0,-0,0.21
1697352247.72,0.09,0.03,0.6,4.5,-1,-4.5,0.98,0,-0,0.21
1697352247.73,0.04,0.04,1.21,2.3,-1.3,-3.6,0.98,0,-0,0.21
1697352247.74,0.04,0.04,1.21,2.3,-1.3,-3.6,0.98,0,-0,0.21
1697352247.75,0.03,0.39,1.04,-1.2,-1.7,-1.2,0.98,0,-0,0.21
1697352247.76,0.09,0.3,1.21,-1.2,-1.7,-1.2,0.98,0,-0,0.21
1697352247.77,0.12,0.24,0.81,1.8,-1.6,1.8,0.98,0,-0,0.21
1697352247.78,-0.02,0.13,1.36,2.9,-0.8,2.8,0.98,0,-0,0.21
1697352247.79,0.18,0.07,0.82,1.2,-0.2,3.2,0.98,0,-0,0.21
1697352247.8,-0.03,0.22,0.9,-0.9,0.5,3.2,0.98,0,-0,0.21
1697352247.81,-0.12,0.26,1.4,-0.5,2.2,3.4,0.98,0,-0,0.21
1697352247.82,0.07,0.28,0.93,-0.3,3.3,4.4,0.98,0,-0,0.21
1697352247.83,-0.1,0.31,1.1,2.2,3.3,5.4,0.98,0,-0,0.21
1697352247.84,-0.1,0.31,1.1,2.2,3.3,5.4,0.98,0,-0,0.21
1697352247.85,0.14,0.22,0.88,3,4.8,7.8,0.98,0,-0,0.21
1697352247.86,0.22,0.26,1,3.8,4,8.7,0.98,0,-0,0.21
1697352247.87,0.22,-0,0.72,3.8,4,8.7,0.98,0,-0,0.21
1697352247.88,0.22,-0,0.72,2,0,9.9,0.98,0,-0,0.21
1697352247.89,0.24,0.33,0.73,0.3,-1.7,10.9,0.98,0,-0,0.21
1697352247.9,0.06,0.31,1.28,0.5,-3,11.5,0.98,0,-0,0.21
1697352247.91,0.12,0.32,1.06,1.6,-3.1,11,0.98,0,-0,0.21
1697352247.92,0.06,0.27,0.65,1.9,-2.4,10.8,0.98,0,-0,0.22
1697352247.93,-0.01,0.09,1.18,0.7,-2,10.2,0.98,0,-0,0.22
1697352247.94,0.12,0.16,0.67,-1.5,-1.2,9.6,0.98,0,-0,0.22
1697352247.95,-0.06,0.2,1.15,-2.8,0,9.3,0.98,0,-0,0.22
1697352247.96,0.1,0.3,1.01,-2.1,1.1,9,0.98,0,-0,0.22
1697352247.97,0.07,0.3,0.52,-0.4,2.1,9.1,0.98,0,-0,0.22
1697352247.98,0.03,0.15,0.75,0.4,3,9.4,0.98,0,-0,0.22
1697352247.99,0.2,0.22,1,2.1,3.1,9.8,0.98,0,-0,0.22
1697352248,0.1,0.13,0.54,3.7,2.9,9.3,0.97,0,-0,0.22
1697352248.01,0,-0.07,1.26,-0.2,2.2,9.4,0.97,0,-0,0.22
1697352248.02,0.08,-0.04,0.97,-1.5,2.1,8.1,0.97,0,-0,0.22
1697352248.03,0.01,0.12,0.99,-2.6,1.7,7.7,0.97,0,-0,0.22
1697352248.04,0.01,0.05,1.23,-4.7,1.3,8.2,0.97,0,-0,0.23
1697352248.05,0.13,0.42,0.66,-1.6,1.2,8.2,0.97,0,-0,0.23
1697352248.06,-0,0.37,1.28,2.4,0,8.9,0.97,0,-0,0.23
1697352248.07,0.27,0.2,0.92,3.6,-1.2,9.8,0.97,0,-0,0.23
1697352248.08,0.31,-0.17,0.71,1.4,-3.6,9.3,0.97,0,-0,0.23
1697352248.09,0.03,0.06,1.19,1.4,-3.6,9.3,0.97,0,-0,0.23
1697352248.1,0.03,0.06,1.19,1.4,-3.6,9.3,0.97,0,-0,0.23
1697352248.11,0.03,0.06,1.19,1.4,-3.6,9.3,0.97,0,-0,0.23
1697352248.12,0.03,0.06,1.19,1.4,-3.6,9.3,0.97,0,-0,0.23
1697352248.13,0.03,0.06,1.19,1.4,-3.6,9.3,0.97,0,-0,0.23
1697352248.14,0.03,0.06,1.19,1.4,-3.6,9.3,0.97,0,-0,0.23
1697352248.15,0.03,0.06,1.19,1.4,-3.6,9.3,0.97,0,-0,0.23
1697352248.16,0.03,0.06,1.19,1.4,-3.6,9.3,0.97,0,-0,0.23
1697352248.17,0.03,0.06,1.19,1.4,-3.6,9.3,0.97,0,-0,0.23
1697352248.18,0.03,0.06,1.19,1.4,-3.6,9.3,0.97,0,-0,0.23
1697352248.19,0.03,0.06,1.19,1.4,-3.6,9.3,0.97,0,-0,0.23
1697352248.2,0.03,0.06,1.19,1.4,-3.6,9.3,0.97,0,-0,0.23
1697352248.21,0.03,0.06,1.19,1.4,-3.6,9.3,0.97,0,-0,0.23
1697352248.22,0.03,0.06,1.19,1.4,-3.6,9.3,0.97,0,-0,0.23
1697352248.23,0.03,0.06,1.19,1.4,-3.6,9.3,0.97,0,-0,0.23
1697352248.24,0.03,0.06,1.19,1.4,-3.6,9.3,0.97,0,-0,0.23
1697352248.25,0.03,0.06,1.19,1.4,-3.6,9.3,0.97,0,-0,0.23
1697352248.26,0.03,0.06,1.19,1.4,-3.6,9.3,0.97,0,-0,0.23
1697352248.27,-0.02,0.57,0.63,-4.1,2.3,20.9,0.97,0.01,-0.01,0.25
1697352248.28,-0.32,0.76,1.21,-2.9,3.3,22.8,0.97,0,-0.01,0.25
1697352248.29,-0.53,0.5,1.36,-1.5,4.6,24.5,0.97,0,-0.01,0.25
1697352248.3,-0.17,0.34,1,0.1,4.5,25.3,0.97,0,-0.01,0.26
1697352248.31,-0.54,0.58,1.15,1,3.8,26.2,0.97,0,-0.01,0.26
1697352248.32,-0.39,0.48,1.22,3.1,3.2,26.7,0.97,0,-0,0.26
1697352248.33,-0.26,0.43,0.94,3.1,3.2,26.7,0.97,0,-0,0.26
1697352248.34,-0.14,0.29,0.67,3.3,2.6,26.7,0.96,0,-0,0.27
1697352248.35,-0.15,0.41,0.92,1.5,2,26.6,0.96,0,-0,0.27
1697352248.36,-0.43,0.38,1.55,0.7,0.9,25.9,0.96,0,-0,0.27
1697352248.37,-0.35,0.29,0.66,0,0.5,25.4,0.96,0,-0,0.27
1697352248.38,-0.27,0.4,1.29,-0.7,0.7,24.7,0.96,0,-0,0.27
1697352248.39,0.02,0.61,0.37,-0.6,0.7,24.6,0.96,0,-0,0.28
1697352248.4,0.02,0.53,0.68,0,0.5,24.2,0.96,0,-0,0.28
1697352248.41,-0.29,0.46,0.59,-0.3,0.2,24.3,0.96,0,-0,0.28
1697352248.42,-0.5,0.35,1.6,-0.5,-0.7,24.3,0.96,0,-0,0.28
1697352248.43,-0.29,0.34,0.83,-1.5,-1.5,24.5,0.96,0,-0,0.28
1697352248.44,-0.29,0.37,0.87,-1.9,-2.5,24.7,0.96,0,-0,0.28
1697352248.45,-0.39,0.52,1.09,-1,-1.8,24.9,0.96,0,-0,0.29
1697352248.46,-0.42,0.32,0.71,0.1,-0.7,24.5,0.96,0,-0,0.29
1697352248.47,-0.41,0.33,1.23,0.4,0,24.2,0.96,0,-0,0.29
1697352248.48,-0.1,0.27,0.55,0.3,1.2,23.9,0.96,0,-0,0.29
1697352248.49,-0.42,0.34,1.41,0.3,1.2,23.9,0.96,0,-0,0.29
1697352248.5,-0.56,0.28,1.53,0.7,3.6,23.1,0.95,0,-0,0.3
1697352248.51,-0.44,0.38,1.14,0.7,3.6,23.1,0.95,0,-0,0.3
1697352248.52,-0.4,0.22,0.58,1.8,4.2,22.6,0.95,0,-0,0.3
1697352248.53,-0.47,0.31,1.31,1.8,4.2,22.6,0.95,0,-0,0.3
1697352248.54,-0.47,0.31,1.31,2.3,4,22.1,0.95,0,-0,0.3
1697352248.55,-0.34,0.37,1.02,-1.9,4,21.4,0.95,0,-0,0.31
1697352248.56,-0.34,0.37,1.02,-1.9,4,21.4,0.95,0,-0,0.31
1697352248.57,-0.29,0.29,0.83,-3.8,3.9,21.8,0.95,0,-0,0.31
1697352248.58,-0.24,0.34,0.96,-3.5,3.1,21.7,0.95,0,-0,0.31
1697352248.59,-0.36,0.53,1.02,-2.8,2.3,22,0.95,0,-0,0.31
1697352248.6,-0.03,0.46,0.7,-2.3,1.1,21.9,0.95,0,-0,0.31
1697352248.61,-0.43,0.35,1.36,-1.7,0.3,22,0.95,0,-0,0.32
1697352248.62,-0.35,0.28,0.67,-1.9,0.2,21.9,0.95,0,-0,0.32
1697352248.63,-0.43,0.44,1.69,-2.8,0.8,21.3,0.95,0,-0,0.32
1697352248.64,-0.32,0.41,0.48,-3.4,1.2,21.5,0.95,0,-0,0.32
1697352248.65,-0.32,0.41,0.48,-3.4,1.2,21.5,0.95,0,-0,0.32
1697352248.66,-0.32,0.41,0.48,-3.4,1.2,21.5,0.95,0,-0,0.32
1697352248.67,-0.32,0.41,0.48,-3.4,1.2,21.5,0.95,0,-0,0.32
1697352248.68,-0.32,0.41,0.48,-3.4,1.2,21.5,0.95,0,-0,0.32
1697352248.69,-0.32,0.41,0.48,-3.4,1.2,21.5,0.95,0,-0,0.32
1697352248.7,-0.32,0.41,0.48,-3.4,1.2,21.5,0.95,0,-0,0.32
1697352248.71,-0.32,0.41,0.48,-3.4,1.2,21.5,0.95,0,-0,0.32
1697352248.72,-0.32,0.41,0.48,-3.4,1.2,21.5,0.95,0,-0,0.32
1697352248.73,-0.32,0.41,0.48,-3.4,1.2,21.5,0.95,0,-0,0.32
1697352248.74,-0.32,0.41,0.48,-3.4,1.2,21.5,0.95,0,-0,0.32
1697352248.75,-0.32,0.41,0.48,-3.4,1.2,21.5,0.95,0,-0,0.32
1697352248.76,-0.32,0.41,0.48,-3.4,1.2,21.5,0.95,0,-0,0.32
1697352248.77,-0.32,0.41,0.48,-3.4,1.2,21.5,0.95,0,-0,0.32
1697352248.78,-0.32,0.41,0.48,-3.4,1.2,21.5,0.95,0,-0,0.32
1697352248.79,-0.32,0.41,0.48,-3.4,1.2,21.5,0.95,0,-0,0.32
1697352248.8,-0.32,0.41,0.48,-3.4,1.2,21.5,0.95,0,-0,0.32
1697352248.81,-0.32,0.41,0.48,-3.4,1.2,21.5,0.95,0,-0,0.32
1697352248.82,-0.15,0.64,1.06,4,-0.5,35.1,0.93,0,-0,0.37
1697352248.83,-0.23,0.61,1.05,2.3,0,36.5,0.93,0,-0,0.37
1697352248.84,-0.14,0.67,1.07,2.3,0,36.5,0.93,0,0,0.37
1697352248.85,-0.23,0.89,1.31,-0.1,0.9,37.9,0.93,0,0,0.37
1697352248.86,-0.23,0.89,1.31,-1.9,1.6,39.5,0.93,0,0,0.38
1697352248.87,-0.34,0.99,0.94,1.8,2.7,44.2,0.92,0,0,0.38
1697352248.88,-0.18,0.93,0.54,4.7,3.2,46.7,0.92,0,0,0.38
1697352248.89,-0.23,0.8,0.98,4.7,3.2,46.7,0.92,0,0,0.39
1697352248.9,-0.25,0.87,1.15,2.6,2,52.7,0.92,0.01,0,0.39
1697352248.91,-0.25,0.87,1.15,2.6,2,52.7,0.92,0.01,0,0.4
1697352248.92,-0.17,0.99,0.9,1.6,1.5,55.2,0.92,0.01,0,0.4
1697352248.93,-0.17,0.99,0.9,2.2,1.1,57.4,0.91,0.01,0,0.4
1697352248.94,-0.19,1.02,1.02,3,0.7,59.8,0.91,0.01,0,0.41
1697352248.95,-0.2,0.91,1.03,3.3,0.3,61.3,0.91,0.01,0,0.41
1697352248.96,-0.25,0.99,1.13,4.9,0.6,63,0.91,0.01,0,0.42
1697352248.97,-0.16,0.99,1.11,5.5,0.5,64.1,0.91,0.01,0,0.43
1697352248.98,-0.23,0.91,0.93,5.3,1,64.9,0.9,0.01,0,0.43
1697352248.99,-0.26,0.96,1,4.3,1.2,65.5,0.9,0.01,0,0.44
1697352249,-0.23,0.93,1.27,2.5,1.5,66,0.9,0.01,0,0.44
1697352249.01,-0.23,1.01,0.95,1.5,1.6,66.6,0.9,0.01,0,0.45
1697352249.02,-0.19,0.99,0.85,1,1.7,67.4,0.89,0.01,0,0.45
1697352249.03,-0.22,0.9,1.05,0.7,1.6,67.6,0.89,0.01,0,0.46
1697352249.04,-0.07,0.99,0.69,-0.7,0.8,67.2,0.89,0.01,0,0.46
1697352249.05,0,0.97,1.19,-1.8,0,67.8,0.88,0.01,0,0.47
1697352249.06,-0.13,0.84,0.84,-1.2,-0.3,67.8,0.88,0.01,0,0.47
1697352249.07,0.04,0.94,0.98,-0.6,-0.9,67.9,0.88,0.01,0,0.48
1697352249.08,-0.12,0.97,1.13,0.4,-0.9,68.4,0.88,0.01,0,0.48
1697352249.09,0,0.88,0.42,2.1,-0.8,67.8,0.87,0.01,0,0.49
1697352249.1,-0.22,1.06,1.27,2.9,-0.5,68,0.87,0.01,0,0.49
1697352249.11,-0.13,0.97,1.36,3.9,-0.2,68.1,0.87,0.01,0,0.5
1697352249.12,0.03,0.99,0.64,5.2,-0.3,67.5,0.86,0.01,0,0.5
1697352249.13,-0.05,0.98,0.82,4.8,-0.6,67.7,0.86,0.01,0,0.51
1697352249.14,-0.01,0.86,0.99,4.7,-0.6,67,0.86,0.01,0,0.52
1697352249.15,-0.14,0.92,0.85,2.4,-0.3,67.4,0.85,0.01,0,0.52
1697352249.16,-0.2,0.94,0.93,2.4,-0.3,67.4,0.85,0.01,0,0.52
1697352249.17,-0.31,0.89,1.48,-1.4,1,68.1,0.85,0.01,0,0.53
1697352249.18,-0.17,1.13,1.06,-1.5,1.6,69.4,0.84,0.01,0,0.54
1697352249.19,-0.17,1.13,1.06,-1.5,1.6,69.4,0.84,0.01,0,0.54
1697352249.2,-0.09,1.08,0.74,-0.1,2.2,70.4,0.84,0.01,0,0.54
1697352249.21,-0.09,1.08,0.74,-0.1,2.2,70.4,0.84,0.01,0,0.54
1697352249.22,-0.09,1.08,0.74,-0.1,2.2,70.4,0.84,0.01,0,0.54
1697352249.23,-0.09,1.08,0.74,-0.1,2.2,70.4,0.84,0.01,0,0.54
1697352249.24,-0.09,1.08,0.74,-0.1,2.2,70.4,0.84,0.01,0,0.54
1697352249.25,-0.09,1.08,0.74,-0.1,2.2,70.4,0.84,0.01,0,0.54
1697352249.26,-0.09,1.08,0.74,-0.1,2.2,70.4,0.84,0.01,0,0.54
1697352249.27,-0.09,1.08,0.74,-0.1,2.2,70.4,0.84,0.01,0,0.54
1697352249.28,-0.09,1.08,0.74,-0.1,2.2,70.4,0.84,0.01,0,0.54
1697352249.29,-0.09,1.08,0.74,-0.1,2.2,70.4,0.84,0.01,0,0.54
1697352249.3,-0.09,1.08,0.74,-0.1,2.2,70.4,0.84,0.01,0,0.54
1697352249.31,-0.09,1.08,0.74,-0.1,2.2,70.4,0.84,0.01,0,0.54
1697352249.32,-0.09,1.08,0.74,-0.1,2.2,70.4,0.84,0.01,0,0.54
1697352249.33,-0.09,1.08,0.74,-0.1,2.2,70.4,0.84,0.01,0,0.54
1697352249.34,-0.08,1.05,0.98,0,0.9,72.1,0.79,0.01,0,0.61
1697352249.35,-0.08,1.04,1.1,0.9,1.1,72.3,0.78,0.01,0,0.62
1697352249.36,-0.15,0.94,0.87,1,1.2,72.4,0.78,0.01,0,0.62
1697352249.37,-0.09,1.01,0.95,0.7,1.3,72.2,0.78,0.01,0,0.63
1697352249.38,-0.17,0.87,1.46,-0.1,1.6,72,0.77,0.01,0,0.63
1697352249.39,-0.2,0.92,1.07,-0.4,1.9,71.7,0.77,0.01,0,0.64
1697352249.4,-0.11,1.05,1.08,0,2.3,71.6,0.77,0.01,0,0.64
1697352249.41,-0.16,0.94,1.15,0.3,2.4,71.4,0.76,0.01,0,0.65
1697352249.42,-0.06,0.94,0.95,0.2,2.4,71.8,0.76,0.01,0,0.66
1697352249.43,-0.24,0.99,1.41,-0.6,2.7,73,0.75,0.01,0,0.66
1697352249.44,-0.07,0.94,0.52,0.5,2.6,72.7,0.75,0.01,0,0.66
1697352249.45,-0.15,1.06,1.06,1,2.8,73.5,0.74,0.01,0.01,0.67
1697352249.46,-0.12,0.97,1.31,1.4,2.4,73.6,0.74,0.01,0.01,0.67
1697352249.47,-0.04,0.85,0.6,1.4,2.1,73.4,0.73,0.01,0.01,0.68
1697352249.48,-0.04,0.85,0.6,1.4,2.1,73.4,0.73,0.01,0.01,0.68
1697352249.49,-0.04,0.86,1.04,-1.5,0.9,73.9,0.72,0.01,0.01,0.69
1697352249.5,-0.06,0.94,0.72,-1.3,0.7,74,0.72,0.01,0.01,0.69
1697352249.51,-0.1,1.02,0.84,-1.3,0.7,74,0.72,0.01,0.01,0.69
1697352249.52,-0.1,1.02,1.4,0.7,0.2,74.4,0.71,0.01,0.01,0.7
1697352249.53,-0.1,1.02,1.4,0.7,0.2,74.4,0.71,0.01,0.01,0.7
1697352249.54,-0.16,1.01,0.89,0.5,-0.2,74,0.71,0.01,0.01,0.71
1697352249.55,-0.11,0.95,1.29,-1,0,73.8,0.7,0.01,0.01,0.72
1697352249.56,-0.1,0.87,1.14,-1.6,0.5,73.2,0.7,0.01,0.01,0.72
1697352249.57,-0.11,1.03,1.44,-0.5,2,72.4,0.69,0.01,0,0.73
1697352249.58,-0.11,1.03,1.44,-0.5,2,72.4,0.69,0.01,0,0.73
1697352249.59,0.04,1.06,1.04,1.3,2.6,71.7,0.68,0.01,0.01,0.73
1697352249.6,-0.06,0.92,1.42,2.4,3.6,71.2,0.68,0.01,0.01,0.74
1697352249.61,-0.06,0.92,1.42,0.5,3.1,71,0.67,0.01,0.01,0.74
1697352249.62,-0.07,1.01,1.03,-0.4,3.4,71.1,0.67,0.01,0.01,0.74
1697352249.63,-0.09,1.02,0.82,-0.8,3.8,71.3,0.66,0.01,0.01,0.75
1697352249.64,0.01,0.98,0.95,0.1,4.2,71.4,0.66,0.01,0.01,0.75
1697352249.65,-0.04,0.99,0.65,0.4,4.1,71.4,0.66,0.01,0.01,0.75
1697352249.66,-0.1,0.96,1.34,0.7,3.9,72,0.65,0.01,0.01,0.76
1697352249.67,-0.14,1.04,1.23,1.8,3.3,72.3,0.64,0.01,0.01,0.77
1697352249.68,0.01,0.93,0.84,1.6,2.5,73.2,0.64,0.01,0.01,0.77
1697352249.69,-0.01,0.92,1.09,1.2,1.5,73.7,0.63,0.01,0.01,0.77
1697352249.7,0.01,0.91,0.7,0.5,0.4,74.4,0.63,0.01,0.01,0.78
1697352249.71,0.14,0.92,1.06,-0.3,-0.3,75.2,0.62,0.01,0.01,0.78
1697352249.72,0.02,0.89,1.34,-0.5,-0.6,75.3,0.62,0.01,0.01,0.79
1697352249.73,0.02,0.89,1.34,-0.5,-0.6,75.3,0.62,0.01,0.01,0.79
1697352249.74,0.02,0.89,1.34,-0.5,-0.6,75.3,0.62,0.01,0.01,0.79
1697352249.75,0.02,0.89,1.34,-0.5,-0.6,75.3,0.62,0.01,0.01,0.79
1697352249.76,0.02,0.89,1.34,-0.5,-0.6,75.3,0.62,0.01,0.01,0.79
1697352249.77,0.02,0.89,1.34,-0.5,-0.6,75.3,0.62,0.01,0.01,0.79
1697352249.78,0.02,0.89,1.34,-0.5,-0.6,75.3,0.62,0.01,0.01,0.79
1697352249.79,0.02,0.89,1.34,-0.5,-0.6,75.3,0.62,0.01,0.01,0.79
1697352249.8,0.02,0.89,1.34,-0.5,-0.6,75.3,0.62,0.01,0.01,0.79
1697352249.81,0.02,0.89,1.34,-0.5,-0.6,75.3,0.62,0.01,0.01,0.79
1697352249.82,0.02,0.89,1.34,-0.5,-0.6,75.3,0.62,0.01,0.01,0.79
1697352249.83,0.02,0.89,1.34,-0.5,-0.6,75.3,0.62,0.01,0.01,0.79
1697352249.84,0.02,0.89,1.34,-0.5,-0.6,75.3,0.62,0.01,0.01,0.79
1697352249.85,0.15,0.54,0.67,-2.3,-0.1,53.1,0.56,0,0.01,0.83
1697352249.86,0.18,0.58,0.94,-2.3,-0.1,53.1,0.56,0,0.01,0.83
1697352249.87,-0.05,0.59,0.51,-1.9,-0.8,51,0.55,0,0.01,0.84
1697352249.88,0.06,0.51,0.91,-0.8,-1,50,0.55,0,0.01,0.84
1697352249.89,0.07,0.64,1.34,-0.8,-0.8,49.8,0.54,0,0.01,0.84
1697352249.9,0.11,0.56,0.69,-1.1,-0.6,49.5,0.54,0,0.01,0.84
1697352249.91,0.05,0.59,0.59,-1.2,-0.2,49.4,0.54,0,0.01,0.84
1697352249.92,-0.01,0.72,1.53,-0.3,0.2,49.8,0.53,0,0.01,0.85
1697352249.93,0.08,0.66,0.82,0.9,0.3,50,0.53,0,0.01,0.85
1697352249.94,-0.03,0.72,0.84,0.9,0.3,50,0.53,0,0.01,0.85
1697352249.95,0,0.62,1.27,0.8,1,51.1,0.52,0,0.01,0.85
1697352249.96,0.07,0.66,0.6,0.8,1,51.1,0.52,0,0.01,0.85
1697352249.97,-0.06,0.67,1.32,-2.1,1.6,51.3,0.52,0,0.01,0.86
1697352249.98,-0.06,0.67,1.32,-2.1,1.6,51.3,0.51,0,0.01,0.86
1697352249.99,0.05,0.65,1.14,-2.7,2,51,0.51,0,0.01,0.86
1697352250,-0.02,0.72,1,-1.8,2.2,50.5,0.5,0,0.01,0.86
1697352250.01,-0.02,0.72,1,0,1.9,49.4,0.5,0,0.01,0.87
1697352250.02,0.06,0.66,1.6,1.2,1.4,48,0.5,0,0.01,0.87
1697352250.03,0.12,0.47,0.66,0.9,1.1,45.9,0.49,0,0.01,0.87
1697352250.04,0.1,0.45,1.39,0,0.7,43.9,0.49,0,0.01,0.87
1697352250.05,0.08,0.38,0.38,0,0.7,43.9,0.49,0,0.01,0.87
1697352250.06,0.08,0.53,0.86,-1.9,0.4,42.2,0.49,0,0.01,0.87
1697352250.07,-0,0.64,1.38,-2.8,-0.1,40.9,0.48,0,0.01,0.88
1697352250.08,0.04,0.59,0.92,-2.6,-0.3,40.1,0.48,0,0.01,0.88
1697352250.09,0.13,0.6,0.39,-1.4,-0.1,39.6,0.47,0,0.01,0.88
1697352250.1,-0.01,0.44,1.35,0,-0.1,39.3,0.47,0,0.01,0.88
1697352250.11,0.16,0.28,1.24,-0.4,-0.2,38.4,0.47,0,0.01,0.88
1697352250.12,0.18,0.28,0.52,-2.2,-0.2,37.3,0.46,0,0,0.89
1697352250.13,0.11,0.36,1.08,-4.5,-0.3,36.4,0.46,0,0,0.89
1697352250.14,0.13,0.3,1.36,-5,-0.5,34.6,0.46,0,0,0.89
1697352250.15,0.15,0.27,1.56,-2.9,0,32,0.46,0,0,0.89
1697352250.16,0.12,0.09,1.12,-1.7,0.6,29.9,0.46,0,0,0.89
1697352250.17,0.24,0,0.46,-2.4,0.8,27.4,0.45,0,0,0.89
1697352250.18,0.03,0.03,1.52,-4.4,1.3,24.8,0.45,0,0,0.89
1697352250.19,0.02,0.01,1.1,-5.8,1.1,22.6,0.45,0,0,0.89
1697352250.2,0.28,0.1,0.33,-5.9,1.2,20.4,0.45,0,0,0.89
1697352250.21,0.08,0.05,1.44,-4.4,1.2,18.6,0.45,0,0,0.9
1697352250.22,0.18,-0.17,0.99,-3.5,1.2,16.4,0.44,0,0,0.9
1697352250.23,0.2,-0.2,0.72,-4.1,0.9,13.9,0.44,0,0,0.9
1697352250.24,0.2,-0.2,0.72,-4.1,0.9,13.9,0.44,0,0,0.9
1697352250.25,0.2,-0.2,0.72,-4.1,0.9,13.9,0.44,0,0,0.9
1697352250.26,0.2,-0.2,0.72,-4.1,0.9,13.9,0.44,0,0,0.9
1697352250.27,0.2,-0.2,0.72,-4.1,0.9,13.9,0.44,0,0,0.9
1697352250.28,0.2,-0.2,0.72,-4.1,0.9,13.9,0.44,0,0,0.9
1697352250.29,0.2,-0.2,0.72,-4.1,0.9,13.9,0.44,0,0,0.9
1697352250.3,0.2,-0.2,0.72,-4.1,0.9,13.9,0.44,0,0,0.9
1697352250.31,0.2,-0.2,0.72,-4.1,0.9,13.9,0.44,0,0,0.9
1697352250.32,0.2,-0.2,0.72,-4.1,0.9,13.9,0.44,0,0,0.9
1697352250.33,0.2,-0.2,0.72,-4.1,0.9,13.9,0.44,0,0,0.9
1697352250.34,0.2,-0.2,0.72,-4.1,0.9,13.9,0.44,0,0,0.9
1697352250.35,0.2,-0.2,0.72,-4.1,0.9,13.9,0.44,0,0,0.9
1697352250.36,0.2,-0.2,0.72,-4.1,0.9,13.9,0.44,0,0,0.9
1697352250.37,0.12,-0.49,1.51,-3.6,-2.1,-13.2,0.44,0,-0,0.9
1697352250.38,0.26,-0.52,0.56,-3.3,-1.1,-15.1,0.45,0,-0,0.89
1697352250.39,0.2,-0.6,1.25,-3.5,-1.2,-17.1,0.45,0,-0,0.89
1697352250.4,0.11,-0.5,0.69,-3,-1.2,-19.1,0.45,0,-0,0.89
1697352250.41,0.25,-0.66,1.01,-4.5,-1.1,-20.6,0.45,0,-0.01,0.89
1697352250.42,0.11,-0.61,1.18,-4.6,-0.7,-22.2,0.45,0,-0.01,0.89
1697352250.43,0.27,-0.39,0.99,-2.4,-0.5,-23.3,0.45,0,-0.01,0.89
1697352250.44,0.07,-0.39,1.09,1.5,-0.4,-23.6,0.46,0,-0.01,0.89
1697352250.45,0.17,-0.51,1.24,3.2,-0.3,-23.6,0.46,0,-0.01,0.89
1697352250.46,0.17,-0.67,0.76,2.1,0.3,-23.6,0.46,0,-0.01,0.89
1697352250.47,-0.02,-0.65,1.25,-1.2,1.2,-24.2,0.46,0,-0.01,0.89
1697352250.48,0.29,-0.8,0.6,-6,2.6,-25.6,0.46,0,-0.01,0.89
1697352250.49,0.03,-0.66,1.01,-8.6,2.9,-27.2,0.47,-0,-0.01,0.88
1697352250.5,0.24,-0.56,0.99,-7.2,3.2,-29.3,0.47,-0,-0.01,0.88
1697352250.51,-0.06,-0.65,1.25,-3.4,2.9,-32.4,0.47,-0,-0.01,0.88
1697352250.52,0.08,-0.91,1.31,-0.3,2.8,-35.1,0.47,-0,-0.01,0.88
1697352250.53,-0.06,-0.98,0.85,-0.3,1.3,-39,0.48,-0,-0.01,0.88
1697352250.54,0.05,-1.38,1.1,-3.2,0.5,-43.3,0.48,-0,-0.01,0.88
1697352250.55,0.03,-0.86,1.06,-6.4,-0.9,-45.2,0.48,-0,-0.01,0.88
1697352250.56,0.07,-0.71,1.45,-5.9,-0.8,-46.7,0.49,-0,-0.01,0.87
1697352250.57,0.04,-0.77,0.52,-2.2,-0.2,-47.9,0.49,-0,-0.01,0.87
1697352250.58,-0.13,-0.72,1,0.8,-0.2,-49.4,0.49,-0,-0.01,0.87
1697352250.59,-0.01,-1.06,1.03,1.8,0.8,-51.4,0.5,-0,-0.01,0.87
1697352250.6,-0.31,-1.21,1.07,-1.2,1.2,-53.4,0.5,-0,-0.01,0.86
1697352250.61,-0.14,-1.19,0.7,-4,1.9,-56.2,0.5,-0,-0.01,0.86
1697352250.62,-0.28,-1.06,0.95,-7.1,2.5,-58.4,0.51,-0,-0.01,0.86
1697352250.63,-0.01,-1.18,1.14,-7.1,2.5,-58.4,0.51,-0,-0.01,0.86
1697352250.64,-0.23,-0.87,1.19,-5.8,1.1,-60.4,0.52,-0,-0.01,0.86
1697352250.65,0.03,-0.86,0.87,-2,0,-61.1,0.52,-0,-0.01,0.85
1697352250.66,0.03,-0.86,0.87,-2,0,-61.1,0.52,-0,-0.01,0.85
1697352250.67,-0.06,-1.09,1.2,-1.5,-0.6,-61.5,0.53,-0,-0.01,0.85
1697352250.68,-0.06,-1.09,1.2,-1.5,-0.6,-61.5,0.53,-0,-0.01,0.85
1697352250.69,-0.01,-0.88,1.23,-2.8,-0.5,-61.6,0.54,-0,-0.01,0.84
1697352250.7,-0.01,-0.88,1.23,-1.3,-0.2,-61,0.54,-0,-0.01,0.84
1697352250.71,-0.06,-1.1,1.02,1.5,-0.5,-60.8,0.55,-0,-0.01,0.84
1697352250.72,-0.06,-1.1,1.02,-1.4,-0.7,-58.9,0.55,-0,-0.01,0.83
1697352250.73,-0,-0.93,0.85,-0.9,-0.3,-58.4,0.56,-0,-0.01,0.83
1697352250.74,-0,-0.93,0.85,-2,0.2,-56.6,0.56,-0,-0.01,0.83
1697352250.75,0.01,-0.96,1.4,-0.6,1.2,-55.6,0.57,-0,-0.01,0.82
1697352250.76,0.01,-0.96,1.4,-0.6,1.2,-55.6,0.57,-0,-0.01,0.82
1697352250.77,0.01,-0.96,1.4,-0.6,1.2,-55.6,0.57,-0,-0.01,0.82
1697352250.78,0.01,-0.96,1.4,-0.6,1.2,-55.6,0.57,-0,-0.01,0.82
1697352250.79,0.01,-0.96,1.4,-0.6,1.2,-55.6,0.57,-0,-0.01,0.82
1697352250.8,0.01,-0.96,1.4,-0.6,1.2,-55.6,0.57,-0,-0.01,0.82
1697352250.81,0.01,-0.96,1.4,-0.6,1.2,-55.6,0.57,-0,-0.01,0.82
1697352250.82,0.01,-0.96,1.4,-0.6,1.2,-55.6,0.57,-0,-0.01,0.82
1697352250.83,0.01,-0.96,1.4,-0.6,1.2,-55.6,0.57,-0,-0.01,0.82
1697352250.84,0.01,-0.96,1.4,-0.6,1.2,-55.6,0.57,-0,-0.01,0.82
1697352250.85,0.01,-0.96,1.4,-0.6,1.2,-55.6,0.57,-0,-0.01,0.82
1697352250.86,0.01,-0.96,1.4,-0.6,1.2,-55.6,0.57,-0,-0.01,0.82
1697352250.87,0.01,-0.96,1.4,-0.6,1.2,-55.6,0.57,-0,-0.01,0.82
1697352250.88,0.01,-0.96,1.4,-0.6,1.2,-55.6,0.57,-0,-0.01,0.82
1697352250.89,-0.14,-0.98,1.07,0.8,-0.7,-59.3,0.62,-0,-0.01,0.78
1697352250.9,-0,-0.9,1.06,1.4,-0.9,-59.3,0.63,-0,-0.01,0.78
1697352250.91,0.1,-0.98,0.78,-0.2,-0.4,-58.2,0.63,-0,-0.01,0.78
1697352250.92,0.04,-0.92,0.77,-0.2,0.2,-57.3,0.63,-0,-0.01,0.77
1697352250.93,-0.1,-0.97,1.28,-0.3,0.9,-56.2,0.64,-0,-0.01,0.77
1697352250.94,0.09,-0.93,0.44,-0.7,1.3,-55.6,0.64,-0,-0.01,0.77
1697352250.95,0.04,-0.8,1.08,-0.9,2,-55.2,0.65,-0,-0.01,0.76
1697352250.96,-0.29,-0.83,0.8,0,2.7,-54.7,0.65,-0,-0.01,0.76
1697352250.97,0.1,-0.9,1.15,2.2,3.5,-55.4,0.65,-0,-0.01,0.76
1697352250.98,0.03,-1.1,1.12,-0.1,2.9,-56.4,0.66,-0,-0.01,0.75
1697352250.99,-0.04,-1.4,0.87,-4.1,1.9,-58.1,0.66,-0.01,-0.01,0.75
1697352251,0.13,-0.78,1.01,-4.6,0.3,-59.1,0.67,-0.01,-0.01,0.75
1697352251.01,-0.04,-0.98,1.16,-3,-0.7,-60.1,0.67,-0.01,-0.01,0.74
1697352251.02,0.14,-0.78,0.95,0.1,-1.7,-61.1,0.67,-0.01,-0.01,0.74
1697352251.03,-0.1,-0.75,1.26,2.6,-1.8,-60.8,0.68,-0.01,-0.01,0.74
1697352251.04,0.05,-0.97,0.92,3.3,-1.1,-60.7,0.68,-0,-0.01,0.73
1697352251.05,-0.14,-1.08,0.98,1,-1.1,-60.8,0.69,-0,-0.01,0.73
1697352251.06,0.1,-1.12,0.99,1,-1.1,-60.8,0.69,-0,-0.01,0.73
1697352251.07,0.06,-0.9,1.4,-2.6,-1.2,-58.2,0.69,-0,-0.01,0.72
1697352251.08,0.06,-0.9,1.4,-2.6,-1.2,-58.2,0.69,-0,-0.01,0.72
1697352251.09,-0.03,-0.81,1.81,-1.4,1.7,-55.1,0.7,-0,-0.01,0.72
1697352251.1,-0.03,-0.81,1.81,-1.4,1.7,-55.1,0.7,-0,-0.01,0.71
1697352251.11,-0.01,-0.92,1.01,0.7,3.2,-53.6,0.7,-0,-0.01,0.71
1697352251.12,-0.01,-0.92,1.01,3.5,3.8,-53.7,0.71,-0,-0.01,0.71
1697352251.13,0.02,-1.18,1.21,1.4,4.3,-54.6,0.71,-0,-0.01,0.7
1697352251.14,0.02,-1.18,1.21,1.4,4.3,-54.6,0.71,-0.01,-0.01,0.7
1697352251.15,0.13,-1.03,1.18,-1.5,3.5,-55.5,0.72,-0.01,-0.01,0.7
1697352251.16,0.13,-1.03,1.18,-3.1,2.8,-56.1,0.72,-0.01,-0.01,0.69
1697352251.17,0.11,-0.83,1.25,-2.2,1.7,-56.8,0.72,-0.01,-0.01,0.69
1697352251.18,0.11,-0.83,1.25,0.3,0.6,-57.8,0.73,-0.01,-0.01,0.69
1697352251.19,0.08,-0.72,0.61,3,0,-57.6,0.73,-0.01,-0.01,0.68
1697352251.2,-0.04,-0.97,1.24,5.1,0.1,-57.7,0.74,-0.01,-0.01,0.68
1697352251.21,-0.04,-0.97,0.52,4.7,0,-58.4,0.74,-0.01,-0.01,0.67
1697352251.22,-0.03,-1.14,1.39,0.3,0.9,-58.6,0.74,-0,-0.01,0.67
1697352251.23,0.07,-0.92,0.86,-0.2,1.8,-57.8,0.75,-0,-0.01,0.67
1697352251.24,0.17,-0.95,0.77,-0.1,1.7,-57.7,0.75,-0,-0.01,0.66
1697352251.25,0.1,-1.05,1.09,-1.7,1.7,-56.8,0.75,-0.01,-0.01,0.66
1697352251.26,0.04,-0.72,0.77,-3.8,1.4,-55.9,0.76,-0.01,-0.01,0.65
1697352251.27,0.12,-0.81,1.16,-1.2,1.1,-56,0.76,-0.01,-0.01,0.65
1697352251.28,0.12,-0.81,1.16,-1.2,1.1,-56,0.76,-0.01,-0.01,0.65
1697352251.29,0.12,-0.81,1.16,-1.2,1.1,-56,0.76,-0.01,-0.01,0.65
1697352251.3,0.12,-0.81,1.16,-1.2,1.1,-56,0.76,-0.01,-0.01,0.65
1697352251.31,0.12,-0.81,1.16,-1.2,1.1,-56,0.76,-0.01,-0.01,0.65
1697352251.32,0.12,-0.81,1.16,-1.2,1.1,-56,0.76,-0.01,-0.01,0.65
1697352251.33,0.12,-0.81,1.16,-1.2,1.1,-56,0.76,-0.01,-0.01,0.65
1697352251.34,0.12,-0.81,1.16,-1.2,1.1,-56,0.76,-0.01,-0.01,0.65
1697352251.35,0.12,-0.81,1.16,-1.2,1.1,-56,0.76,-0.01,-0.01,0.65
1697352251.36,0.12,-0.81,1.16,-1.2,1.1,-56,0.76,-0.01,-0.01,0.65
1697352251.37,0.12,-0.81,1.16,-1.2,1.1,-56,0.76,-0.01,-0.01,0.65
1697352251.38,0.12,-0.81,1.16,-1.2,1.1,-56,0.76,-0.01,-0.01,0.65
1697352251.39,0.12,-0.81,1.16,-1.2,1.1,-56,0.76,-0.01,-0.01,0.65
1697352251.4,-0.04,-0.24,1.02,-1.2,1.1,-56,0.76,-0.01,-0.01,0.65
1697352251.41,0.07,-0.03,0.94,2.1,0.8,-30.6,0.79,-0,-0.01,0.61
1697352251.42,0.04,0.06,1.05,2.6,2.8,-28,0.79,-0,-0.01,0.61
1697352251.43,0.24,0.11,0.9,5.9,3.4,-25.6,0.8,-0,-0,0.61
1697352251.44,0.16,-0.01,0.96,5.6,3.4,-18.5,0.8,-0,-0,0.6
1697352251.45,0.27,-0.11,0.99,1.8,2.6,-15.7,0.8,-0,-0,0.6
1697352251.46,0.27,0.08,0.57,1.8,2.6,-15.7,0.8,-0,-0,0.6
1697352251.47,0.27,0.08,0.57,-0.4,2,-12.6,0.8,-0,-0,0.6
1697352251.48,0.11,0.06,1.25,-1,1.2,-9.9,0.8,-0,-0,0.6
1697352251.49,-0.13,0.28,1.01,1.6,1.3,-8.1,0.8,-0,-0,0.6
1697352251.5,0.05,0.15,0.86,4.3,1.3,-6.4,0.8,-0,-0,0.6
1697352251.51,0.05,0.15,0.86,6.8,1.8,-5.3,0.8,-0,-0,0.6
1697352251.52,0.08,0.11,0.61,5.2,2,-4.3,0.8,0,-0,0.6
1697352251.53,-0.16,0.15,1.27,4.7,2.1,-3.9,0.8,0,-0,0.6
1697352251.54,0.12,0.25,0.96,2.7,2.4,-2.1,0.8,0,-0,0.6
1697352251.55,0.21,0.4,0.79,2,2.3,0,0.8,0,-0,0.6
1697352251.56,0.14,0.26,1.41,1.7,2.2,2.6,0.8,0,-0,0.6
1697352251.57,0.28,0.22,0.91,2.6,1.9,4.4,0.8,0,-0,0.6
1697352251.58,0.22,0.2,0.83,1.3,1.7,6.2,0.8,0,-0,0.6
1697352251.59,0.16,0.12,1.34,0,1.5,7.4,0.8,0,-0,0.6
1697352251.6,0.18,0.18,0.67,-0.7,0.7,7.4,0.8,0,-0,0.6
1697352251.61,0.08,0.21,1.23,-1,0.5,7.4,0.8,0,-0,0.6
1697352251.62,0.04,0.1,0.86,-0.9,0.5,6.9,0.8,-0,-0,0.6
1697352251.63,0.01,0.15,1.14,-1.3,0.8,6.4,0.8,-0,-0,0.6
1697352251.64,0.01,0.22,1.14,-1.9,1.1,5.5,0.8,-0,-0,0.6
1697352251.65,0.29,0.18,0.74,-1.5,1.2,5.1,0.8,-0,-0,0.6
1697352251.66,0.11,0.24,1.04,-0.5,0.9,5,0.8,-0,-0,0.6
1697352251.67,0.17,0.13,1.4,0.5,0.2,5.4,0.8,-0,-0,0.6
1697352251.68,0.47,0.1,0.68,1.6,-0.6,5.6,0.8,-0,-0,0.6
1697352251.69,0.11,0.05,1.27,1,-1.5,5.9,0.8,-0,-0,0.6
1697352251.7,0.26,0.05,1.02,-0.5,-2.4,6.2,0.8,-0,-0,0.61
1697352251.71,0.26,0.05,1.02,-0.5,-2.4,6.2,0.8,-0,-0,0.61
1697352251.72,0.09,0.12,1.08,-0.3,-2.9,7.2,0.79,0,-0,0.61
1697352251.73,-0,0.11,0.89,-0.3,-2.9,7.2,0.79,0,-0,0.61
1697352251.74,-0.01,0.11,1,1.2,-1.1,7.9,0.79,0,-0,0.61
1697352251.75,0.18,0.09,1.05,1.5,0,8.4,0.79,0,-0,0.61
1697352251.76,0.14,0.13,0.79,1.5,0,8.4,0.79,0,-0,0.61
1697352251.77,0.12,0.26,0.94,0.9,1.6,9.6,0.79,0,-0,0.61
1697352251.78,0.12,0.26,0.94,0.9,1.6,9.6,0.79,0,-0,0.61
1697352251.79,0.12,0.26,0.94,0.9,1.6,9.6,0.79,0,-0,0.61
1697352251.8,0.12,0.26,0.94,0.9,1.6,9.6,0.79,0,-0,0.61
1697352251.81,0.12,0.26,0.94,0.9,1.6,9.6,0.79,0,-0,0.61
1697352251.82,0.12,0.26,0.94,0.9,1.6,9.6,0.79,0,-0,0.61
1697352251.83,0.12,0.26,0.94,0.9,1.6,9.6,0.79,0,-0,0.61
1697352251.84,0.12,0.26,0.94,0.9,1.6,9.6,0.79,0,-0,0.61
1697352251.85,0.12,0.26,0.94,0.9,1.6,9.6,0.79,0,-0,0.61
1697352251.86,0.12,0.26,0.94,0.9,1.6,9.6,0.79,0,-0,0.61
1697352251.87,0.12,0.26,0.94,0.9,1.6,9.6,0.79,0,-0,0.61
1697352251.88,0.12,0.26,0.94,0.9,1.6,9.6,0.79,0,-0,0.61
1697352251.89,0.12,0.26,0.94,0.9,1.6,9.6,0.79,0,-0,0.61
1697352251.9,0.12,0.26,0.94,0.9,1.6,9.6,0.79,0,-0,0.61
1697352251.91,0.12,0.26,0.94,0.9,1.6,9.6,0.79,0,-0,0.61
1697352251.92,0.04,0.43,0.88,1.3,0.8,27.8,0.78,0,0,0.63
1697352251.93,-0.02,0.5,1.17,0,1.4,27.6,0.77,0,0,0.63
1697352251.94,-0.01,0.61,1.03,0.9,2.2,28,0.77,0,0,0.63
1697352251.95,0.02,0.65,0.64,1.8,2.3,28.6,0.77,0,0,0.64
1697352251.96,-0.09,0.7,1.31,2.3,1.6,29.2,0.77,0,0,0.64
1697352251.97,0.1,0.57,1.09,2.6,0.7,29.8,0.77,0,0,0.64
1697352251.98,0.02,0.55,0.79,1.6,-0.2,30,0.77,0,0,0.64
1697352251.99,-0.08,0.51,1.35,0.1,-0.9,29.6,0.76,0,0,0.64
1697352252,0.31,0.58,0.62,0.2,-1.5,29.1,0.76,0,0,0.65
1697352252.01,0.03,0.53,1.2,0.5,-2.4,28.6,0.76,0,0,0.65
1697352252.02,0.04,0.6,1.02,0.2,-2.4,28.6,0.76,0,0,0.65
1697352252.03,0.2,0.41,0.67,-0.4,-1.8,27.8,0.76,0,0,0.65
1697352252.04,0.1,0.53,0.8,-1.2,-0.5,28.2,0.76,0,0,0.65
1697352252.05,-0.09,0.54,1.09,-0.3,0.6,28.1,0.75,0,0,0.66
1697352252.06,-0.06,0.49,1.18,-0.2,1.5,28.6,0.75,0,0,0.66
1697352252.07,0.17,0.5,0.54,0,2.5,28.9,0.75,0,0,0.66
1697352252.08,-0.01,0.41,1.02,-0.4,2.5,29,0.75,0,0,0.66
1697352252.09,0.02,0.41,1.09,-1.6,2.6,29.3,0.75,0,0,0.66
1697352252.1,0.08,0.52,0.68,-1.3,2.2,29.6,0.75,0,0,0.66
1697352252.11,-0.03,0.53,1.43,-1.3,2.2,29.6,0.75,0,0,0.67
1697352252.12,0.25,0.49,0.75,1.2,0.5,28.9,0.74,0,0,0.67
1697352252.13,0.25,0.49,0.75,1.2,0.5,28.9,0.74,0,0,0.67
1697352252.14,0.25,0.38,0.71,2.5,-0.6,28.2,0.74,0,0,0.67
1697352252.15,0.25,0.38,0.71,2.5,-0.6,28.2,0.74,0,0,0.67
1697352252.16,0.01,0.44,1.16,1.3,-1.2,27.4,0.74,0,0,0.68
1697352252.17,0.15,0.28,0.97,1,-1.4,26.4,0.74,0,0,0.68
1697352252.18,-0.06,0.42,1.24,-1.4,-1.7,24.1,0.73,0,0,0.68
1697352252.19,-0.06,0.42,1.24,-1.4,-1.7,24.1,0.73,0,0,0.68
1697352252.2,0.12,0.64,0.7,-3.3,-2,24.2,0.73,0,0,0.68
1697352252.21,0.12,0.64,0.7,-3.3,-2,24.2,0.73,0,0,0.68
1697352252.22,0.08,0.41,1.03,2,-1.9,24.2,0.73,0,0,0.68
1697352252.23,0.08,0.41,1.03,2,-1.9,24.2,0.73,0,0,0.69
1697352252.24,-0.06,0.21,1.32,1.2,-1.2,24.2,0.73,0,0,0.69
1697352252.25,0.17,0.32,0.5,-3.3,0.3,23.9,0.72,0,0,0.69
1697352252.26,-0.19,0.54,1.31,-2.6,1.1,24.4,0.72,0,0,0.69
1697352252.27,0.18,0.53,0.88,-0.3,2.1,25.4,0.72,0,0,0.69
1697352252.28,-0.02,0.52,0.72,2.3,2.4,25.9,0.72,0,0,0.69
1697352252.29,-0.08,0.4,1.19,3.1,2.2,26,0.72,0,0,0.7
1697352252.3,0.05,0.33,1.13,2.3,1.6,25.6,0.72,0,0,0.7
1697352252.31,0.05,0.33,1.13,2.3,1.6,25.6,0.72,0,0,0.7
1697352252.32,0.05,0.33,1.13,2.3,1.6,25.6,0.72,0,0,0.7
1697352252.33,0.05,0.33,1.13,2.3,1.6,25.6,0.72,0,0,0.7
1697352252.34,0.05,0.33,1.13,2.3,1.6,25.6,0.72,0,0,0.7
1697352252.35,0.05,0.33,1.13,2.3,1.6,25.6,0.72,0,0,0.7
1697352252.36,0.05,0.33,1.13,2.3,1.6,25.6,0.72,0,0,0.7
1697352252.37,0.05,0.33,1.13,2.3,1.6,25.6,0.72,0,0,0.7
1697352252.38,0.05,0.33,1.13,2.3,1.6,25.6,0.72,0,0,0.7
1697352252.39,0.05,0.33,1.13,2.3,1.6,25.6,0.72,0,0,0.7
1697352252.4,0.05,0.33,1.13,2.3,1.6,25.6,0.72,0,0,0.7
1697352252.41,0.05,0.33,1.13,2.3,1.6,25.6,0.72,0,0,0.7
1697352252.42,0.05,0.33,1.13,2.3,1.6,25.6,0.72,0,0,0.7
1697352252.43,0.05,0.33,1.13,2.3,1.6,25.6,0.72,0,0,0.7
1697352252.44,0.05,0.33,1.13,2.3,1.6,25.6,0.72,0,0,0.7
1697352252.45,0.07,0.23,1.08,-5.4,-1.1,18,0.69,0,0,0.72
1697352252.46,0.24,0.4,0.71,-6.2,-2.6,17.1,0.69,0,0,0.72
1697352252.47,-0,0.42,1.11,-5,-4.1,16.2,0.69,0,0,0.72
1697352252.48,0.03,0.39,0.95,-1.2,-4.6,15.4,0.69,0,0,0.72
1697352252.49,-0.06,0.31,1.41,1.8,-3.9,14.9,0.69,0,0,0.72
1697352252.5,0.21,-0.02,0.77,2.2,-2.7,14,0.69,0,0,0.72
1697352252.51,-0.08,-0.1,1.13,2.2,-2.7,14,0.69,0,0,0.72
1697352252.52,-0.11,-0.21,1.35,0.1,-1.5,12.9,0.69,0,0,0.73
1697352252.53,-0.11,-0.21,1.35,-2.3,-0.3,11.6,0.69,0,0,0.73
1697352252.54,-0.13,-0.09,1.45,-4.8,0.5,10.7,0.69,0,0,0.73
1697352252.55,-0.14,0.18,1.21,-4.9,0.4,10.6,0.69,0,0,0.73
1697352252.56,0.24,0.32,0.79,-2.7,0.7,10,0.69,0,0,0.73
1697352252.57,-0.03,0.21,1.13,1.3,0.7,10,0.68,0,0,0.73
1697352252.58,-0.05,0.1,1.08,4,0.5,10.3,0.68,0,0,0.73
1697352252.59,0.26,0.02,0.62,4.3,0,10.9,0.68,0,0,0.73
1697352252.6,0.17,0,0.88,1.9,-0.7,11.1,0.68,0,0,0.73
1697352252.61,-0.12,0.16,1.23,-2.2,-1.6,11,0.68,0,0,0.73
1697352252.62,0.03,0.33,0.93,-4.7,-2.8,11,0.68,0,-0,0.73
1697352252.63,-0.19,0.39,1.39,-2.9,-3.1,11.2,0.68,0,-0,0.73
1697352252.64,0.23,0.24,0.76,-0.4,-2.5,11.2,0.68,0,-0,0.73
1697352252.65,0,0.23,0.85,1.4,-1.5,10.9,0.68,0,-0,0.73
1697352252.66,-0.21,0.14,1.4,1.3,-0.9,10.2,0.68,0,-0,0.73
1697352252.67,0.23,0.04,0.75,-0.5,-0.1,9.8,0.68,0,-0,0.74
1697352252.68,-0,0.2,1.08,-1.9,0.6,9.3,0.68,0,-0,0.74
1697352252.69,-0.07,0.2,1.27,-2.5,1.6,9,0.68,0,-0,0.74
1697352252.7,0.08,0.28,0.93,-2.4,3.2,8.9,0.68,0,-0,0.74
1697352252.71,-0.09,0.23,1.19,0.5,2.8,9,0.67,0,-0,0.74
1697352252.72,0.13,0.09,0.98,-0.5,2.4,8.9,0.67,0,-0,0.74
1697352252.73,0.13,0.1,0.99,-1,1.8,8.8,0.67,0,-0,0.74
1697352252.74,-0.06,0.18,1.23,-1,1.8,8.8,0.67,0,-0,0.74
1697352252.75,-0.03,0.16,1.09,-1.6,0.6,8.5,0.67,0,-0,0.74
1697352252.76,-0.03,0.16,1.09,-1.6,0.6,8.5,0.67,0,-0,0.74
1697352252.77,0.1,0.19,0.84,0,-0.4,7.9,0.67,0,-0,0.74
1697352252.78,0.1,0.19,0.84,0,-0.4,7.9,0.67,0,-0,0.74
1697352252.79,-0.07,0.13,1.37,-0.5,-1.7,7.6,0.67,0,-0,0.74
1697352252.8,-0.07,0.13,1.37,-0.5,-1.7,7.6,0.67,0,-0,0.74
1697352252.81,0.09,0.15,0.85,-1.3,-1.9,7.7,0.67,0,-0,0.74
1697352252.82,0.09,0.15,0.85,-2.4,-1.1,8.4,0.67,0,-0,0.74
1697352252.83,-0.11,0.2,1.18,-1.7,-0.2,9.1,0.67,0,-0,0.74
1697352252.84,-0.11,0.2,1.18,-1.7,-0.2,9.1,0.67,0,-0,0.74
1697352252.85,-0.11,0.2,1.18,-1.7,-0.2,9.1,0.67,0,-0,0.74
1697352252.86,-0.11,0.2,1.18,-1.7,-0.2,9.1,0.67,0,-0,0.74
1697352252.87,-0.11,0.2,1.18,-1.7,-0.2,9.1,0.67,0,-0,0.74
1697352252.88,-0.11,0.2,1.18,-1.7,-0.2,9.1,0.67,0,-0,0.74
1697352252.89,-0.11,0.2,1.18,-1.7,-0.2,9.1,0.67,0,-0,0.74
1697352252.9,-0.11,0.2,1.18,-1.7,-0.2,9.1,0.67,0,-0,0.74
1697352252.91,-0.11,0.2,1.18,-1.7,-0.2,9.1,0.67,0,-0,0.74
1697352252.92,-0.11,0.2,1.18,-1.7,-0.2,9.1,0.67,0,-0,0.74
1697352252.93,-0.11,0.2,1.18,-1.7,-0.2,9.1,0.67,0,-0,0.74
1697352252.94,-0.11,0.2,1.18,-1.7,-0.2,9.1,0.67,0,-0,0.74
1697352252.95,-0.11,0.2,1.18,-1.7,-0.2,9.1,0.67,0,-0,0.74
1697352252.96,-0.11,0.2,1.18,-1.7,-0.2,9.1,0.67,0,-0,0.74
1697352252.97,-0.11,0.2,1.18,-1.7,-0.2,9.1,0.67,0,-0,0.74
1697352252.98,-0.11,0.2,1.18,-1.7,-0.2,9.1,0.67,0,-0,0.74
1697352252.99,-0.11,0.2,1.18,-1.7,-0.2,9.1,0.67,0,-0,0.74
1697352253,-0.11,0.2,1.18,-1.7,-0.2,9.1,0.67,0,-0,0.74
1697352253.01,-0.11,0.2,1.18,-1.7,-0.2,9.1,0.67,0,-0,0.74
1697352253.02,-0.11,0.2,1.18,-1.7,-0.2,9.1,0.67,0,-0,0.74
1697352253.03,-0.11,0.2,1.18,-1.7,-0.2,9.1,0.67,0,-0,0.74
1697352253.04,-0.11,0.2,1.18,-1.7,-0.2,9.1,0.67,0,-0,0.74
1697352253.05,-0.11,0.2,1.18,-1.7,-0.2,9.1,0.67,0,-0,0.74
1697352253.06,-0.11,0.2,1.18,-1.7,-0.2,9.1,0.67,0,-0,0.74
1697352253.07,-0.11,0.2,1.18,-1.7,-0.2,9.1,0.67,0,-0,0.74
1697352253.08,-0.11,0.2,1.18,-1.7,-0.2,9.1,0.67,0,-0,0.74
1697352253.09,-0.11,0.2,1.18,-1.7,-0.2,9.1,0.67,0,-0,0.74
1697352253.1,-0.11,0.2,1.18,-1.7,-0.2,9.1,0.67,0,-0,0.74
1697352253.11,-0.11,0.2,1.18,-1.7,-0.2,9.1,0.67,0,-0,0.74
1697352253.12,-0.11,0.2,1.18,-1.7,-0.2,9.1,0.67,0,-0,0.74
1697352253.13,-0.11,0.2,1.18,-1.7,-0.2,9.1,0.67,0,-0,0.74
1697352253.14,-0.11,0.2,1.18,-1.7,-0.2,9.1,0.67,0,-0,0.74
1697352253.15,-0.11,0.2,1.18,-1.7,-0.2,9.1,0.67,0,-0,0.74
1697352253.16,-0.11,0.2,1.18,-1.7,-0.2,9.1,0.67,0,-0,0.74
1697352253.17,-0.11,0.2,1.18,-1.7,-0.2,9.1,0.67,0,-0,0.74
1697352253.18,-0.11,0.2,1.18,-1.7,-0.2,9.1,0.67,0,-0,0.74
1697352253.19,-0.11,0.2,1.18,-1.7,-0.2,9.1,0.67,0,-0,0.74
1697352253.2,-0.11,0.2,1.18,-1.7,-0.2,9.1,0.67,0,-0,0.74
1697352253.21,-0.11,0.2,1.18,-1.7,-0.2,9.1,0.67,0,-0,0.74
1697352253.22,-0.11,0.2,1.18,-1.7,-0.2,9.1,0.67,0,-0,0.74
1697352253.23,-0.11,0.2,1.18,-1.7,-0.2,9.1,0.67,0,-0,0.74
1697352253.24,-0.11,0.2,1.18,-1.7,-0.2,9.1,0.67,0,-0,0.74
1697352253.25,-0.11,0.2,1.18,-1.7,-0.2,9.1,0.67,0,-0,0.74
1697352253.26,-0.11,0.2,1.18,-1.7,-0.2,9.1,0.67,0,-0,0.74
1697352253.27,-0.11,0.2,1.18,-1.7,-0.2,9.1,0.67,0,-0,0.74
1697352253.28,-0.11,0.2,1.18,-1.7,-0.2,9.1,0.67,0,-0,0.74
1697352253.29,-0.11,0.2,1.18,-1.7,-0.2,9.1,0.67,0,-0,0.74
1697352253.3,-0.11,0.2,1.18,-1.7,-0.2,9.1,0.67,0,-0,0.74
1697352253.31,-0.11,0.2,1.18,-1.7,-0.2,9.1,0.67,0,-0,0.74
1697352253.32,-0.11,0.2,1.18,-1.7,-0.2,9.1,0.67,0,-0,0.74
1697352253.33,-0.11,0.2,1.18,-1.7,-0.2,9.1,0.67,0,-0,0.74
1697352253.34,-0.11,0.2,1.18,-1.7,-0.2,9.1,0.67,0,-0,0.74
1697352253.35,-0.11,0.2,1.18,-1.7,-0.2,9.1,0.67,0,-0,0.74
1697352253.36,-0.11,0.2,1.18,-1.7,-0.2,9.1,0.67,0,-0,0.74
1697352253.37,-0.11,0.2,1.18,-1.7,-0.2,9.1,0.67,0,-0,0.74
1697352253.38,-0.11,0.2,1.18,-1.7,-0.2,9.1,0.67,0,-0,0.74
1697352253.39,-0.11,0.2,1.18,-1.7,-0.2,9.1,0.67,0,-0,0.74
1697352253.4,-0.11,0.2,1.18,-1.7,-0.2,9.1,0.67,0,-0,0.74
1697352253.41,-0.11,0.2,1.18,-1.7,-0.2,9.1,0.67,0,-0,0.74
1697352253.42,-0.11,0.2,1.18,-1.7,-0.2,9.1,0.67,0,-0,0.74
1697352253.43,-0.11,0.2,1.18,-1.7,-0.2,9.1,0.67,0,-0,0.74
1697352253.44,-0.11,0.2,1.18,-1.7,-0.2,9.1,0.67,0,-0,0.74
1697352253.45,-0.11,0.2,1.18,-1.7,-0.2,9.1,0.67,0,-0,0.74
1697352253.46,-0.11,0.2,1.18,-1.7,-0.2,9.1,0.67,0,-0,0.74
1697352253.47,-0.11,0.2,1.18,-1.7,-0.2,9.1,0.67,0,-0,0.74
1697352253.48,-0.11,0.2,1.18,-1.7,-0.2,9.1,0.67,0,-0,0.74
1697352253.49,-0.11,0.2,1.18,-1.7,-0.2,9.1,0.67,0,-0,0.74
1697352253.5,-0.11,0.2,1.18,-1.7,-0.2,9.1,0.67,0,-0,0.74
1697352253.51,-0.11,0.2,1.18,-1.7,-0.2,9.1,0.67,0,-0,0.74
1697352253.52,-0.11,0.2,1.18,-1.7,-0.2,9.1,0.67,0,-0,0.74
1697352253.53,-0.11,0.2,1.18,-1.7,-0.2,9.1,0.67,0,-0,0.74
1697352253.54,-0.11,0.2,1.18,-1.7,-0.2,9.1,0.67,0,-0,0.74
1697352253.55,-0.11,0.2,1.18,-1.7,-0.2,9.1,0.67,0,-0,0.74
1697352253.56,-0.11,0.2,1.18,-1.7,-0.2,9.1,0.67,0,-0,0.74
1697352253.57,-0.11,0.2,1.18,-1.7,-0.2,9.1,0.67,0,-0,0.74
1697352253.58,-0.11,0.2,1.18,-1.7,-0.2,9.1,0.67,0,-0,0.74
1697352253.59,-0.11,0.2,1.18,-1.7,-0.2,9.1,0.67,0,-0,0.74
1697352253.6,-0.11,0.2,1.18,-1.7,-0.2,9.1,0.67,0,-0,0.74
1697352253.61,-0.11,0.2,1.18,-1.7,-0.2,9.1,0.67,0,-0,0.74
1697352253.62,-0.11,0.2,1.18,-1.7,-0.2,9.1,0.67,0,-0,0.74
1697352253.63,-0.11,0.2,1.18,-1.7,-0.2,9.1,0.67,0,-0,0.74
1697352253.64,-0.11,0.2,1.18,-1.7,-0.2,9.1,0.67,0,-0,0.74
1697352253.65,-0.11,0.2,1.18,-1.7,-0.2,9.1,0.67,0,-0,0.74
1697352253.66,-0.11,0.2,1.18,-1.7,-0.2,9.1,0.67,0,-0,0.74
1697352253.67,0.02,0.11,1.05,0.5,0,-1.2,0.69,0,-0.01,0.73
1697352253.68,0.11,-0.01,0.89,1,-1,-1.5,0.69,0,-0.01,0.73
1697352253.69,-0.16,0.14,1.15,1.9,-1.4,-1.5,0.69,0,-0.01,0.72
1697352253.7,0.07,-0.01,0.9,2.7,-1.6,-1.4,0.69,0,-0.01,0.72
1697352253.71,0.12,-0.21,0.92,0.6,-1.4,-1.6,0.69,0,-0.01,0.72
1697352253.72,-0.05,-0.06,1.06,-2.2,-1.1,-1.9,0.69,0,-0.01,0.72
1697352253.73,-0.14,-0,1.16,-2.7,-0.3,-1.6,0.69,0,-0.01,0.72
1697352253.74,0.03,0.09,1.21,0.2,0.7,-1.5,0.69,0,-0.01,0.72
1697352253.75,0.06,0.16,0.97,3.6,1.9,-0.6,0.69,0,-0.01,0.72
1697352253.76,0.01,-0.13,1.13,3.7,2.6,-0.4,0.69,0,-0.01,0.72
1697352253.77,-0.08,-0.15,1.07,1.3,2.9,-0.4,0.69,0,-0.01,0.72
1697352253.78,-0.02,-0.15,1,-2.8,2.6,-0.1,0.69,0,-0,0.72
1697352253.79,0.06,0.14,0.86,-1.7,1.8,0.2,0.69,0,-0,0.72
1697352253.8,0.06,0.21,0.89,1.4,0.7,0.6,0.69,0,-0,0.72
1697352253.81,0.06,0.21,0.89,1.4,0.7,0.6,0.69,0,-0,0.72
1697352253.82,0.18,-0.01,1.01,2.6,-2,1.4,0.69,0,-0,0.72
1697352253.83,0.18,-0.01,1.01,2.6,-2,1.4,0.69,0,-0,0.72
1697352253.84,-0.07,0.03,0.99,-0.9,-4,1,0.69,0,-0.01,0.72
1697352253.85,-0.07,0.03,0.99,-0.9,-4,1,0.69,0,-0.01,0.72
1697352253.86,0.06,0.05,1.11,-1,-2.6,1.3,0.69,0,-0.01,0.72
1697352253.87,-0.09,0.13,1.13,-1,-2.6,1.3,0.69,0,-0.01,0.72
1697352253.88,-0.04,0.12,1.13,0.8,0.7,1.8,0.69,0,-0.01,0.72
1697352253.89,0.04,0.08,1.1,2.2,2,1.8,0.69,0,-0.01,0.72
1697352253.9,-0.07,0.02,1.09,1.7,2.7,1.7,0.69,0,-0,0.73
1697352253.91,-0.07,0.02,1.09,1.7,2.7,1.7,0.69,0,-0,0.73
1697352253.92,0.16,-0.02,0.97,-0.1,3,1.7,0.69,0,-0,0.73
1697352253.93,0.16,-0.02,0.97,-1.6,2.4,1.8,0.69,0,-0,0.73
1697352253.94,-0.01,0.1,1.08,0.9,0.6,1.9,0.69,0,-0,0.73
1697352253.95,0.06,0.06,0.9,1.1,-0.2,1.7,0.69,0,-0,0.73
1697352253.96,0.06,0.06,0.9,1.1,-0.2,1.7,0.69,0,-0,0.73
1697352253.97,0.15,-0.02,0.95,0.7,-1.4,1.5,0.69,0,-0,0.73
1697352253.98,-0.01,-0.05,0.97,-0.1,-2.2,1.4,0.69,0,-0,0.73
1697352253.99,-0.03,0.02,0.9,-0.5,-2.6,0.7,0.69,0,-0,0.73
1697352254,0.19,0.17,0.93,-0.3,-2.2,1.2,0.69,0,-0,0.73
1697352254.01,-0.08,0.06,1.43,0,-2.2,1.2,0.69,0,-0,0.73
1697352254.02,-0.09,0.07,1.11,-0.1,-1.5,1.1,0.69,0,-0,0.73
1697352254.03,-0.01,0.02,0.74,-0.1,-0.7,1,0.69,0,-0,0.73
1697352254.04,0.04,-0.08,0.86,-0.3,0,1.2,0.69,0,-0,0.73
1697352254.05,-0,-0.01,0.9,-0.7,1.4,1.5,0.69,0,-0,0.73
1697352254.06,0.01,0.03,1.02,-0.7,1.4,1.5,0.69,0,-0,0.73
1697352254.07,0.01,0.03,1.02,-0.7,1.4,1.5,0.69,0,-0,0.73
1697352254.08,0.01,0.03,1.02,-0.7,1.4,1.5,0.69,0,-0,0.73
1697352254.09,0.01,0.03,1.02,-0.7,1.4,1.5,0.69,0,-0,0.73
1697352254.1,0.01,0.03,1.02,-0.7,1.4,1.5,0.69,0,-0,0.73
1697352254.11,0.01,0.03,1.02,-0.7,1.4,1.5,0.69,0,-0,0.73
1697352254.12,0.01,0.03,1.02,-0.7,1.4,1.5,0.69,0,-0,0.73
1697352254.13,0.01,0.03,1.02,-0.7,1.4,1.5,0.69,0,-0,0.73
1697352254.14,0.01,0.03,1.02,-0.7,1.4,1.5,0.69,0,-0,0.73
1697352254.15,0.01,0.03,1.02,-0.7,1.4,1.5,0.69,0,-0,0.73
1697352254.16,0.01,0.03,1.02,-0.7,1.4,1.5,0.69,0,-0,0.73
1697352254.17,0.01,0.03,1.02,-0.7,1.4,1.5,0.69,0,-0,0.73
1697352254.18,0.01,0.03,1.02,-0.7,1.4,1.5,0.69,0,-0,0.73
1697352254.19,0.01,0.03,1.02,-0.7,1.4,1.5,0.69,0,-0,0.73
1697352254.2,0.01,0.03,1.02,-0.7,1.4,1.5,0.69,0,-0,0.73
1697352254.21,0.01,0.03,1.02,-0.7,1.4,1.5,0.69,0,-0,0.73
1697352254.22,0.01,0.03,1.02,-0.7,1.4,1.5,0.69,0,-0,0.73
1697352254.23,0.01,0.03,1.02,-0.7,1.4,1.5,0.69,0,-0,0.73
1697352254.24,0.01,0.03,1.02,-0.7,1.4,1.5,0.69,0,-0,0.73
1697352254.25,0.01,0.03,1.02,-0.7,1.4,1.5,0.69,0,-0,0.73
1697352254.26,0.01,0.03,1.02,-0.7,1.4,1.5,0.69,0,-0,0.73
1697352254.27,0.01,0.03,1.02,-0.7,1.4,1.5,0.69,0,-0,0.73
1697352254.28,0.01,0.03,1.02,-0.7,1.4,1.5,0.69,0,-0,0.73
1697352254.29,0.01,0.03,1.02,-0.7,1.4,1.5,0.69,0,-0,0.73
1697352254.3,0.01,0.03,1.02,-0.7,1.4,1.5,0.69,0,-0,0.73
1697352254.31,0.01,0.03,1.02,-0.7,1.4,1.5,0.69,0,-0,0.73
1697352254.32,0.01,0.03,1.02,-0.7,1.4,1.5,0.69,0,-0,0.73
1697352254.33,0.01,0.03,1.02,-0.7,1.4,1.5,0.69,0,-0,0.73
1697352254.34,0.01,0.03,1.02,-0.7,1.4,1.5,0.69,0,-0,0.73
1697352254.35,0.01,0.03,1.02,-0.7,1.4,1.5,0.69,0,-0,0.73
1697352254.36,0.01,0.03,1.02,-0.7,1.4,1.5,0.69,0,-0,0.73
1697352254.37,0.01,0.03,1.02,-0.7,1.4,1.5,0.69,0,-0,0.73
1697352254.38,0.01,0.03,1.02,-0.7,1.4,1.5,0.69,0,-0,0.73
1697352254.39,0.01,0.03,1.02,-0.7,1.4,1.5,0.69,0,-0,0.73
1697352254.4,0.01,0.03,1.02,-0.7,1.4,1.5,0.69,0,-0,0.73
1697352254.41,0.01,0.03,1.02,-0.7,1.4,1.5,0.69,0,-0,0.73
1697352254.42,0.01,0.03,1.02,-0.7,1.4,1.5,0.69,0,-0,0.73
1697352254.43,0.01,0.03,1.02,-0.7,1.4,1.5,0.69,0,-0,0.73
1697352254.44,0.01,0.03,1.02,-0.7,1.4,1.5,0.69,0,-0,0.73
1697352254.45,0.01,0.03,1.02,-0.7,1.4,1.5,0.69,0,-0,0.73
1697352254.46,0.01,0.03,1.02,-0.7,1.4,1.5,0.69,0,-0,0.73
1697352254.47,0.01,0.03,1.02,-0.7,1.4,1.5,0.69,0,-0,0.73
1697352254.48,0.01,0.03,1.02,-0.7,1.4,1.5,0.69,0,-0,0.73
1697352254.49,0.01,0.03,1.02,-0.7,1.4,1.5,0.69,0,-0,0.73
1697352254.5,0.01,0.03,1.02,-0.7,1.4,1.5,0.69,0,-0,0.73
1697352254.51,0.01,0.03,1.02,-0.7,1.4,1.5,0.69,0,-0,0.73
1697352254.52,0.01,0.03,1.02,-0.7,1.4,1.5,0.69,0,-0,0.73
1697352254.53,0.01,0.03,1.02,-0.7,1.4,1.5,0.69,0,-0,0.73
1697352254.54,0.01,0.03,1.02,-0.7,1.4,1.5,0.69,0,-0,0.73
1697352254.55,0.01,0.03,1.02,-0.7,1.4,1.5,0.69,0,-0,0.73
1697352254.56,0.01,0.03,1.02,-0.7,1.4,1.5,0.69,0,-0,0.73
1697352254.57,0.01,0.03,1.02,-0.7,1.4,1.5,0.69,0,-0,0.73
1697352254.58,0.01,0.03,1.02,-0.7,1.4,1.5,0.69,0,-0,0.73
1697352254.59,0.01,0.03,1.02,-0.7,1.4,1.5,0.69,0,-0,0.73
1697352254.6,0.01,0.03,1.02,-0.7,1.4,1.5,0.69,0,-0,0.73
1697352254.61,0.01,0.03,1.02,-0.7,1.4,1.5,0.69,0,-0,0.73
1697352254.62,0.01,0.03,1.02,-0.7,1.4,1.5,0.69,0,-0,0.73
1697352254.63,0.01,0.03,1.02,-0.7,1.4,1.5,0.69,0,-0,0.73
1697352254.64,0.01,0.03,1.02,-0.7,1.4,1.5,0.69,0,-0,0.73
1697352254.65,0.01,0.03,1.02,-0.7,1.4,1.5,0.69,0,-0,0.73
1697352254.66,0.01,0.03,1.02,-0.7,1.4,1.5,0.69,0,-0,0.73
1697352254.67,0,0.04,1.03,-1.6,1.6,-0.7,0.69,0,-0,0.73
1697352254.68,0.01,-0.07,0.86,-2.3,0.4,-0.7,0.69,0,-0,0.73
1697352254.69,0.08,0.05,1.02,-2.8,-0.5,-0.7,0.69,0,-0,0.73
1697352254.7,0.14,0.08,0.75,-2.2,-1.5,-0.8,0.69,0,-0,0.73
1697352254.71,-0.03,0.06,0.94,-2,-2.1,-1.1,0.69,0,-0,0.73
1697352254.72,-0.07,0.06,0.96,-2,-1.7,-1.3,0.69,0,-0,0.73
1697352254.73,0.02,0.06,1.1,-1.4,-1.5,-1.2,0.69,0,-0,0.73
1697352254.74,-0.03,0.04,1.11,-0.6,-1.7,-1.3,0.69,0,-0,0.73
1697352254.75,-0.09,0.01,1.12,0.3,-1.4,-1.1,0.69,0,-0,0.73
1697352254.76,-0.07,-0.09,1.17,0.7,-0.3,-1.2,0.69,0,-0,0.73
1697352254.77,0.1,-0.15,0.71,-0.7,0.9,-1.1,0.69,0,-0,0.73
1697352254.78,-0.08,-0.11,1.09,-2.2,1.8,-1,0.69,0,-0,0.73
1697352254.79,0.03,0.05,0.89,-2.4,2.1,-1,0.69,0,-0,0.73
1697352254.8,-0.03,0.02,1.21,-0.1,2.1,-0.5,0.69,0,-0,0.73
1697352254.81,-0.12,0,1.12,1.6,1.3,-0.6,0.69,0,-0,0.73
1697352254.82,-0.12,0,1.12,1.6,1.3,-0.6,0.69,0,-0,0.73
1697352254.83,0.11,-0.13,0.8,0.4,0.2,-0.7,0.69,0,-0,0.73
1697352254.84,0.12,-0.05,0.97,-1.5,-0.7,-0.6,0.69,0,-0,0.73
1697352254.85,0.01,0.01,0.97,-2.5,-2.7,-1,0.69,0,-0,0.73
1697352254.86,0.01,0.01,0.97,-2.5,-2.7,-1,0.69,0,-0,0.73
1697352254.87,-0.08,-0.02,1.16,0.5,-2.9,-0.9,0.69,0,-0,0.73
1697352254.88,-0.08,-0.02,1.16,0.5,-2.9,-0.9,0.69,0,-0,0.73
1697352254.89,-0.09,-0.12,1.22,0.4,-1.9,-1.4,0.69,0,-0,0.73
1697352254.9,-0.09,-0.12,1.22,0,-1.2,-1.5,0.69,0,-0,0.73
1697352254.91,0.09,-0.14,1.01,-0.5,-0.5,-1.6,0.69,0,-0,0.73
1697352254.92,-0.14,-0.19,0.98,-1.2,0.8,-2.2,0.69,0,-0,0.73
1697352254.93,-0.1,-0.09,0.96,-1.5,1.7,-2.4,0.69,0,-0,0.73
1697352254.94,-0.03,-0.01,0.99,-1.2,2.5,-2.3,0.69,0,-0,0.73
1697352254.95,0.11,-0.04,0.92,0,2.8,-2.3,0.69,0,-0,0.73
1697352254.96,0.06,-0.09,0.85,0.2,3.2,-2.4,0.69,0,-0,0.73
1697352254.97,0.06,-0.07,1.08,-1.3,2.3,-2.2,0.69,0,-0,0.72
1697352254.98,0.24,-0.01,0.99,-1,0.7,-2,0.69,0,-0,0.72
1697352254.99,0.01,-0.03,1.1,-0.2,-0.7,-2,0.69,0,-0,0.72
1697352255,0.07,0.02,0.85,0.2,-2,-2,0.69,0,-0,0.72
1697352255.01,-0.02,-0.01,1.1,1.1,-3.1,-1.7,0.69,0,-0,0.72
1697352255.02,0.04,-0.1,1.06,0.7,-3.2,-1.5,0.69,0,-0.01,0.72
1697352255.03,0.1,-0.17,0.77,-0.9,-2.9,-1.8,0.69,0,-0.01,0.72
1697352255.04,-0.09,-0.01,0.82,-2,-1.4,-1.7,0.69,0,-0.01,0.72
1697352255.05,-0.18,0.07,1.09,-2,-1.4,-1.7,0.69,0,-0.01,0.72
1697352255.06,-0.09,0.01,1.02,-0.7,1.2,-1.3,0.69,0,-0.01,0.72
1697352255.07,-0.09,0.01,1.02,-0.7,1.2,-1.3,0.69,0,-0.01,0.72
1697352255.08,-0.09,0.01,1.02,-0.7,1.2,-1.3,0.69,0,-0.01,0.72
1697352255.09,-0.09,0.01,1.02,-0.7,1.2,-1.3,0.69,0,-0.01,0.72
1697352255.1,-0.09,0.01,1.02,-0.7,1.2,-1.3,0.69,0,-0.01,0.72
1697352255.11,-0.09,0.01,1.02,-0.7,1.2,-1.3,0.69,0,-0.01,0.72
1697352255.12,-0.09,0.01,1.02,-0.7,1.2,-1.3,0.69,0,-0.01,0.72
1697352255.13,-0.09,0.01,1.02,-0.7,1.2,-1.3,0.69,0,-0.01,0.72
1697352255.14,-0.09,0.01,1.02,-0.7,1.2,-1.3,0.69,0,-0.01,0.72
1697352255.15,-0.09,0.01,1.02,-0.7,1.2,-1.3,0.69,0,-0.01,0.72
1697352255.16,-0.09,0.01,1.02,-0.7,1.2,-1.3,0.69,0,-0.01,0.72
1697352255.17,-0.09,0.01,1.02,-0.7,1.2,-1.3,0.69,0,-0.01,0.72
1697352255.18,-0.09,0.01,1.02,-0.7,1.2,-1.3,0.69,0,-0.01,0.72
1697352255.19,-0.11,-0.01,1.07,-2.6,-2.4,-1.5,0.69,-0,-0.01,0.72
1697352255.2,-0.09,0.09,0.78,-2.6,-2.4,-1.5,0.69,-0,-0.01,0.72
1697352255.21,-0.06,0,1.15,-0.4,-0.7,-1.4,0.69,-0,-0.01,0.72
1697352255.22,-0.04,-0.06,0.88,0.7,0.4,-1.2,0.69,-0,-0.01,0.72
1697352255.23,-0.04,-0.06,0.88,0.7,0.4,-1.2,0.69,-0,-0.01,0.72
1697352255.24,0.04,-0.01,0.83,-1.2,3.2,-1.2,0.69,-0,-0.01,0.72
1697352255.25,-0,0.01,1.08,-1.2,3.2,-1.2,0.69,-0,-0.01,0.72
1697352255.26,-0,0.01,1.08,-1.8,2.6,-1.3,0.69,-0,-0.01,0.72
1697352255.27,-0.03,0.04,1.07,-0.5,0.5,-1.4,0.69,-0,-0.01,0.72
1697352255.28,-0.03,0.04,1.07,-0.5,0.5,-1.4,0.69,-0,-0.01,0.72
1697352255.29,0.05,0.08,1.05,1.4,-0.8,-1.7,0.69,-0,-0.01,0.72
1697352255.3,0.05,0.08,1.05,3.5,-1.9,-1.7,0.69,-0,-0,0.72
1697352255.31,-0.08,-0.1,1.01,3.1,-2.3,-1.6,0.69,-0,-0,0.72
1697352255.32,-0.09,-0.22,1.05,0.3,-2.1,-1.6,0.69,-0,-0.01,0.72
1697352255.33,0.06,-0.19,0.96,-2.2,-0.9,-1.8,0.69,-0,-0.01,0.72
1697352255.34,-0.06,-0,0.76,-2.5,0.5,-1.1,0.69,-0,-0.01,0.72
1697352255.35,-0.06,0.11,0.99,-0.2,2.3,-0.4,0.69,-0,-0.01,0.72
1697352255.36,0.06,0.12,0.96,2.6,3.6,0.1,0.69,-0,-0,0.72
1697352255.37,0.05,0.03,0.92,3.6,4.4,0.5,0.69,-0,-0,0.72
1697352255.38,-0.04,-0,0.9,2.5,4.9,1,0.69,-0,-0,0.72
1697352255.39,-0.03,-0.12,0.94,1,4.4,0.7,0.69,-0,-0,0.72
1697352255.4,0.14,-0.04,1.07,-0.5,2.9,0.7,0.69,-0,-0,0.72
1697352255.41,0.01,0.06,1.16,-0.1,0.5,0.6,0.69,-0,-0,0.72
1697352255.42,0.14,0.06,0.93,0.6,-1.4,0.6,0.69,-0,-0,0.72
1697352255.43,0.14,0.06,0.93,0.6,-1.4,0.6,0.69,-0,-0,0.72
1697352255.44,-0.05,0.06,1.18,1.7,-3.1,0.3,0.69,-0,-0,0.72
1697352255.45,-0.02,-0,0.94,1.7,-3.1,0.3,0.69,-0,-0,0.72
1697352255.46,-0.14,-0.1,1.09,-0.9,-1.6,-0.3,0.69,-0,-0,0.72
1697352255.47,-0.14,-0.1,1.09,-0.9,-1.6,-0.3,0.69,-0,-0,0.72
1697352255.48,-0.05,-0.02,0.85,-2.5,0.3,-0.3,0.69,-0,-0,0.72
1697352255.49,-0.02,0.18,0.88,-0.4,1.6,0,0.69,-0,-0,0.72
1697352255.5,0.09,0.03,0.94,2.3,2.8,0,0.69,-0,-0,0.72
1697352255.51,0.09,0.03,0.94,2.3,2.8,0,0.69,-0,-0,0.72
1697352255.52,-0.08,-0.03,1.15,2.2,1.8,0.5,0.69,-0,-0,0.72
1697352255.53,-0.08,-0.03,1.15,2.2,1.8,0.5,0.69,-0,-0,0.72
1697352255.54,0.1,-0.11,1.11,0.1,0.5,0.3,0.69,-0,-0,0.72
1697352255.55,0.07,-0.01,1.02,0.1,0.5,0.3,0.69,-0,-0,0.72
1697352255.56,0,0.04,0.84,-0.6,-0.4,0.5,0.69,-0,-0,0.72
1697352255.57,0,0.04,0.84,-0.6,-0.4,0.5,0.69,-0,-0,0.72
1697352255.58,0,0.04,0.84,-0.6,-0.4,0.5,0.69,-0,-0,0.72
1697352255.59,0,0.04,0.84,-0.6,-0.4,0.5,0.69,-0,-0,0.72
1697352255.6,0,0.04,0.84,-0.6,-0.4,0.5,0.69,-0,-0,0.72
1697352255.61,0,0.04,0.84,-0.6,-0.4,0.5,0.69,-0,-0,0.72
1697352255.62,0,0.04,0.84,-0.6,-0.4,0.5,0.69,-0,-0,0.72
1697352255.63,0,0.04,0.84,-0.6,-0.4,0.5,0.69,-0,-0,0.72
1697352255.64,0,0.04,0.84,-0.6,-0.4,0.5,0.69,-0,-0,0.72
1697352255.65,0,0.04,0.84,-0.6,-0.4,0.5,0.69,-0,-0,0.72
1697352255.66,0,0.04,0.84,-0.6,-0.4,0.5,0.69,-0,-0,0.72
1697352255.67,0,0.04,0.84,-0.6,-0.4,0.5,0.69,-0,-0,0.72
1697352255.68,0,0.04,0.84,-0.6,-0.4,0.5,0.69,-0,-0,0.72
1697352255.69,0,0.04,0.84,-0.6,-0.4,0.5,0.69,-0,-0,0.72
1697352255.7,0.07,0.32,0.95,4.7,0.7,7.2,0.69,0,0,0.72
1697352255.71,0.08,0.24,0.99,3,-0.2,9.1,0.69,0,0,0.72
1697352255.72,-0.01,0.41,1.19,1.1,-0.8,11.4,0.69,0,0,0.72
1697352255.73,-0.2,0.54,1.53,1.2,-0.7,13.9,0.69,0,0,0.73
1697352255.74,0.05,0.65,0.42,2.3,-0.6,16.3,0.69,0,0,0.73
1697352255.75,-0.05,0.81,1.04,2.8,-0.3,17.6,0.69,0,0,0.73
1697352255.76,-0.18,0.65,1.19,5,0,20.9,0.68,0,0,0.73
1697352255.77,-0.05,0.65,0.97,6.5,0.4,23.6,0.68,0,0,0.73
1697352255.78,0.02,0.74,0.69,6.4,0.5,26,0.68,0,0,0.73
1697352255.79,0.06,0.7,0.88,5.4,0.7,28.8,0.68,0,0,0.73
1697352255.8,-0.06,0.72,1.08,3.8,0.4,30.8,0.68,0,0,0.74
1697352255.81,-0.03,0.71,0.77,2,0.3,32,0.68,0,0,0.74
1697352255.82,-0.02,0.76,0.96,1.8,-0.2,33.1,0.67,0,0,0.74
1697352255.83,-0,0.7,0.95,3.3,-1.1,33.5,0.67,0,0,0.74
1697352255.84,-0.04,0.64,0.97,2.7,-1.4,33.8,0.67,0,0,0.74
1697352255.85,-0.15,0.7,1.28,1.5,-1.8,33.6,0.67,0,0,0.75
1697352255.86,-0.13,0.72,0.98,0.1,-1.9,33.1,0.66,0,0,0.75
1697352255.87,-0.01,0.71,0.96,-0.9,-1.5,32.9,0.66,0,0,0.75
1697352255.88,-0.01,0.71,0.96,-0.9,-1.5,32.9,0.66,0,0,0.75
1697352255.89,0.04,0.71,0.78,-0.4,-1.7,32.7,0.66,0,0,0.75
1697352255.9,0.01,0.73,0.96,0.3,-1.1,32.2,0.66,0,0,0.75
1697352255.91,-0.01,0.57,0.85,0.6,-0.3,32,0.66,0,0,0.76
1697352255.92,-0.17,0.59,0.96,-0.9,1.1,30.9,0.65,0,0,0.76
1697352255.93,-0.17,0.59,0.96,-0.9,1.1,30.9,0.65,0,0,0.76
1697352255.94,0.02,0.58,0.95,-1.7,2.6,30.3,0.65,0,0,0.76
1697352255.95,0.02,0.58,0.95,-1.7,2.6,30.3,0.65,0,0,0.76
1697352255.96,0.07,0.53,1.01,-1.8,2.6,30.2,0.64,0,0,0.76
1697352255.97,-0.05,0.6,1.1,-2.2,2.2,30,0.64,0,0,0.77
1697352255.98,-0.03,0.39,0.93,-2.3,1.7,29.6,0.64,0,0,0.77
1697352255.99,0.09,0.33,1.04,-3,0.4,28.8,0.64,0,0,0.77
1697352256,0.05,0.46,1,-3.6,-1,27.8,0.64,0,0,0.77
1697352256.01,0.04,0.38,0.92,-2.9,-1.5,26.8,0.64,0,0,0.77
1697352256.02,-0.03,0.44,1.01,-2.7,-1.3,25.7,0.63,0,0,0.77
1697352256.03,0.11,0.35,0.92,-1.2,-1.1,24,0.63,0,0,0.78
1697352256.04,0.05,0.38,1.29,0.3,-1,22.7,0.63,0,0,0.78
1697352256.05,0.04,0.27,1.05,0.3,-1.4,21.7,0.63,0,0,0.78
1697352256.06,-0.07,0.32,1.18,-0.3,-1.8,21,0.63,0,0,0.78
1697352256.07,-0.01,0.38,1.14,-1.1,-2.1,20.8,0.63,0,0,0.78
1697352256.08,0.04,0.54,0.97,-1.1,-2.1,20.8,0.63,0,0,0.78
1697352256.09,-0.01,0.49,0.89,-1,-1.5,21,0.62,0,0,0.78
1697352256.1,-0.01,0.49,0.89,-1,-1.5,21,0.62,0,0,0.78
1697352256.11,-0.01,0.49,0.89,-1,-1.5,21,0.62,0,0,0.78
1697352256.12,-0.01,0.49,0.89,-1,-1.5,21,0.62,0,0,0.78
1697352256.13,-0.01,0.49,0.89,-1,-1.5,21,0.62,0,0,0.78
1697352256.14,-0.01,0.49,0.89,-1,-1.5,21,0.62,0,0,0.78
1697352256.15,-0.01,0.49,0.89,-1,-1.5,21,0.62,0,0,0.78
1697352256.16,-0.01,0.49,0.89,-1,-1.5,21,0.62,0,0,0.78
1697352256.17,-0.01,0.49,0.89,-1,-1.5,21,0.62,0,0,0.78
1697352256.18,-0.01,0.49,0.89,-1,-1.5,21,0.62,0,0,0.78
1697352256.19,-0.01,0.49,0.89,-1,-1.5,21,0.62,0,0,0.78
1697352256.2,-0.01,0.49,0.89,-1,-1.5,21,0.62,0,0,0.78
1697352256.21,-0.01,0.49,0.89,-1,-1.5,21,0.62,0,0,0.78
1697352256.22,-0.01,0.49,0.89,-1,-1.5,21,0.62,0,0,0.78
1697352256.23,-0.01,0.49,0.89,-1,-1.5,21,0.6,0,0,0.8
1697352256.24,-0.12,0.52,1.04,5.1,2.8,31.2,0.59,0,0,0.81
1697352256.25,0.07,0.5,1.08,3.7,2.6,31.3,0.59,0,0,0.81
1697352256.26,0.04,0.49,1.03,1.2,1.9,31,0.59,0,0,0.81
1697352256.27,-0.05,0.51,1.17,-0.8,0.8,30.4,0.59,0,0,0.81
1697352256.28,-0.05,0.51,1.17,-0.8,0.8,30.4,0.59,0,0,0.81
1697352256.29,0.02,0.7,0.65,-4.4,-1.2,29.6,0.58,0,0,0.81
1697352256.3,-0.03,0.61,1.03,-6.7,-3.2,29.9,0.58,0,0,0.81
1697352256.31,0.07,0.53,0.78,-5,-4.6,29.9,0.58,0,0,0.81
1697352256.32,-0.14,0.11,1.17,-2,-4.7,28.5,0.58,0,-0,0.82
1697352256.33,-0.14,0.11,1.17,2.6,-4.9,25,0.57,0.01,-0,0.82
1697352256.34,0,-0,0.49,2.1,-3.5,22,0.57,0.01,-0,0.82
1697352256.35,-0.16,-0.09,0.99,-0.7,-2.6,19,0.57,0.01,-0,0.82
1697352256.36,-0.17,-0.14,1.4,-3.2,-1.9,15.8,0.57,0.01,-0,0.82
1697352256.37,-0.05,0.08,1.02,-4.2,-0.3,13.8,0.57,0.01,-0,0.82
1697352256.38,0.03,0.27,0.92,-2.9,1.2,13.4,0.57,0.01,-0,0.82
1697352256.39,0.16,0.26,1.14,1,1.5,12.6,0.57,0.01,-0,0.82
1697352256.4,0.08,-0,0.97,2.2,1.8,10.4,0.57,0.01,-0,0.82
1697352256.41,0.19,-0.36,1.03,-2.5,2.2,7.9,0.57,0.01,-0,0.82
1697352256.42,0.17,-0.56,0.93,-10.5,2.1,4.9,0.57,0,-0,0.82
1697352256.43,0.01,-0.25,1.14,-13,1.5,1.9,0.57,0,-0,0.82
1697352256.44,-0.03,0.05,1.23,-7.8,0.9,-0.7,0.57,0,-0,0.82
1697352256.45,-0.01,-0.09,1.09,-2.9,0,-2.4,0.57,0,-0,0.82
1697352256.46,0.15,-0.27,1.1,-0.1,-0.5,-4.4,0.57,0,-0,0.82
1697352256.47,0.15,-0.37,0.7,0.7,-1.3,-7,0.57,0,-0,0.82
1697352256.48,0.11,-0.45,0.88,0.7,-1.3,-7,0.57,0,-0,0.82
1697352256.49,-0.03,-0.41,1.07,-1.5,-1.2,-8.9,0.57,0,-0,0.82
1697352256.5,-0.09,-0.41,1.2,-1.5,-1.2,-8.9,0.57,0,-0,0.82
1697352256.51,0.08,-0.33,0.84,-3.3,-1.8,-9.6,0.57,0,-0,0.82
1697352256.52,0.09,-0.17,0.81,-3.3,-1.8,-9.6,0.57,0,-0,0.82
1697352256.53,0.09,-0.17,0.81,-1.3,-1.3,-8.5,0.57,0,-0,0.82
1697352256.54,0.09,-0.17,0.81,-1.3,-1.3,-8.5,0.57,0,-0,0.82
1697352256.55,0.09,-0.17,0.81,-1.3,-1.3,-8.5,0.57,0,-0,0.82
1697352256.56,0.09,-0.17,0.81,-1.3,-1.3,-8.5,0.57,0,-0,0.82
1697352256.57,0.09,-0.17,0.81,-1.3,-1.3,-8.5,0.57,0,-0,0.82
1697352256.58,0.09,-0.17,0.81,-1.3,-1.3,-8.5,0.57,0,-0,0.82
1697352256.59,0.09,-0.17,0.81,-1.3,-1.3,-8.5,0.57,0,-0,0.82
1697352256.6,0.09,-0.17,0.81,-1.3,-1.3,-8.5,0.57,0,-0,0.82
1697352256.61,0.09,-0.17,0.81,-1.3,-1.3,-8.5,0.57,0,-0,0.82
1697352256.62,0.09,-0.17,0.81,-1.3,-1.3,-8.5,0.57,0,-0,0.82
1697352256.63,0.09,-0.17,0.81,-1.3,-1.3,-8.5,0.57,0,-0,0.82
1697352256.64,0.09,-0.17,0.81,-1.3,-1.3,-8.5,0.57,0,-0,0.82
1697352256.65,0.09,-0.17,0.81,-1.3,-1.3,-8.5,0.57,0,-0,0.82
1697352256.66,0.01,-0.19,0.97,0,-1.2,-8.2,0.58,0,-0,0.82
1697352256.67,-0.08,-0.01,1.03,-1,-1.4,-8.9,0.58,0,-0,0.82
1697352256.68,0.09,-0.18,0.89,0,-0.9,-9,0.58,0,-0,0.82
1697352256.69,0.07,-0.33,1.01,1.9,-0.7,-9.7,0.58,0,-0,0.82
1697352256.7,0.08,-0.38,1.05,-1,-0.1,-10.8,0.58,0,-0,0.82
1697352256.71,0.14,-0.3,0.93,-5.7,0,-12.5,0.58,0,-0.01,0.81
1697352256.72,0.03,-0.26,1.09,-5.2,0,-13.8,0.58,0,-0.01,0.81
1697352256.73,-0.06,-0.36,1.03,-3.9,-0.3,-14.9,0.58,0,-0.01,0.81
1697352256.74,-0.07,-0.31,1.18,-3.1,-0.9,-15.4,0.58,0,-0.01,0.81
1697352256.75,0.13,-0.42,0.99,-2.2,-1.2,-16.3,0.58,0,-0.01,0.81
1697352256.76,0.07,-0.42,1.09,-0.8,-0.7,-17.4,0.59,0,-0.01,0.81
1697352256.77,0.16,-0.39,0.47,0.3,-0.1,-18.1,0.59,0,-0.01,0.81
1697352256.78,0.03,-0.54,1.1,-0.2,0.4,-19,0.59,0,-0.01,0.81
1697352256.79,-0.08,-0.69,0.95,-2.3,1.3,-20.4,0.59,0,-0.01,0.81
1697352256.8,-0.09,-0.73,1.21,-4,1.9,-22.2,0.59,0,-0.01,0.81
1697352256.81,-0.02,-0.63,0.67,-4.4,2.5,-23.4,0.59,0,-0.01,0.81
1697352256.82,-0.03,-0.61,0.96,-4.2,2.9,-24.4,0.59,0,-0.01,0.8
1697352256.83,0.18,-0.51,0.99,-4.2,2.9,-24.4,0.59,0,-0.01,0.8
1697352256.84,-0.02,-0.64,1.06,-2,1.4,-26.8,0.6,0,-0.01,0.8
1697352256.85,0.09,-0.65,0.78,-2.1,0.9,-27.4,0.6,0,-0.01,0.8
1697352256.86,0.05,-0.75,1.05,-2.6,0.1,-28,0.6,0,-0.01,0.8
1697352256.87,0.14,-0.64,0.92,-3.9,0.1,-28.6,0.6,-0,-0.01,0.8
1697352256.88,0.14,-0.64,0.92,-3.9,0.1,-28.6,0.6,-0,-0.01,0.8
1697352256.89,-0.08,-0.58,0.89,-2,0.8,-30.3,0.61,-0,-0.01,0.8
1697352256.9,-0.08,-0.58,0.89,-2,0.8,-30.3,0.61,-0,-0.01,0.79
1697352256.91,-0.04,-0.65,1.03,0.5,0.6,-30.9,0.61,-0,-0.01,0.79
1697352256.92,0.09,-0.74,0.76,0.5,0.6,-30.9,0.61,-0,-0.01,0.79
1697352256.93,0.02,-0.69,0.82,0.9,0.1,-31.1,0.62,-0,-0.01,0.79
1697352256.94,-0.06,-0.85,0.84,1.2,0,-31.3,0.62,-0,-0.01,0.79
1697352256.95,-0.14,-0.73,1.02,1.1,-0.2,-31.1,0.62,-0,-0.01,0.78
1697352256.96,-0.17,-0.6,1.05,-0.7,-0.2,-31.9,0.62,-0,-0.01,0.78
1697352256.97,-0.04,-0.52,0.57,-2.3,-0.1,-32.2,0.62,-0,-0.01,0.78
1697352256.98,0.11,-0.46,0.53,-3,0.5,-31.9,0.63,-0,-0.01,0.78
1697352256.99,-0.06,-0.51,0.97,-1.9,1.6,-31.5,0.63,-0,-0.01,0.78
1697352257,-0.11,-0.49,1.28,-1.2,3,-30.6,0.63,-0,-0.01,0.78
1697352257.01,0.1,-0.63,0.91,-0.3,3.5,-29.8,0.63,-0,-0.01,0.77
1697352257.02,-0.15,-0.63,1.2,0.9,3.5,-29.7,0.63,-0,-0.01,0.77
1697352257.03,-0.09,-0.72,1.13,0.2,3.2,-29.5,0.64,-0,-0.01,0.77
1697352257.04,-0.08,-0.81,1.04,0.8,2.7,-30.1,0.64,-0,-0.01,0.77
1697352257.05,0.11,-0.7,0.77,0.7,1.7,-30.8,0.64,-0,-0.01,0.77
1697352257.06,-0.03,-0.7,1.04,-0.3,0.8,-32,0.64,-0,-0.01,0.77
1697352257.07,-0.03,-0.7,1.04,-0.3,0.8,-32,0.64,-0,-0.01,0.77
1697352257.08,-0.03,-0.7,1.04,-0.3,0.8,-32,0.64,-0,-0.01,0.77
1697352257.09,-0.03,-0.7,1.04,-0.3,0.8,-32,0.64,-0,-0.01,0.77
1697352257.1,-0.03,-0.7,1.04,-0.3,0.8,-32,0.64,-0,-0.01,0.77
1697352257.11,-0.03,-0.7,1.04,-0.3,0.8,-32,0.64,-0,-0.01,0.77
1697352257.12,-0.03,-0.7,1.04,-0.3,0.8,-32,0.64,-0,-0.01,0.77
1697352257.13,-0.03,-0.7,1.04,-0.3,0.8,-32,0.64,-0,-0.01,0.77
1697352257.14,-0.03,-0.7,1.04,-0.3,0.8,-32,0.64,-0,-0.01,0.77
1697352257.15,-0.03,-0.7,1.04,-0.3,0.8,-32,0.64,-0,-0.01,0.77
1697352257.16,-0.03,-0.7,1.04,-0.3,0.8,-32,0.64,-0,-0.01,0.77
1697352257.17,-0.03,-0.7,1.04,-0.3,0.8,-32,0.64,-0,-0.01,0.77
1697352257.18,-0.03,-0.7,1.04,-0.3,0.8,-32,0.64,-0,-0.01,0.77
1697352257.19,-0.03,-0.7,1.04,-0.3,0.8,-32,0.64,-0,-0.01,0.77
1697352257.2,-0.16,-1.14,1.08,-2,2,-52.2,0.68,-0,-0.01,0.73
1697352257.21,-0.16,-1.14,1.08,-2,2,-52.2,0.68,-0,-0.01,0.73
1697352257.22,-0.12,-1.12,1.1,-2.5,2.3,-53.1,0.69,-0,-0.01,0.73
1697352257.23,-0.12,-1.12,1.1,-1.1,2.6,-54.7,0.69,-0,-0.01,0.72
1697352257.24,-0.18,-1.07,1.23,-0.5,2.4,-55.2,0.69,-0,-0.01,0.72
1697352257.25,-0.16,-1.12,0.51,-0.6,2.8,-55.8,0.7,-0,-0.01,0.72
1697352257.26,-0.12,-1.12,1,-0.8,3.4,-55.8,0.7,-0,-0.01,0.71
1697352257.27,-0.1,-1.17,0.92,-2.4,3.7,-55.9,0.71,-0.01,-0.01,0.71
1697352257.28,-0.13,-1.15,1.16,-3,4,-56.2,0.71,-0.01,-0.01,0.71
1697352257.29,-0.14,-1.04,1.16,-2.2,3.8,-56.2,0.71,-0.01,-0.01,0.7
1697352257.3,-0.13,-1.06,0.92,-1.9,3.6,-56.2,0.72,-0.01,-0.01,0.7
1697352257.31,-0.12,-1.11,0.71,-0.2,3.1,-56.7,0.72,-0.01,-0.01,0.69
1697352257.32,-0.16,-0.94,0.95,1.3,2.2,-56.7,0.72,-0.01,-0.01,0.69
1697352257.33,-0.21,-1.15,0.87,2.1,2,-57,0.73,-0.01,-0.01,0.69
1697352257.34,-0.14,-1.12,1.12,2.9,1.2,-56.4,0.73,-0.01,-0.01,0.68
1697352257.35,-0.01,-1.08,0.96,2.3,1.2,-55.6,0.73,-0.01,-0.01,0.68
1697352257.36,0.01,-0.98,1.01,3,1.4,-54.5,0.74,-0.01,-0.01,0.68
1697352257.37,-0.1,-0.96,0.97,3,0.8,-52.4,0.74,-0.01,-0.01,0.67
1697352257.38,0.11,-0.8,0.92,3,0.8,-52.4,0.74,-0.01,-0.01,0.67
1697352257.39,-0.09,-0.72,1.05,3,1.2,-46.8,0.75,-0.01,-0.01,0.67
1697352257.4,-0.09,-0.6,0.79,3.6,1.3,-44.3,0.75,-0.01,-0.01,0.67
1697352257.41,-0.21,-0.51,1.24,4.4,1.5,-41.4,0.75,-0.01,-0.01,0.66
1697352257.42,-0,-0.67,0.83,3.7,1.7,-38.9,0.75,-0.01,-0.01,0.66
1697352257.43,0.03,-0.62,0.67,1.6,1.8,-36.9,0.76,-0,-0.01,0.65
1697352257.44,-0.2,-0.69,1.37,0,2.3,-35.8,0.76,-0,-0.01,0.65
1697352257.45,-0.14,-0.57,1.13,-0.5,2,-34.6,0.76,-0.01,-0.01,0.65
1697352257.46,0.13,-0.43,1,1.7,1.3,-33.3,0.76,-0.01,-0.01,0.65
1697352257.47,0.13,-0.43,1,1.7,1.3,-33.3,0.76,-0.01,-0.01,0.65
1697352257.48,-0.03,-0.42,1.01,7.7,2.5,-31.7,0.76,-0,-0.01,0.65
1697352257.49,0.06,-0.5,0.8,6.6,2.9,-30.5,0.77,-0,-0.01,0.64
1697352257.5,-0.22,-0.53,1.28,4.6,2.6,-29.5,0.77,-0,-0,0.64
1697352257.51,-0.01,-0.47,0.67,2.1,1.7,-28.3,0.77,-0,-0,0.64
1697352257.52,0.06,-0.25,1.24,-0.7,0.8,-26.5,0.77,-0,-0,0.64
1697352257.53,-0.06,0.22,0.99,-0.7,0.8,-26.5,0.77,-0,-0,0.64
1697352257.54,-0.07,0.34,1.12,0.4,-0.4,-21.9,0.77,-0,-0,0.63
1697352257.55,-0.07,0.34,1.12,0.4,-0.4,-21.9,0.77,-0,-0,0.63
1697352257.56,-0.05,0.2,1.25,3.9,-1.4,-18,0.78,-0,-0,0.63
1697352257.57,-0.02,0.05,1.01,8,-2.1,-13.6,0.78,-0,-0,0.63
1697352257.58,-0.03,0.13,0.74,8.9,-2.6,-9.1,0.78,-0,-0,0.63
1697352257.59,-0.03,0.13,0.74,6.2,-2.2,-5.2,0.78,-0,-0,0.63
1697352257.6,-0.03,0.13,0.74,6.2,-2.2,-5.2,0.78,-0,-0,0.63
1697352257.61,-0.03,0.13,0.74,6.2,-2.2,-5.2,0.78,-0,-0,0.63
1697352257.62,-0.03,0.13,0.74,6.2,-2.2,-5.2,0.78,-0,-0,0.63
1697352257.63,-0.03,0.13,0.74,6.2,-2.2,-5.2,0.78,-0,-0,0.63
1697352257.64,-0.03,0.13,0.74,6.2,-2.2,-5.2,0.78,-0,-0,0.63
1697352257.65,-0.03,0.13,0.74,6.2,-2.2,-5.2,0.78,-0,-0,0.63
1697352257.66,-0.03,0.13,0.74,6.2,-2.2,-5.2,0.78,-0,-0,0.63
1697352257.67,-0.03,0.13,0.74,6.2,-2.2,-5.2,0.78,-0,-0,0.63
1697352257.68,-0.03,0.13,0.74,6.2,-2.2,-5.2,0.78,-0,-0,0.63
1697352257.69,-0.03,0.13,0.74,6.2,-2.2,-5.2,0.78,-0,-0,0.63
1697352257.7,-0.03,0.13,0.74,6.2,-2.2,-5.2,0.78,-0,-0,0.63
1697352257.71,-0.03,0.13,0.74,6.2,-2.2,-5.2,0.78,-0,-0,0.63
1697352257.72,-0.06,0.55,0.88,5,1.3,14.2,0.77,0,-0,0.63
1697352257.73,-0.04,0.97,1.08,3.3,1.4,17.2,0.77,0,-0,0.63
1697352257.74,0.12,1.46,0.81,3.4,1.8,21.8,0.77,0,-0,0.64
1697352257.75,-0.13,1.01,1.31,7.3,1,28,0.77,0,-0,0.64
1697352257.76,-0.07,0.86,1.14,10.6,-0.5,32.6,0.77,0,0,0.64
1697352257.77,-0.03,0.8,1.18,10.4,-1.1,36.3,0.77,0,0,0.64
1697352257.78,-0.07,0.8,0.8,7,-0.9,40.5,0.77,0,0,0.64
1697352257.79,-0.19,0.88,1.17,3.3,-1.4,43.3,0.76,0.01,0,0.65
1697352257.8,-0.16,1.03,1.07,2,-1.5,45.1,0.76,0.01,0,0.65
1697352257.81,-0.09,1.12,0.88,2.1,-1.9,46.9,0.76,0.01,0,0.66
1697352257.82,-0.21,1.17,1.1,3.4,-2,48.6,0.76,0.01,0,0.66
1697352257.83,-0.15,1.06,0.88,5.2,-2.6,49.7,0.75,0.01,0,0.66
1697352257.84,-0.12,0.89,0.9,5.8,-2.4,50.3,0.75,0.01,0,0.66
1697352257.85,-0.21,1.07,1.03,4,-2.4,50.2,0.75,0.01,0,0.66
1697352257.86,-0.17,0.99,0.99,0.8,-1.8,50.9,0.74,0.01,0,0.67
1697352257.87,-0.17,1.14,0.83,-1.7,-0.8,51.6,0.74,0.01,0,0.67
1697352257.88,-0.21,1.08,0.84,-2.8,-0.4,52.8,0.74,0.01,0,0.68
1697352257.89,-0.2,1.57,1.34,0,0.6,53.4,0.73,0.01,0,0.68
1697352257.9,-0.13,1.43,0.72,5.5,2,54.7,0.73,0.01,0,0.68
1697352257.91,-0.24,1.1,1.01,8,2.6,55.6,0.73,0.01,0,0.69
1697352257.92,-0.08,0.86,1.08,7.2,3.6,55.7,0.72,0.01,0,0.69
1697352257.93,-0.08,0.86,1.08,7.2,3.6,55.7,0.72,0.01,0,0.69
1697352257.94,-0.29,0.97,1.18,-1.8,4.4,55.6,0.72,0.01,0,0.7
1697352257.95,-0.14,1.24,0.9,-1.8,4.4,55.6,0.71,0.01,0,0.7
1697352257.96,-0.23,1.35,0.93,-3.8,4.5,56.2,0.71,0.01,0,0.7
1697352257.97,-0.23,1.35,0.93,-3.8,4.5,56.2,0.71,0.01,0,0.71
1697352257.98,-0.05,1.21,1.34,2.2,4,56.6,0.7,0.01,0,0.71
1697352257.99,0.03,1.05,1.05,5.2,3.1,56.8,0.7,0.01,0,0.71
1697352258,-0.1,0.9,0.99,4.7,1.7,56.7,0.7,0.01,0,0.72
1697352258.01,-0.1,0.9,0.99,1.2,0.3,56.5,0.69,0.01,0,0.72
1697352258.02,0.03,0.95,1.12,-2.3,-0.9,56.3,0.69,0.01,0,0.72
1697352258.03,0.03,0.95,1.12,-3.2,-1.8,55.3,0.69,0.01,0,0.72
1697352258.04,0.01,1.09,0.69,-3.6,-1.9,54.6,0.68,0.01,0,0.73
1697352258.05,0.07,1.13,0.94,-1.9,-1.7,54.2,0.68,0.01,0,0.73
1697352258.06,-0.17,1.19,1.19,1.3,-1.4,53.6,0.67,0.01,0,0.74
1697352258.07,-0.03,1.05,1.01,3.9,-0.9,53,0.67,0.01,0,0.74
1697352258.08,0.1,0.84,0.89,3.5,0,52.6,0.67,0.01,0,0.74
1697352258.09,-0.07,0.89,0.89,0.3,0,52.1,0.67,0.01,0,0.74
1697352258.1,-0.07,0.89,0.89,0.3,0,52.1,0.67,0.01,0,0.74
1697352258.11,-0.07,0.89,0.89,0.3,0,52.1,0.67,0.01,0,0.74
1697352258.12,-0.07,0.89,0.89,0.3,0,52.1,0.67,0.01,0,0.74
1697352258.13,-0.07,0.89,0.89,0.3,0,52.1,0.67,0.01,0,0.74
1697352258.14,-0.07,0.89,0.89,0.3,0,52.1,0.67,0.01,0,0.74
1697352258.15,-0.07,0.89,0.89,0.3,0,52.1,0.67,0.01,0,0.74
1697352258.16,-0.07,0.89,0.89,0.3,0,52.1,0.67,0.01,0,0.74
1697352258.17,-0.07,0.89,0.89,0.3,0,52.1,0.67,0.01,0,0.74
1697352258.18,-0.07,0.89,0.89,0.3,0,52.1,0.67,0.01,0,0.74
1697352258.19,-0.07,0.89,0.89,0.3,0,52.1,0.67,0.01,0,0.74
1697352258.2,-0.07,0.89,0.89,0.3,0,52.1,0.67,0.01,0,0.74
1697352258.21,-0.07,0.89,0.89,0.3,0,52.1,0.67,0.01,0,0.74
1697352258.22,-0.01,1.23,0.81,-5.8,-1,56.8,0.67,0.01,0,0.74
1697352258.23,0.05,1.21,0.81,-0.4,-0.7,56,0.61,0.01,0,0.79
1697352258.24,0.05,1.21,0.81,4.8,0,55.4,0.61,0.01,0,0.79
1697352258.25,-0.06,0.98,1.21,6.2,1,54.3,0.61,0.01,0,0.79
1697352258.26,0.03,0.8,0.87,6.2,1,54.3,0.6,0.01,0,0.8
1697352258.27,0.03,0.63,0.94,-1.8,2.4,50.7,0.6,0.01,0,0.8
1697352258.28,0,0.63,0.93,-7.1,2.6,49.4,0.59,0.01,0,0.81
1697352258.29,-0.04,0.86,1.06,-8.2,2.2,47.9,0.59,0,0,0.81
1697352258.3,0.07,0.92,0.99,-8.2,2.2,47.9,0.59,0,0,0.81
1697352258.31,0.08,0.88,0.93,-4.6,2.4,46.5,0.59,0,0,0.81
1697352258.32,-0.04,0.66,1.08,-0.7,2.1,45,0.58,0,0,0.82
1697352258.33,0.07,0.42,1.02,1.9,1.9,42.6,0.58,0,0,0.82
1697352258.34,0.16,0.03,1.08,1.1,1.4,39.5,0.57,0,0,0.82
1697352258.35,-0.01,0.07,1.24,-4,1.4,35.4,0.57,0,0,0.82
1697352258.36,0.1,0.35,0.74,-9.1,0.4,30.9,0.57,0,0,0.82
1697352258.37,0,0.42,0.95,-9.1,0.4,30.9,0.57,0,0,0.82
1697352258.38,0.09,0.41,0.94,-6.6,-0.5,24.9,0.57,0,0,0.82
1697352258.39,0.09,0.17,0.98,-2.4,-0.5,22,0.56,0,0,0.83
1697352258.4,0.09,0.17,0.98,-2.4,-0.5,22,0.56,0,0,0.83
1697352258.41,0.18,-0.32,0.87,-0.3,0,18.3,0.56,0,0,0.83
1697352258.42,-0.05,-0.44,1.24,-11.9,1,7,0.56,0,0,0.83
1697352258.43,-0.05,-0.44,1.24,-11.9,1,7,0.56,0,-0,0.83
1697352258.44,0.14,-0.13,1.13,-7.9,1.9,1.3,0.56,-0,-0,0.83
1697352258.45,0.14,-0.13,1.13,-7.9,1.9,1.3,0.56,-0,-0,0.83
1697352258.46,-0.09,-0.25,1.35,-5.1,1.7,-0.9,0.56,-0,-0,0.83
1697352258.47,-0.09,-0.25,1.35,-4.3,1,-2.5,0.56,-0,-0,0.83
1697352258.48,-0.11,-0.28,1.29,-4.1,0.1,-3.3,0.56,-0,-0,0.83
1697352258.49,-0.12,-0.3,1.17,-4.2,-0.5,-3.4,0.56,-0,-0,0.83
1697352258.5,0.06,-0.26,0.81,-4.7,-0.3,-3.2,0.56,-0,-0,0.83
1697352258.51,0.16,-0.19,0.93,-3.4,-0.3,-2.6,0.56,-0,-0,0.83
1697352258.52,-0.07,-0.1,1.2,-1,-0.6,-2,0.56,-0,-0,0.83
1697352258.53,-0.17,-0.44,1.23,-0.1,-0.5,-2.5,0.56,-0,-0,0.83
1697352258.54,0.03,-0.52,0.83,-1,-0.3,-4.1,0.56,-0,-0,0.83
1697352258.55,0.18,-0.55,0.86,-2.5,-0.4,-6.4,0.56,-0,-0,0.83
1697352258.56,-0.05,-0.6,1.28,-3.1,-0.1,-9.3,0.56,-0,-0,0.83
1697352258.57,0.11,-0.47,0.9,-2.5,-0.1,-12.9,0.56,-0,-0.01,0.83
1697352258.58,-0.05,-0.44,1.2,-1,-0.1,-15.6,0.57,-0,-0.01,0.83
1697352258.59,-0.1,-0.66,1.25,-1.1,-0.2,-19,0.57,-0,-0.01,0.82
1697352258.6,-0.1,-0.84,0.97,-3.6,0.1,-22.4,0.57,-0,-0.01,0.82
1697352258.61,0.2,-0.82,0.74,-7.2,0.5,-25.9,0.57,-0,-0.01,0.82
1697352258.62,0.2,-0.82,0.74,-7.2,0.5,-25.9,0.57,-0,-0.01,0.82
1697352258.63,0.2,-0.82,0.74,-7.2,0.5,-25.9,0.57,-0,-0.01,0.82
1697352258.64,0.2,-0.82,0.74,-7.2,0.5,-25.9,0.57,-0,-0.01,0.82
1697352258.65,0.2,-0.82,0.74,-7.2,0.5,-25.9,0.57,-0,-0.01,0.82
1697352258.66,0.2,-0.82,0.74,-7.2,0.5,-25.9,0.57,-0,-0.01,0.82
1697352258.67,0.2,-0.82,0.74,-7.2,0.5,-25.9,0.57,-0,-0.01,0.82
1697352258.68,0.2,-0.82,0.74,-7.2,0.5,-25.9,0.57,-0,-0.01,0.82
1697352258.69,0.2,-0.82,0.74,-7.2,0.5,-25.9,0.57,-0,-0.01,0.82
1697352258.7,0.2,-0.82,0.74,-7.2,0.5,-25.9,0.57,-0,-0.01,0.82
1697352258.71,0.2,-0.82,0.74,-7.2,0.5,-25.9,0.57,-0,-0.01,0.82
1697352258.72,0.2,-0.82,0.74,-7.2,0.5,-25.9,0.57,-0,-0.01,0.82
1697352258.73,0.2,-0.82,0.74,-7.2,0.5,-25.9,0.57,-0,-0.01,0.82
1697352258.74,0.2,-0.82,0.74,-7.2,0.5,-25.9,0.57,-0,-0.01,0.82
1697352258.75,0.2,-0.82,0.74,-7.2,0.5,-25.9,0.57,-0,-0.01,0.82
1697352258.76,0.2,-0.82,0.74,-7.2,0.5,-25.9,0.57,-0,-0.01,0.82
1697352258.77,0.2,-0.82,0.74,-7.2,0.5,-25.9,0.57,-0,-0.01,0.82
1697352258.78,0.2,-0.82,0.74,-7.2,0.5,-25.9,0.57,-0,-0.01,0.82
1697352258.79,0.2,-0.82,0.74,-7.2,0.5,-25.9,0.57,-0,-0.01,0.82
1697352258.8,0.2,-0.82,0.74,-7.2,0.5,-25.9,0.57,-0,-0.01,0.82
1697352258.81,0.2,-0.82,0.74,-7.2,0.5,-25.9,0.57,-0,-0.01,0.82
1697352258.82,0.2,-0.82,0.74,-7.2,0.5,-25.9,0.57,-0,-0.01,0.82
1697352258.83,0.2,-0.82,0.74,-7.2,0.5,-25.9,0.57,-0,-0.01,0.82
1697352258.84,0.2,-0.82,0.74,-7.2,0.5,-25.9,0.57,-0,-0.01,0.82
1697352258.85,0.2,-0.82,0.74,-7.2,0.5,-25.9,0.57,-0,-0.01,0.82
1697352258.86,0.2,-0.82,0.74,-7.2,0.5,-25.9,0.57,-0,-0.01,0.82
1697352258.87,0.2,-0.82,0.74,-7.2,0.5,-25.9,0.57,-0,-0.01,0.82
1697352258.88,0.2,-0.82,0.74,-7.2,0.5,-25.9,0.57,-0,-0.01,0.82
1697352258.89,0.2,-0.82,0.74,-7.2,0.5,-25.9,0.57,-0,-0.01,0.82
1697352258.9,0.2,-0.82,0.74,-7.2,0.5,-25.9,0.57,-0,-0.01,0.82
1697352258.91,0.2,-0.82,0.74,-7.2,0.5,-25.9,0.57,-0,-0.01,0.82
1697352258.92,0.2,-0.82,0.74,-7.2,0.5,-25.9,0.57,-0,-0.01,0.82
1697352258.93,0.2,-0.82,0.74,-7.2,0.5,-25.9,0.57,-0,-0.01,0.82
1697352258.94,0.2,-0.82,0.74,-7.2,0.5,-25.9,0.57,-0,-0.01,0.82
1697352258.95,-0.19,-1.03,0.91,1.6,3,-57.7,0.68,-0.01,-0.01,0.73
1697352258.96,0.07,-1.19,0.91,2.5,3,-57.4,0.69,-0.01,-0.01,0.72
1697352258.97,-0.13,-1.24,1.02,2.2,2.9,-57.2,0.69,-0.01,-0.01,0.72
1697352258.98,0,-1.04,0.79,0,1,-57.6,0.69,-0.01,-0.01,0.72
1697352258.99,0.06,-1.13,1.08,-0.8,0.5,-57.6,0.7,-0.01,-0.01,0.71
1697352259,-0.3,-1.08,1.07,0,0.6,-57.9,0.7,-0.01,-0.01,0.71
1697352259.01,-0.35,-1.11,1.27,0.6,0.7,-58.1,0.71,-0.01,-0.01,0.71
1697352259.02,0.1,-1.13,0.46,1.4,0.8,-58.3,0.71,-0.01,-0.01,0.7
1697352259.03,-0.32,-1.05,1.22,1.4,0.8,-58.3,0.71,-0.01,-0.01,0.7
1697352259.04,-0.1,-1.16,0.92,2.4,2.1,-58.3,0.71,-0.01,-0.01,0.7
1697352259.05,-0.31,-1.25,1.22,2.4,2.1,-58.3,0.72,-0.01,-0.01,0.7
1697352259.06,-0.17,-1.2,0.9,0.8,2.4,-58,0.72,-0.01,-0.01,0.69
1697352259.07,0.01,-1.21,0.67,-2.9,2.8,-58.1,0.73,-0.01,-0.01,0.69
1697352259.08,0.01,-1.21,0.67,-2.9,2.8,-58.1,0.73,-0.01,-0.01,0.68
1697352259.09,0.07,-0.91,0.99,-2.3,1.2,-57.1,0.73,-0.01,-0.01,0.68
1697352259.1,0.07,-0.91,0.99,-2.3,1.2,-57.1,0.74,-0.01,-0.01,0.68
1697352259.11,0.21,-0.95,0.69,4.9,-1.2,-54,0.74,-0.01,-0.01,0.67
1697352259.12,0.21,-0.95,0.69,4.9,-1.2,-54,0.74,-0.01,-0.01,0.67
1697352259.13,-0.05,-0.92,1.03,5.2,-1.7,-52.8,0.75,-0.01,-0.01,0.67
1697352259.14,-0.19,-0.98,1.21,3.7,-1.4,-51.6,0.75,-0.01,-0.01,0.66
1697352259.15,0.15,-0.9,0.61,3.7,-1.4,-51.6,0.75,-0.01,-0.01,0.66
1697352259.16,-0,-0.48,0.97,0.9,0.4,-47.3,0.75,-0.01,-0.01,0.66
1697352259.17,0.01,-0.45,1.22,0.9,0.4,-47.3,0.76,-0.01,-0.01,0.65
1697352259.18,0.01,-0.45,1.22,4.2,0.7,-44.7,0.76,-0.01,-0.01,0.65
1697352259.19,0.13,-0.69,0.74,6.3,0.6,-41.3,0.76,-0.01,-0.01,0.65
1697352259.2,0.22,-0.83,0.81,5.1,0.3,-38.7,0.77,-0,-0.01,0.64
1697352259.21,0.26,-0.82,0.83,2.9,0,-36.9,0.77,-0,-0.01,0.64
1697352259.22,0.12,-0.64,1.05,-0.8,-0.4,-35.4,0.77,-0,-0.01,0.64
1697352259.23,0.05,-0.71,1.09,-0.7,-0.6,-34.6,0.77,-0,-0.01,0.64
1697352259.24,0.18,-0.4,0.59,2.2,-0.3,-34.9,0.77,-0,-0.01,0.64
1697352259.25,-0.15,-0.39,1.3,4.5,-0.2,-34.6,0.77,-0,-0.01,0.63
1697352259.26,-0.08,-0.34,1.2,8.1,0.6,-34.9,0.78,-0,-0.01,0.63
1697352259.27,-0.05,-0.19,0.83,8,1.3,-34.5,0.78,-0,-0.01,0.63
1697352259.28,0.15,-0.09,0.44,5,1.4,-32.4,0.78,-0,-0.01,0.63
1697352259.29,-0.09,0.09,1.37,3.2,1.6,-29.5,0.78,-0,-0.01,0.62
1697352259.3,0.23,0.67,0.28,2.5,1.6,-24.2,0.78,-0,-0.01,0.62
1697352259.31,-0.04,0.61,1.27,5.2,1.6,-15.2,0.78,-0,-0.01,0.62
1697352259.32,-0.07,0.9,1.37,8.6,0.9,-7,0.78,-0,-0.01,0.62
1697352259.33,-0.07,0.9,1.37,8.6,0.9,-7,0.78,-0,-0.01,0.62
1697352259.34,-0.07,0.9,1.37,8.6,0.9,-7,0.78,-0,-0.01,0.62
1697352259.35,-0.07,0.9,1.37,8.6,0.9,-7,0.78,-0,-0.01,0.62
1697352259.36,-0.07,0.9,1.37,8.6,0.9,-7,0.78,-0,-0.01,0.62
1697352259.37,-0.07,0.9,1.37,8.6,0.9,-7,0.78,-0,-0.01,0.62
1697352259.38,-0.07,0.9,1.37,8.6,0.9,-7,0.78,-0,-0.01,0.62
1697352259.39,-0.07,0.9,1.37,8.6,0.9,-7,0.78,-0,-0.01,0.62
1697352259.4,-0.07,0.9,1.37,8.6,0.9,-7,0.78,-0,-0.01,0.62
1697352259.41,-0.07,0.9,1.37,8.6,0.9,-7,0.78,-0,-0.01,0.62
1697352259.42,-0.07,0.9,1.37,8.6,0.9,-7,0.78,-0,-0.01,0.62
1697352259.43,-0.07,0.9,1.37,8.6,0.9,-7,0.78,-0,-0.01,0.62
1697352259.44,-0.07,0.9,1.37,8.6,0.9,-7,0.78,-0,-0.01,0.62
1697352259.45,-0.07,0.9,1.37,8.6,0.9,-7,0.78,-0,-0.01,0.62
1697352259.46,-0.08,0.74,1.45,0.3,-1.4,35.2,0.77,0.01,-0,0.64
1697352259.47,0.03,0.95,0.68,-0.6,0,34.2,0.76,0.01,-0,0.64
1697352259.48,0.03,0.95,0.68,-0.6,0,34.2,0.76,0.01,-0,0.65
1697352259.49,0.01,0.83,1.06,-0.1,0.6,33.7,0.76,0.01,-0,0.65
1697352259.5,0.01,0.83,1.06,-0.1,0.6,33.7,0.76,0.01,-0,0.65
1697352259.51,-0.19,0.97,1.3,-0.4,1.2,35.4,0.75,0.01,-0,0.66
1697352259.52,-0.19,0.97,1.3,-0.4,1.2,35.4,0.75,0.01,-0,0.66
1697352259.53,-0.04,0.84,1.2,-0.2,1.3,36.3,0.75,0.01,-0,0.66
1697352259.54,0.02,0.77,0.9,-1.7,1.4,37.8,0.75,0.01,-0,0.66
1697352259.55,-0.02,0.72,1.09,-3.9,1.3,39.5,0.75,0.01,-0,0.66
1697352259.56,-0.02,0.72,1.09,-4.1,1.2,40.7,0.75,0.01,-0,0.67
1697352259.57,0.05,0.9,0.98,-1.2,0.9,41.7,0.74,0.01,-0,0.67
1697352259.58,0.01,0.73,0.98,2.5,0.1,42.2,0.74,0.01,-0,0.67
1697352259.59,0.07,0.59,1,1.6,-0.3,42.2,0.74,0.01,-0,0.68
1697352259.6,0.14,0.54,0.85,0,-0.6,41.3,0.73,0.01,-0,0.68
1697352259.61,0.09,0.66,1,-1.3,-1.1,40.5,0.73,0.01,-0,0.68
1697352259.62,0.07,0.78,0.86,-1.3,-1.6,39.9,0.73,0.01,-0,0.68
1697352259.63,0.01,0.82,0.95,0.3,-1.7,39.1,0.73,0.01,-0,0.69
1697352259.64,0.11,0.69,0.98,1.3,-1.4,38.2,0.73,0.01,-0,0.69
1697352259.65,0.1,0.72,0.93,1.2,-0.9,37.4,0.72,0.01,-0,0.69
1697352259.66,-0.09,0.83,1.12,0.8,-0.2,37,0.72,0.01,-0,0.69
1697352259.67,0.05,0.75,1.16,0.8,0.4,36.6,0.72,0.01,-0,0.69
1697352259.68,0.03,0.68,1.13,-1.2,1.2,36.7,0.72,0.01,-0,0.7
1697352259.69,0.01,0.7,1.32,-2.6,1.8,36.5,0.72,0.01,-0,0.7
1697352259.7,0.15,0.63,1.02,-3.3,2.1,37.2,0.71,0.01,-0,0.7
1697352259.71,0.12,0.68,0.61,-2.2,1.9,36.5,0.71,0.01,-0,0.7
1697352259.72,0.2,0.45,1.07,-3.1,1.5,36.6,0.71,0.01,-0,0.71
1697352259.73,0.17,0.34,1.1,-2.7,1.4,34.5,0.71,0.01,-0,0.71
1697352259.74,0.17,0.36,1.02,-3.2,0.9,33.4,0.7,0,-0,0.71
1697352259.75,0.22,0.3,0.98,-3.8,0.4,30.9,0.7,0,-0,0.71
1697352259.76,0.21,0.4,0.95,-0.5,-0.5,26.1,0.7,0,-0.01,0.72
1697352259.77,0.25,0.4,0.78,0.8,-0.7,23.8,0.7,0,-0.01,0.72
1697352259.78,0.09,0.17,0.9,0.6,-1.1,21.1,0.7,0,-0.01,0.72
1697352259.79,0.06,0.12,0.99,-2.7,-1,19.1,0.69,0,-0.01,0.72
1697352259.8,0.09,0.19,1.02,-2.7,-1,19.1,0.69,0,-0.01,0.72
1697352259.81,0.07,0.27,1.05,-4.7,-0.5,17.3,0.69,0,-0.01,0.72
1697352259.82,0.07,0.27,1.05,-4.7,-0.5,17.3,0.69,0,-0.01,0.72
1697352259.83,0.06,0.29,0.98,-2.9,0.1,15.8,0.69,0,-0.01,0.72
1697352259.84,0.06,0.29,0.98,-1.6,0.1,15.6,0.69,0,-0.01,0.72
1697352259.85,0.06,0.29,0.98,-1.6,0.1,15.6,0.69,0,-0.01,0.72
1697352259.86,0.06,0.29,0.98,-1.6,0.1,15.6,0.69,0,-0.01,0.72
1697352259.87,0.06,0.29,0.98,-1.6,0.1,15.6,0.69,0,-0.01,0.72
1697352259.88,0.06,0.29,0.98,-1.6,0.1,15.6,0.69,0,-0.01,0.72
1697352259.89,0.06,0.29,0.98,-1.6,0.1,15.6,0.69,0,-0.01,0.72
1697352259.9,0.06,0.29,0.98,-1.6,0.1,15.6,0.69,0,-0.01,0.72
1697352259.91,0.06,0.29,0.98,-1.6,0.1,15.6,0.69,0,-0.01,0.72
1697352259.92,0.06,0.29,0.98,-1.6,0.1,15.6,0.69,0,-0.01,0.72
1697352259.93,0.06,0.29,0.98,-1.6,0.1,15.6,0.69,0,-0.01,0.72
1697352259.94,0.06,0.29,0.98,-1.6,0.1,15.6,0.69,0,-0.01,0.72
1697352259.95,0.06,0.29,0.98,-1.6,0.1,15.6,0.69,0,-0.01,0.72
1697352259.96,0.06,0.29,0.98,-1.6,0.1,15.6,0.69,0,-0.01,0.72
1697352259.97,0.06,0.29,0.98,-1.6,0.1,15.6,0.69,0,-0.01,0.72
1697352259.98,0.06,0.18,1.02,4,0.7,11.6,0.68,0,-0.01,0.73
1697352259.99,0.1,0.11,1.15,2.5,0.4,12.1,0.68,0,-0,0.73
1697352260,0.13,0.3,1.1,-0.2,0.1,12.3,0.68,0,-0.01,0.74
1697352260.01,0.1,0.43,1.2,-1.8,-0.2,12.9,0.68,0,-0.01,0.74
1697352260.02,0.03,0.3,0.92,0,-0.6,13.2,0.68,0,-0.01,0.74
1697352260.03,-0.07,0.25,0.96,2.3,-0.6,12.9,0.68,0,-0,0.74
1697352260.04,0.03,0.17,0.9,2.7,-0.3,12.5,0.67,0,-0,0.74
1697352260.05,0.11,0.18,0.87,0.9,0,12.6,0.67,0,-0,0.74
1697352260.06,0.14,0.14,0.79,-1,0.8,12.3,0.67,0,-0,0.74
1697352260.07,0.03,0.24,0.97,-2.2,1.5,11.5,0.67,0,-0,0.74
1697352260.08,-0.03,0.39,1.02,-2.2,1.5,11.5,0.67,0,-0,0.74
1697352260.09,0.17,0.43,0.82,-1,1.3,11.5,0.67,0,-0,0.74
1697352260.1,0.07,0.24,0.78,2,1.7,11.7,0.67,0,-0,0.74
1697352260.11,0.02,0.13,1.16,2,1.7,11.7,0.67,0,-0,0.74
1697352260.12,0.02,0.01,1.16,3.1,1.6,11.7,0.67,0,-0,0.74
1697352260.13,0.02,0.01,1.16,3.1,1.6,11.7,0.67,0,-0,0.74
1697352260.14,0.02,0.3,1.06,-2.8,-0.2,12,0.67,0,-0,0.75
1697352260.15,0.02,0.3,1.06,-2.8,-0.2,12,0.67,0,-0,0.75
1697352260.16,0.16,0.21,0.72,2.4,0.3,12.7,0.67,0,-0,0.75
1697352260.17,0.16,0.21,0.72,2.4,0.3,12.7,0.66,0,-0,0.75
1697352260.18,-0.11,0.14,0.89,1.7,1.5,12.7,0.66,0,-0,0.75
1697352260.19,-0.08,0.19,1.02,1.7,1.5,12.7,0.66,0,-0,0.75
1697352260.2,-0.08,0.19,1.02,0.2,1,12.5,0.66,0,-0,0.75
1697352260.21,0.06,0.34,0.95,-1.1,1.2,12.2,0.66,0,-0,0.75
1697352260.22,0.06,0.34,0.95,-0.9,0.8,12,0.66,0,-0,0.75
1697352260.23,0.03,0.36,1.04,-0.3,0.4,11.9,0.66,0,-0,0.75
1697352260.24,0.05,0.2,0.98,0.8,-0.4,11.9,0.66,0,-0,0.75
1697352260.25,0.12,0.28,0.96,1.9,-1,12.1,0.66,0,-0,0.75
1697352260.26,0.1,0.22,1.06,1.7,-2,12.2,0.66,0,-0,0.75
1697352260.27,0.1,0.22,1.06,0.5,-1.6,12.2,0.66,0,-0,0.75
1697352260.28,-0,0.25,1.18,-0.3,-1.5,12.2,0.66,0,-0,0.75
1697352260.29,-0.05,0.32,1.09,-0.2,-1.2,12.5,0.65,0,-0,0.76
1697352260.3,-0.01,0.29,0.99,0.4,-0.5,13.2,0.65,0,-0,0.76
1697352260.31,0.04,0.29,0.81,1.8,0,13.9,0.65,0,-0,0.76
1697352260.32,0.02,0.34,0.92,2,0.7,14.6,0.65,0,-0,0.76
1697352260.33,0.06,0.43,0.98,1.9,1.3,15.2,0.65,0,-0,0.76
1697352260.34,-0.07,0.38,1.07,1.1,1.3,16.2,0.65,0,-0,0.76
1697352260.35,-0.04,0.49,0.96,-0.1,1.3,17.2,0.65,0,-0,0.76
1697352260.36,0.06,0.69,0.9,0.6,1.1,18.8,0.65,0,-0,0.76
1697352260.37,0.06,0.69,0.9,0.6,1.1,18.8,0.65,0,-0,0.76
1697352260.38,0.06,0.69,0.9,0.6,1.1,18.8,0.65,0,-0,0.76
1697352260.39,0.06,0.69,0.9,0.6,1.1,18.8,0.65,0,-0,0.76
1697352260.4,0.06,0.69,0.9,0.6,1.1,18.8,0.65,0,-0,0.76
1697352260.41,0.06,0.69,0.9,0.6,1.1,18.8,0.65,0,-0,0.76
1697352260.42,0.06,0.69,0.9,0.6,1.1,18.8,0.65,0,-0,0.76
1697352260.43,0.06,0.69,0.9,0.6,1.1,18.8,0.65,0,-0,0.76
1697352260.44,0.06,0.69,0.9,0.6,1.1,18.8,0.65,0,-0,0.76
1697352260.45,0.06,0.69,0.9,0.6,1.1,18.8,0.65,0,-0,0.76
1697352260.46,0.06,0.69,0.9,0.6,1.1,18.8,0.65,0,-0,0.76
1697352260.47,0.06,0.69,0.9,0.6,1.1,18.8,0.65,0,-0,0.76
1697352260.48,0.06,0.69,0.9,0.6,1.1,18.8,0.65,0,-0,0.76
1697352260.49,0.03,0.61,0.93,-1.3,-0.4,25.4,0.63,0.01,-0,0.78
1697352260.5,-0.06,0.57,0.94,-1.2,-1,25.1,0.62,0.01,-0,0.78
1697352260.51,-0.03,0.56,0.92,-0.3,-1.2,25.1,0.62,0.01,-0,0.78
1697352260.52,0.01,0.55,1.05,-0.3,-1.2,25.1,0.62,0.01,-0,0.78
1697352260.53,0.01,0.55,1.05,0,-1.1,25.2,0.62,0.01,-0,0.79
1697352260.54,0.14,0.46,0.91,0.2,-1.2,25.4,0.62,0.01,-0,0.79
1697352260.55,0.14,0.46,0.91,0.2,-1.2,25.4,0.62,0.01,-0,0.79
1697352260.56,0.01,0.54,0.99,-1.4,-0.8,25.3,0.61,0.01,-0,0.79
1697352260.57,0.01,0.54,0.99,-1.4,-0.8,25.3,0.61,0.01,-0,0.79
1697352260.58,-0.04,0.3,1,-1.8,-0.9,26,0.61,0.01,-0,0.79
1697352260.59,-0.04,0.3,1,3,0.2,27.3,0.61,0.01,-0,0.79
1697352260.6,-0.06,0.4,1.07,2.6,0.2,27.3,0.61,0.01,-0,0.79
1697352260.61,-0.01,0.44,0.79,1.3,0,27.3,0.61,0.01,-0,0.8
1697352260.62,-0.01,0.44,0.79,-0.9,-0.3,27.2,0.6,0.01,-0,0.8
1697352260.63,0.07,0.68,0.93,-2.1,0,26.9,0.6,0.01,-0,0.8
1697352260.64,0.12,0.62,1.18,0.6,-0.3,26.8,0.6,0.01,-0,0.8
1697352260.65,0.12,0.62,1.18,0.6,-0.3,26.8,0.6,0.01,-0,0.8
1697352260.66,0.04,0.61,1.02,1.7,-0.8,26.8,0.59,0.01,-0,0.8
1697352260.67,-0,0.49,1.2,1.7,-1.4,26.2,0.59,0.01,-0,0.81
1697352260.68,-0.11,0.45,1.11,1.4,-1.5,25.9,0.59,0.01,-0,0.81
1697352260.69,-0.09,0.56,1.02,0.3,-1.8,25.8,0.59,0.01,-0,0.81
1697352260.7,-0.09,0.56,1.02,-1.3,-1.6,25.7,0.59,0.01,-0,0.81
1697352260.71,-0.03,0.53,0.97,-1.6,-1,25.9,0.59,0.01,-0,0.81
1697352260.72,-0.08,0.65,1,-0.3,-0.4,26.1,0.58,0.01,-0,0.81
1697352260.73,-0.1,0.64,1.09,1.7,0.8,26.7,0.58,0.01,-0,0.81
1697352260.74,-0.07,0.43,1.08,1.7,1.7,27.6,0.58,0.01,-0,0.82
1697352260.75,-0.02,0.45,1.03,-0.5,1.7,27.9,0.58,0.01,-0,0.82
1697352260.76,0.04,0.58,0.97,-2.6,1.6,28.2,0.58,0.01,-0,0.82
1697352260.77,-0.07,0.68,1.21,-2.3,1.5,28,0.57,0.01,-0,0.82
1697352260.78,-0.01,0.74,0.97,-1.2,1.3,28.4,0.57,0.01,-0,0.82
1697352260.79,-0.05,0.67,1.01,0.5,1.6,28.4,0.57,0.01,-0,0.82
1697352260.8,-0.06,0.54,1.13,0.8,1.3,28.3,0.57,0.01,-0,0.82
1697352260.81,-0.07,0.51,0.96,0.8,1.3,27.9,0.56,0.01,-0,0.83
1697352260.82,0.1,0.53,0.78,0,0.9,27.9,0.56,0.01,-0,0.83
1697352260.83,-0.09,0.53,1.22,-0.8,0.9,28.2,0.56,0.01,-0,0.83
1697352260.84,-0.07,0.56,0.88,-0.1,0.9,28.3,0.56,0.01,-0,0.83
1697352260.85,-0.03,0.56,0.89,0.7,1.2,28.7,0.56,0.01,-0,0.83
1697352260.86,0.01,0.64,1.09,1.9,1.3,28.9,0.55,0,-0,0.83
1697352260.87,0,0.55,0.96,1.3,1.7,29.2,0.55,0,-0,0.83
1697352260.88,0,0.55,0.96,1.3,1.7,29.2,0.55,0,-0,0.83
1697352260.89,0,0.55,0.96,1.3,1.7,29.2,0.55,0,-0,0.83
1697352260.9,0,0.55,0.96,1.3,1.7,29.2,0.55,0,-0,0.83
1697352260.91,0,0.55,0.96,1.3,1.7,29.2,0.55,0,-0,0.83
1697352260.92,0,0.55,0.96,1.3,1.7,29.2,0.55,0,-0,0.83
1697352260.93,0,0.55,0.96,1.3,1.7,29.2,0.55,0,-0,0.83
1697352260.94,0,0.55,0.96,1.3,1.7,29.2,0.55,0,-0,0.83
1697352260.95,0,0.55,0.96,1.3,1.7,29.2,0.55,0,-0,0.83
1697352260.96,0,0.55,0.96,1.3,1.7,29.2,0.55,0,-0,0.83
1697352260.97,0,0.55,0.96,1.3,1.7,29.2,0.55,0,-0,0.83
1697352260.98,0,0.55,0.96,1.3,1.7,29.2,0.55,0,-0,0.83
1697352260.99,0,0.55,0.96,1.3,1.7,29.2,0.55,0,-0,0.83
1697352261,0,0.55,0.96,1.3,1.7,29.2,0.55,0,-0,0.83
1697352261.01,0,0.55,0.96,1.3,1.7,29.2,0.55,0,-0,0.83
1697352261.02,0,0.55,0.96,1.3,1.7,29.2,0.55,0,-0,0.83
1697352261.03,0,0.55,0.96,1.3,1.7,29.2,0.55,0,-0,0.83
1697352261.04,0,0.55,0.96,1.3,1.7,29.2,0.55,0,-0,0.83
1697352261.05,0,0.55,0.96,1.3,1.7,29.2,0.55,0,-0,0.83
1697352261.06,0,0.55,0.96,1.3,1.7,29.2,0.55,0,-0,0.83
1697352261.07,0,0.55,0.96,1.3,1.7,29.2,0.55,0,-0,0.83
1697352261.08,-0.07,0.68,0.92,-3,1.4,33.2,0.51,-0,0,0.86
1697352261.09,-0.08,0.76,0.95,-2.1,0.4,32.8,0.5,-0,0,0.86
1697352261.1,-0.04,0.8,0.92,-1.1,0,32.9,0.5,-0,0,0.87
1697352261.11,-0.04,0.81,0.86,0.3,-0.3,32.8,0.5,-0,0,0.87
1697352261.12,-0.06,0.71,0.96,2.4,-0.2,32.4,0.49,-0,0,0.87
1697352261.13,-0.03,0.61,0.9,2.6,0,32.5,0.49,-0,0,0.87
1697352261.14,-0.18,0.52,0.93,2.4,0.8,32.1,0.49,-0,0,0.87
1697352261.15,-0.05,0.54,0.83,1.5,1.6,31.7,0.49,-0,0,0.87
1697352261.16,-0.08,0.57,1.04,0.6,2.5,31.3,0.48,-0,0,0.87
1697352261.17,0.03,0.69,0.94,0.9,3.3,31.6,0.48,-0,0,0.88
1697352261.18,0.07,0.64,1.04,1.7,3.4,31.4,0.48,-0,0,0.88
1697352261.19,-0.02,0.68,0.96,1.1,2.9,32.1,0.48,-0,0,0.88
1697352261.2,-0.14,0.57,1.11,0.9,2.7,32.3,0.47,-0,0,0.88
1697352261.21,0.03,0.67,0.76,0,2.3,32.8,0.47,-0,0,0.88
1697352261.22,0,0.68,1.07,-1,1.7,33.3,0.47,-0,0,0.88
1697352261.23,-0.06,0.75,1.06,-0.3,0.8,33.5,0.47,-0,0,0.88
1697352261.24,-0.1,0.72,0.98,0.5,0,33.9,0.46,-0,0,0.89
1697352261.25,-0.13,0.74,1.13,1.7,-0.4,34,0.46,-0,0,0.89
1697352261.26,0,0.76,0.85,3.4,-0.9,33.9,0.46,-0,0,0.89
1697352261.27,-0.01,0.77,0.87,5.6,-0.9,34,0.46,-0,0,0.89
1697352261.28,0,0.86,1.34,8.2,-1.1,34.3,0.45,-0,0,0.89
1697352261.29,-0.09,0.48,1.37,6.1,-2.9,35.2,0.45,-0,0,0.89
1697352261.3,-0.17,0.61,0.7,6.1,-2.9,35.2,0.45,0,0,0.89
1697352261.31,-0.23,0.9,1.26,0,-1.7,38.1,0.44,0,0.01,0.9
1697352261.32,-0.08,1.07,0.91,1.5,-1,40.2,0.44,0,0.01,0.9
1697352261.33,-0.1,1.14,0.86,4.7,-1,41.7,0.44,0,0.01,0.9
1697352261.34,-0.26,1.1,1.89,4.7,-1,41.7,0.44,0,0.01,0.9
1697352261.35,-0.26,1.1,1.89,5.9,-1,43.9,0.43,0,0.01,0.9
1697352261.36,-0.02,0.95,1,4.7,-1.7,46.3,0.43,0,0.01,0.9
1697352261.37,-0.02,0.95,1,4.2,-1.8,46.8,0.43,0,0.01,0.9
1697352261.38,-0.05,1.2,1,2.1,-2.9,49.1,0.42,0,0.01,0.91
1697352261.39,-0.05,1.2,1,4.3,-2.9,50.2,0.42,0,0.01,0.91
1697352261.4,-0.14,0.98,1.33,6,-2.7,50.2,0.41,0,0.01,0.91
1697352261.41,0.02,1.05,0.81,6.2,-1.9,50.4,0.41,0,0.01,0.91
1697352261.42,-0.11,0.94,1.27,5.4,-1.1,50,0.41,0,0.01,0.91
1697352261.43,-0.01,0.82,0.94,4.9,-0.8,49.9,0.4,0,0.01,0.92
1697352261.44,-0.09,1.03,1.05,-0.6,0.5,49,0.4,0,0.01,0.92
1697352261.45,-0.14,0.81,1.02,-2.6,0.9,48.4,0.39,0,0.01,0.92
1697352261.46,-0.1,1.21,0.83,-0.8,1.5,47.7,0.39,0,0.01,0.92
1697352261.47,-0.1,1.01,0.85,-0.7,1.7,47.8,0.39,0,0.01,0.92
1697352261.48,-0.1,1.01,0.85,-0.7,1.7,47.8,0.39,0,0.01,0.92
1697352261.49,-0.1,1.01,0.85,-0.7,1.7,47.8,0.39,0,0.01,0.92
1697352261.5,-0.1,1.01,0.85,-0.7,1.7,47.8,0.39,0,0.01,0.92
1697352261.51,-0.1,1.01,0.85,-0.7,1.7,47.8,0.39,0,0.01,0.92
1697352261.52,-0.1,1.01,0.85,-0.7,1.7,47.8,0.39,0,0.01,0.92
1697352261.53,-0.1,1.01,0.85,-0.7,1.7,47.8,0.39,0,0.01,0.92
1697352261.54,-0.1,1.01,0.85,-0.7,1.7,47.8,0.39,0,0.01,0.92
1697352261.55,-0.1,1.01,0.85,-0.7,1.7,47.8,0.39,0,0.01,0.92
1697352261.56,-0.1,1.01,0.85,-0.7,1.7,47.8,0.39,0,0.01,0.92
1697352261.57,-0.1,1.01,0.85,-0.7,1.7,47.8,0.39,0,0.01,0.92
1697352261.58,-0.1,1.01,0.85,-0.7,1.7,47.8,0.39,0,0.01,0.92
1697352261.59,-0.12,1.11,1.16,-0.7,2.1,48.3,0.34,0,0.01,0.94
1697352261.6,-0.12,1.11,1.16,1.1,1.7,49.4,0.34,0,0.01,0.94
1697352261.61,0.01,0.9,0.9,1.5,1.5,49.5,0.34,0,0.01,0.94
1697352261.62,-0.09,0.62,1.08,1.1,0.5,49.2,0.33,0,0.01,0.94
1697352261.63,-0.25,0.76,1.16,-2.3,0.2,48,0.33,0,0.01,0.95
1697352261.64,-0.06,1.08,0.81,-8.5,1.6,47.2,0.32,0,0.01,0.95
1697352261.65,-0.06,1.08,0.81,-8.5,1.6,47.2,0.32,0,0.01,0.95
1697352261.66,-0.01,0.93,0.82,2.3,2.4,45.4,0.31,0,0.01,0.95
1697352261.67,-0.19,0.77,0.97,5.4,2.6,45.1,0.31,0,0.01,0.95
1697352261.68,-0.18,0.8,0.9,5.4,2.9,43.7,0.3,0,0.01,0.95
1697352261.69,-0.1,0.77,0.96,3.9,3,43.1,0.3,0,0.01,0.95
1697352261.7,-0.1,0.77,0.96,3.9,3,43.1,0.3,0,0.01,0.95
1697352261.71,-0.05,0.67,1.07,-3.4,2.1,40.8,0.29,0,0.01,0.96
1697352261.72,-0.05,0.67,1.07,-3.4,2.1,40.8,0.29,0,0.01,0.96
1697352261.73,-0.09,1.34,1,-9,3.9,41,0.29,0,0.01,0.96
1697352261.74,-0.07,1.23,1.01,-2.8,4.6,41.8,0.28,-0,0.01,0.96
1697352261.75,-0.07,1.23,1.01,5.7,4.8,42.3,0.28,-0,0.01,0.96
1697352261.76,-0.15,1,1.24,8.6,4.6,43.4,0.28,-0,0.01,0.96
1697352261.77,-0.11,0.49,0.98,4.2,3.9,43.5,0.27,-0,0.01,0.96
1697352261.78,-0.01,0.46,1.17,-2.3,2.7,42.7,0.27,-0,0.01,0.96
1697352261.79,0.03,0.7,0.92,-7.2,2.2,43,0.27,-0,0.01,0.96
1697352261.8,-0.06,1.02,0.74,-6.7,1.7,43.2,0.26,-0,0.01,0.96
1697352261.81,-0.1,1.16,0.82,-0.5,0.8,43.7,0.26,-0,0.01,0.97
1697352261.82,0.03,0.98,0.89,2.8,-0.2,44.2,0.25,-0,0.01,0.97
1697352261.83,-0.1,0.91,1.14,4.1,-1.3,44.8,0.25,-0,0.01,0.97
1697352261.84,-0.18,0.71,1.16,3.9,-1,44.5,0.25,-0,0.01,0.97
1697352261.85,-0.14,0.71,1.37,0,-0.1,44.5,0.24,-0,0.01,0.97
1697352261.86,-0.1,0.66,0.86,-4.9,0.6,44.2,0.24,-0,0.01,0.97
1697352261.87,-0,0.91,0.62,-5.7,1.3,43.8,0.24,-0,0.01,0.97
1697352261.88,-0.18,1.07,1.16,-3.3,2.1,44,0.23,-0,0.01,0.97
1697352261.89,-0.09,1.2,1.02,0.6,2.5,44.7,0.23,-0,0.01,0.97
1697352261.9,0.08,1.04,0.92,5.9,2.1,45,0.22,-0,0.01,0.97
1697352261.91,-0.01,0.87,0.99,5.7,1.6,44.9,0.22,-0,0.01,0.98
1697352261.92,-0.1,0.75,0.9,3.3,1.1,44.7,0.22,-0,0.01,0.98
1697352261.93,-0.07,0.58,1.01,0,0.5,44,0.21,-0,0.01,0.98
1697352261.94,0.12,0.73,0.77,-3,0.5,43.5,0.21,-0,0.01,0.98
1697352261.95,-0.01,1.18,1.12,-3,0.5,43.5,0.21,-0,0.01,0.98
1697352261.96,-0.23,0.69,0.75,-1.2,0.2,43.8,0.2,-0,0.01,0.98
1697352261.97,-0.23,0.69,0.75,-1.2,0.2,43.8,0.2,-0,0.01,0.98
1697352261.98,-0.06,0.99,0.95,0.5,1.4,42.7,0.2,-0,0.01,0.98
1697352261.99,-0.06,0.99,0.95,0.5,1.4,42.7,0.2,-0,0.01,0.98
1697352262,-0.06,0.99,0.95,0.5,1.4,42.7,0.2,-0,0.01,0.98
1697352262.01,-0.06,0.99,0.95,0.5,1.4,42.7,0.2,-0,0.01,0.98
1697352262.02,-0.06,0.99,0.95,0.5,1.4,42.7,0.2,-0,0.01,0.98
1697352262.03,-0.06,0.99,0.95,0.5,1.4,42.7,0.2,-0,0.01,0.98
1697352262.04,-0.06,0.99,0.95,0.5,1.4,42.7,0.2,-0,0.01,0.98
1697352262.05,-0.06,0.99,0.95,0.5,1.4,42.7,0.2,-0,0.01,0.98
1697352262.06,-0.06,0.99,0.95,0.5,1.4,42.7,0.2,-0,0.01,0.98
1697352262.07,-0.06,0.99,0.95,0.5,1.4,42.7,0.2,-0,0.01,0.98
1697352262.08,-0.06,0.99,0.95,0.5,1.4,42.7,0.2,-0,0.01,0.98
1697352262.09,-0.06,0.99,0.95,0.5,1.4,42.7,0.2,-0,0.01,0.98
1697352262.1,-0.06,0.99,0.95,0.5,1.4,42.7,0.2,-0,0.01,0.98
1697352262.11,0.07,0.63,0.8,-2.3,-0.6,36.3,0.15,-0,0.01,0.99
1697352262.12,-0.13,0.8,1.26,-2.8,-0.1,36.1,0.15,-0,0.01,0.99
1697352262.13,-0.1,0.92,0.94,0.6,0.4,35.7,0.14,-0,0.01,0.99
1697352262.14,-0.01,0.68,1.1,0.5,1.5,36,0.14,-0,0.01,0.99
1697352262.15,0.04,0.7,1.08,-1.5,2.4,36,0.14,-0,0.01,0.99
1697352262.16,-0.17,0.68,1.09,-0.7,2,35.8,0.13,-0,0.01,0.99
1697352262.17,-0.01,0.88,1.02,-0.2,2.1,36.9,0.13,-0,0.01,0.99
1697352262.18,-0.21,0.65,1.02,0.9,2,37.5,0.13,-0,0.01,0.99
1697352262.19,-0.07,0.9,0.94,2.3,2.3,38.3,0.12,-0,0.01,0.99
1697352262.2,0.04,0.75,0.84,3,2.7,39.1,0.12,-0,0.01,0.99
1697352262.21,-0.05,0.78,0.83,4.6,2.7,39.4,0.12,-0,0.01,0.99
1697352262.22,-0.1,0.73,0.98,3.8,2.5,39.9,0.11,-0,0.01,0.99
1697352262.23,-0.08,0.73,0.78,2,2.2,40,0.11,-0,0.01,0.99
1697352262.24,-0.2,0.65,1.09,-1.7,2,39.9,0.11,-0,0.01,0.99
1697352262.25,-0.1,0.84,0.92,-1.7,2,39.9,0.11,-0,0.01,0.99
1697352262.26,-0.01,1.06,0.94,-2.9,1.4,40.3,0.1,-0.01,0.01,0.99
1697352262.27,-0.1,1.04,0.97,-1.6,1.1,41,0.1,-0.01,0.01,0.99
1697352262.28,-0.12,0.97,0.92,-0.7,0.4,41.4,0.09,-0.01,0.01,1
1697352262.29,-0.15,0.89,1.08,-1.7,0,41.6,0.09,-0.01,0.01,1
1697352262.3,-0.15,0.91,1.04,-2.1,0,41.8,0.09,-0.01,0.01,1
1697352262.31,-0.16,0.95,0.99,-2.1,0.1,42.4,0.08,-0.01,0.01,1
1697352262.32,-0.15,0.88,0.94,-0.9,0.2,42.3,0.08,-0.01,0.01,1
1697352262.33,-0.1,0.8,0.99,-1.3,0.7,42.5,0.07,-0.01,0.01,1
1697352262.34,-0.08,0.92,0.85,-1.5,1.6,42.3,0.07,-0.01,0.01,1
1697352262.35,-0.1,0.95,0.96,-1.5,1.6,42.3,0.07,-0.01,0.01,1
1697352262.36,-0.14,0.85,1.1,0.8,1.9,42.8,0.06,-0.01,0.01,1
1697352262.37,-0.14,0.99,0.99,1.1,2,42.9,0.06,-0.01,0.01,1
1697352262.38,-0.14,0.99,0.99,2.1,2,43.5,0.06,-0.01,0.01,1
1697352262.39,-0.07,0.9,0.8,1.7,1.9,44.2,0.05,-0.01,0.01,1
1697352262.4,-0.12,0.91,0.99,1.2,1.6,44.8,0.05,-0.01,0.01,1
1697352262.41,-0.17,0.86,1.05,-0.5,1.6,45.7,0.04,-0.01,0.01,1
1697352262.42,-0.03,0.89,1.11,-1.4,1.4,46.4,0.04,-0.01,0.01,1
1697352262.43,-0.15,1.01,1.07,-1.7,1.5,46.7,0.04,-0.01,0.01,1
1697352262.44,-0.09,1.07,1.18,-1.9,1.4,48.7,0.03,-0.01,0.01,1
1697352262.45,-0.01,1.11,1.06,0.5,0.7,49.1,0.03,-0.01,0.01,1
1697352262.46,-0.03,1.05,1.13,1.5,0,50,0.02,-0.01,0.01,1
1697352262.47,-0.16,0.97,1.12,2.2,-0.6,50.2,0.02,-0.01,0.01,1
1697352262.48,0.03,0.9,0.9,1.7,-0.9,49.8,0.01,-0.01,0.01,1
1697352262.49,0.03,0.9,0.9,1.7,-0.9,49.8,0.01,-0.01,0.01,1
1697352262.5,0.03,0.9,0.9,1.7,-0.9,49.8,0.01,-0.01,0.01,1
1697352262.51,0.03,0.9,0.9,1.7,-0.9,49.8,0.01,-0.01,0.01,1
1697352262.52,0.03,0.9,0.9,1.7,-0.9,49.8,0.01,-0.01,0.01,1
1697352262.53,0.03,0.9,0.9,1.7,-0.9,49.8,0.01,-0.01,0.01,1
1697352262.54,0.03,0.9,0.9,1.7,-0.9,49.8,0.01,-0.01,0.01,1
1697352262.55,0.03,0.9,0.9,1.7,-0.9,49.8,0.01,-0.01,0.01,1
1697352262.56,0.03,0.9,0.9,1.7,-0.9,49.8,0.01,-0.01,0.01,1
1697352262.57,0.03,0.9,0.9,1.7,-0.9,49.8,0.01,-0.01,0.01,1
1697352262.58,0.03,0.9,0.9,1.7,-0.9,49.8,0.01,-0.01,0.01,1
1697352262.59,0.03,0.9,0.9,1.7,-0.9,49.8,0.01,-0.01,0.01,1
1697352262.6,0.03,0.9,0.9,1.7,-0.9,49.8,0.01,-0.01,0.01,1
1697352262.61,0.03,0.9,0.9,1.7,-0.9,49.8,0.01,-0.01,0.01,1
1697352262.62,-0.13,0.94,1.09,-0.5,7.7,43.2,0.04,0.01,-0.01,-1
1697352262.63,-0.13,0.94,1.09,0.6,8.3,44.7,0.04,0.01,-0.01,-1
1697352262.64,0.36,0.96,0.96,0,10.2,45.5,0.05,0.01,-0.01,-1
1697352262.65,0.36,0.96,0.96,0,10.2,45.5,0.05,0.01,-0.01,-1
1697352262.66,-0.05,1.25,1.12,-0.4,6.5,46.7,0.06,0.01,-0.01,-1
1697352262.67,-0.05,1.25,1.12,-0.4,6.5,46.7,0.06,0.01,-0.01,-1
1697352262.68,0.05,0.79,0.91,1.1,1.2,48.3,0.07,0.01,-0.01,-1
1697352262.69,0.08,0.8,0.82,1.1,1.2,48.3,0.07,0.01,-0.01,-1
1697352262.7,-0.06,0.94,0.88,-1.2,-0.7,48.9,0.07,0.01,-0.01,-1
1697352262.71,-0.03,1,0.85,-1.8,-1.6,48.2,0.08,0.01,-0.01,-1
1697352262.72,-0.03,1,0.85,-1.8,-1.6,48.2,0.08,0.01,-0.01,-1
1697352262.73,-0.08,1.04,0.86,0.9,-1.1,47.3,0.08,0.01,-0.01,-1
1697352262.74,-0.07,0.94,0.97,3,-0.2,46.3,0.09,0.01,-0.01,-1
1697352262.75,-0.15,0.85,0.99,3.7,0.9,44.8,0.09,0.01,-0.01,-1
1697352262.76,-0.27,0.88,0.79,2.2,3.3,43.5,0.1,0.01,-0.01,-1
1697352262.77,-0.03,0.94,0.67,1.9,6.3,42.6,0.1,0.01,-0.01,-0.99
1697352262.78,-0.09,0.9,0.82,2.9,8,42.1,0.1,0.01,-0.01,-0.99
1697352262.79,0.01,0.82,1.25,1.7,7.9,42.8,0.11,0.01,-0.01,-0.99
1697352262.8,-0.05,1.03,0.9,-3.8,6.8,44.5,0.11,0.01,-0.01,-0.99
1697352262.81,-0.07,1.1,1.17,-4.2,5.6,45,0.12,0.01,-0.01,-0.99
1697352262.82,-0.01,1.03,1.07,-4,4.5,46.7,0.12,0.01,-0.01,-0.99
1697352262.83,-0.01,1.09,0.99,-3.7,2.7,48.1,0.13,0.01,-0.01,-0.99
1697352262.84,-0.07,1.05,1.15,-1.7,1.3,49.1,0.13,0.01,-0.01,-0.99
1697352262.85,-0.05,1.03,1.01,0,-0.3,49.5,0.13,0.01,-0.01,-0.99
1697352262.86,0.03,0.86,1.07,1.2,-1.8,49.5,0.14,0.01,-0.01,-0.99
1697352262.87,0.01,0.94,1.05,1,-3.1,49.5,0.14,0.01,-0.01,-0.99
1697352262.88,-0.09,0.95,1.09,0.8,-3.9,49.2,0.15,0.01,-0.01,-0.99
1697352262.89,-0.02,0.98,0.83,1.2,-4.4,48.8,0.15,0.01,-0.01,-0.99
1697352262.9,-0.04,0.9,1.11,3,-5.2,48.4,0.16,0.01,-0.01,-0.99
1697352262.91,-0.01,0.85,1.02,4.5,-5.7,47.8,0.16,0.01,-0.01,-0.99
1697352262.92,-0.15,0.75,1.11,2.8,-5.8,47,0.16,0.01,-0.01,-0.99
1697352262.93,-0.04,0.96,1.09,0.8,-5.3,46.2,0.17,0.01,-0.01,-0.99
1697352262.94,-0.05,0.93,0.91,0.6,-4.2,45.5,0.17,0.01,-0.01,-0.99
1697352262.95,-0.14,0.8,1.13,-3.2,-1.5,44.4,0.17,0.01,-0.01,-0.99
1697352262.96,-0.03,0.86,0.88,-5,-0.1,43.7,0.18,0.01,-0.01,-0.98
1697352262.97,-0.16,0.96,0.95,-6.6,0.9,43.3,0.18,0.01,-0.01,-0.98
1697352262.98,-0.08,1.04,0.79,-5.3,1.9,43.2,0.19,0.01,-0.01,-0.98
1697352262.99,0.02,1.09,0.77,-2.3,2.7,43.7,0.19,0.01,-0.01,-0.98
1697352263,0.02,1.09,0.77,-2.3,2.7,43.7,0.19,0.01,-0.01,-0.98
1697352263.01,-0.07,1.03,0.89,-1.4,2.8,43.9,0.19,0.01,-0.01,-0.98
1697352263.02,0,1,0.9,-1.4,2.8,43.9,0.19,0.01,-0.01,-0.98
1697352263.03,0,1,0.9,-1.4,2.8,43.9,0.19,0.01,-0.01,-0.98
1697352263.04,0,1,0.9,-1.4,2.8,43.9,0.19,0.01,-0.01,-0.98
1697352263.05,0,1,0.9,-1.4,2.8,43.9,0.19,0.01,-0.01,-0.98
1697352263.06,0,1,0.9,-1.4,2.8,43.9,0.19,0.01,-0.01,-0.98
1697352263.07,0,1,0.9,-1.4,2.8,43.9,0.19,0.01,-0.01,-0.98
1697352263.08,0,1,0.9,-1.4,2.8,43.9,0.19,0.01,-0.01,-0.98
1697352263.09,0,1,0.9,-1.4,2.8,43.9,0.19,0.01,-0.01,-0.98
1697352263.1,0,1,0.9,-1.4,2.8,43.9,0.19,0.01,-0.01,-0.98
1697352263.11,0,1,0.9,-1.4,2.8,43.9,0.19,0.01,-0.01,-0.98
1697352263.12,0,1,0.9,-1.4,2.8,43.9,0.19,0.01,-0.01,-0.98
1697352263.13,0,1,0.9,-1.4,2.8,43.9,0.19,0.01,-0.01,-0.98
1697352263.14,0,1,0.9,-1.4,2.8,43.9,0.19,0.01,-0.01,-0.98
1697352263.15,0.01,1.17,0.75,2.7,6.2,44.9,0.25,0.02,-0.01,-0.97
1697352263.16,-0.08,1.08,1,5.8,5.3,45.7,0.25,0.02,-0.01,-0.97
1697352263.17,0.02,0.97,0.76,6.5,5,45.8,0.26,0.02,-0.01,-0.97
1697352263.18,-0.04,0.7,0.91,7.8,4.7,46.3,0.26,0.02,-0.01,-0.96
1697352263.19,-0.15,0.82,1.09,4.6,4.6,46.5,0.27,0.02,-0.01,-0.96
1697352263.2,-0.1,1.01,1.13,0.4,4.1,46.2,0.27,0.02,-0.01,-0.96
1697352263.21,-0.13,0.89,1.02,-2.2,3.9,46.2,0.28,0.02,-0.01,-0.96
1697352263.22,0.02,1.09,0.93,-2.6,3.4,46.1,0.28,0.02,-0.01,-0.96
1697352263.23,0.05,1.12,1.06,-3.2,2.7,47,0.28,0.02,-0.01,-0.96
1697352263.24,-0.07,1.02,1.07,-1,1.9,46.9,0.28,0.02,-0.01,-0.96
1697352263.25,-0,0.75,1.03,0.9,0.9,47,0.29,0.02,-0.01,-0.96
1697352263.26,-0,0.75,1.03,1.6,-0.6,47.2,0.29,0.02,-0.01,-0.96
1697352263.27,-0.16,0.9,1.05,-3.3,-2.9,46.9,0.3,0.02,-0.01,-0.95
1697352263.28,-0.07,1.01,0.82,-6.6,-4.5,46,0.3,0.02,-0.01,-0.95
1697352263.29,-0.01,1.15,0.63,-8.2,-4.9,45.6,0.31,0.02,-0.01,-0.95
1697352263.3,-0.09,0.96,1.14,-4.6,-4,44.9,0.31,0.02,-0.01,-0.95
1697352263.31,-0.05,0.77,0.89,1.7,-2.9,44,0.31,0.02,-0.01,-0.95
1697352263.32,-0.05,0.77,0.89,5.5,-1.3,42.9,0.31,0.02,-0.01,-0.95
1697352263.33,0.07,0.72,0.94,5.6,0.1,41.7,0.32,0.02,-0.01,-0.95
1697352263.34,-0.04,0.83,1,0.2,2.2,40.7,0.33,0.02,-0.01,-0.95
1697352263.35,-0.04,0.83,1,-2.7,3.6,39.7,0.33,0.02,-0.01,-0.95
1697352263.36,-0.04,0.98,1.01,-4.2,4.1,39.7,0.33,0.02,-0.01,-0.94
1697352263.37,-0.04,0.98,1.01,-4.2,4.1,39.7,0.33,0.02,-0.01,-0.94
1697352263.38,0.01,0.92,0.93,-3.1,3.9,40.2,0.33,0.02,-0.01,-0.94
1697352263.39,0.01,0.92,0.93,-1,3.3,41.7,0.34,0.02,-0.01,-0.94
1697352263.4,-0.02,0.76,1.17,0,2,42.8,0.34,0.02,-0.01,-0.94
1697352263.41,-0.14,0.67,1.08,-0.7,-0.1,42.9,0.35,0.02,-0.01,-0.94
1697352263.42,-0.08,0.71,0.5,-0.7,-0.1,42.9,0.35,0.02,-0.01,-0.94
1697352263.43,-0.15,0.74,0.99,-2.8,-0.8,42.9,0.35,0.02,-0.01,-0.94
1697352263.44,-0.15,0.74,0.99,-3.5,-1.2,42.4,0.36,0.02,-0.01,-0.93
1697352263.45,-0.16,0.76,0.93,-3.2,-0.7,41.3,0.36,0.02,-0.01,-0.93
1697352263.46,-0.09,0.83,0.85,-2.6,0.3,40.7,0.36,0.02,-0.01,-0.93
1697352263.47,-0,0.99,0.87,1.8,2.1,40.1,0.37,0.02,-0.01,-0.93
1697352263.48,0.02,0.88,1.01,4.3,1.8,39.6,0.37,0.02,-0.01,-0.93
1697352263.49,-0.09,1,1.28,4.7,0.6,39.5,0.37,0.02,-0.01,-0.93
1697352263.5,-0.18,0.62,1.22,1.9,1,38.8,0.38,0.02,-0.01,-0.93
1697352263.51,-0.19,0.65,0.98,-2.4,2,38.5,0.38,0.02,-0.01,-0.92
1697352263.52,-0.14,0.85,1.02,-3.1,3.3,38.8,0.38,0.02,-0.01,-0.92
1697352263.53,0.03,0.95,1,-0.2,4,39,0.39,0.02,-0.01,-0.92
1697352263.54,-0.07,1.08,1.04,4.3,4.6,39.6,0.39,0.02,-0.01,-0.92
1697352263.55,-0.07,1.08,1.04,4.3,4.6,39.6,0.39,0.02,-0.01,-0.92
1697352263.56,-0.07,1.08,1.04,4.3,4.6,39.6,0.39,0.02,-0.01,-0.92
1697352263.57,-0.07,1.08,1.04,4.3,4.6,39.6,0.39,0.02,-0.01,-0.92
1697352263.58,-0.07,1.08,1.04,4.3,4.6,39.6,0.39,0.02,-0.01,-0.92
1697352263.59,-0.07,1.08,1.04,4.3,4.6,39.6,0.39,0.02,-0.01,-0.92
1697352263.6,-0.07,1.08,1.04,4.3,4.6,39.6,0.39,0.02,-0.01,-0.92
1697352263.61,-0.07,1.08,1.04,4.3,4.6,39.6,0.39,0.02,-0.01,-0.92
1697352263.62,-0.07,1.08,1.04,4.3,4.6,39.6,0.39,0.02,-0.01,-0.92
1697352263.63,-0.07,1.08,1.04,4.3,4.6,39.6,0.39,0.02,-0.01,-0.92
1697352263.64,-0.07,1.08,1.04,4.3,4.6,39.6,0.39,0.02,-0.01,-0.92
1697352263.65,-0.07,1.08,1.04,4.3,4.6,39.6,0.39,0.02,-0.01,-0.92
1697352263.66,-0.07,1.08,1.04,4.3,4.6,39.6,0.39,0.02,-0.01,-0.92
1697352263.67,-0.07,1.08,1.04,4.3,4.6,39.6,0.39,0.02,-0.01,-0.92
1697352263.68,-0.19,0.86,1.34,-0.6,1.4,40.1,0.43,0.02,-0.01,-0.9
1697352263.69,-0.06,1.03,0.96,-0.3,1.6,40.4,0.44,0.02,-0.01,-0.9
1697352263.7,-0.06,1.03,0.96,-0.3,1.6,40.4,0.44,0.02,-0.01,-0.9
1697352263.71,-0.15,0.95,1.02,1.1,1.3,41,0.44,0.02,-0.01,-0.9
1697352263.72,-0.15,0.95,1.02,1.1,1.3,41,0.44,0.02,-0.01,-0.9
1697352263.73,-0.13,0.72,0.91,4.2,1.3,40.4,0.45,0.02,-0.02,-0.89
1697352263.74,-0.13,0.72,0.91,4.2,1.3,40.4,0.45,0.02,-0.02,-0.89
1697352263.75,-0.02,0.77,0.62,1,2.5,39.4,0.46,0.02,-0.02,-0.89
1697352263.76,-0.02,0.77,0.62,1,2.5,39.4,0.46,0.02,-0.02,-0.89
1697352263.77,-0.04,0.98,0.73,1.3,3.2,38.7,0.46,0.02,-0.02,-0.89
1697352263.78,-0.12,0.81,0.97,4.7,2.9,39.2,0.46,0.02,-0.02,-0.88
1697352263.79,-0.12,0.81,0.97,4.7,2.9,39.2,0.47,0.02,-0.02,-0.88
1697352263.8,-0.14,0.83,1,4.3,3.3,38.9,0.47,0.02,-0.02,-0.88
1697352263.81,-0.19,0.87,1.09,4.8,3.8,38.7,0.47,0.02,-0.02,-0.88
1697352263.82,-0.15,0.7,1.1,3.9,4,38.5,0.48,0.03,-0.02,-0.88
1697352263.83,-0.04,0.8,0.99,1.3,4.3,39,0.48,0.03,-0.02,-0.88
1697352263.84,-0.05,0.81,1,1.1,3.9,39.1,0.48,0.03,-0.02,-0.87
1697352263.85,-0.01,0.79,0.73,1.1,4,38.3,0.49,0.03,-0.02,-0.87
1697352263.86,-0.2,0.61,1.07,0.3,3.2,36.9,0.49,0.03,-0.02,-0.87
1697352263.87,0.02,0.65,0.75,-1.5,2.5,36.2,0.49,0.03,-0.02,-0.87
1697352263.88,-0.02,0.72,1.24,-3.1,1.8,35.9,0.49,0.03,-0.02,-0.87
1697352263.89,-0.04,0.65,0.91,-2.9,0,33.8,0.5,0.03,-0.02,-0.87
1697352263.9,0.15,0.7,0.88,-2.5,-1.3,32,0.5,0.03,-0.02,-0.86
1697352263.91,0.02,0.83,0.92,-0.7,-1.6,31.7,0.5,0.03,-0.02,-0.86
1697352263.92,-0.03,0.68,0.83,1.2,-1.1,30.7,0.51,0.03,-0.02,-0.86
1697352263.93,-0.13,0.6,1.08,1.9,-0.8,29.3,0.51,0.03,-0.02,-0.86
1697352263.94,0,0.58,0.91,2.2,-0.7,28.9,0.51,0.03,-0.02,-0.86
1697352263.95,-0.04,0.57,1.21,1.7,0.5,29,0.51,0.03,-0.02,-0.86
1697352263.96,-0.12,0.45,1.11,1.7,1.1,28.3,0.51,0.03,-0.02,-0.86
1697352263.97,-0.2,0.52,1,-1.8,1.1,28.8,0.52,0.03,-0.02,-0.86
1697352263.98,0.03,0.67,1.06,-2.1,1,29.7,0.52,0.03,-0.02,-0.85
1697352263.99,0.01,0.63,1.08,-0.7,1.2,30.4,0.52,0.03,-0.02,-0.85
1697352264,0.07,0.76,0.94,-0.7,1.2,30.4,0.52,0.03,-0.02,-0.85
1697352264.01,-0.02,0.58,0.99,0,0.7,31,0.53,0.03,-0.02,-0.85
1697352264.02,-0.01,0.55,0.97,0.7,0,31.2,0.53,0.03,-0.02,-0.85
1697352264.03,0.18,0.51,0.88,-1,-0.2,31.2,0.53,0.03,-0.02,-0.85
1697352264.04,-0.03,0.66,0.86,-4.1,-0.3,31.2,0.53,0.03,-0.02,-0.85
1697352264.05,0.05,0.87,0.97,-3.2,0.4,31,0.53,0.03,-0.02,-0.85
1697352264.06,0.05,0.87,0.97,-3.2,0.4,31,0.53,0.03,-0.02,-0.85
1697352264.07,-0.08,0.7,1,-0.8,1.5,31.6,0.54,0.03,-0.02,-0.84
1697352264.08,-0.08,0.7,1,-0.8,1.5,31.6,0.54,0.03,-0.02,-0.84
1697352264.09,-0.08,0.7,1,-0.8,1.5,31.6,0.54,0.03,-0.02,-0.84
1697352264.1,-0.08,0.7,1,-0.8,1.5,31.6,0.54,0.03,-0.02,-0.84
1697352264.11,-0.08,0.7,1,-0.8,1.5,31.6,0.54,0.03,-0.02,-0.84
1697352264.12,-0.08,0.7,1,-0.8,1.5,31.6,0.54,0.03,-0.02,-0.84
1697352264.13,-0.08,0.7,1,-0.8,1.5,31.6,0.54,0.03,-0.02,-0.84
1697352264.14,-0.08,0.7,1,-0.8,1.5,31.6,0.54,0.03,-0.02,-0.84
1697352264.15,-0.08,0.7,1,-0.8,1.5,31.6,0.54,0.03,-0.02,-0.84
1697352264.16,-0.08,0.7,1,-0.8,1.5,31.6,0.54,0.03,-0.02,-0.84
1697352264.17,-0.08,0.7,1,-0.8,1.5,31.6,0.54,0.03,-0.02,-0.84
1697352264.18,-0.08,0.7,1,-0.8,1.5,31.6,0.54,0.03,-0.02,-0.84
1697352264.19,-0.11,0.51,1.15,-0.5,-0.1,28.2,0.57,0.02,-0.02,-0.82
1697352264.2,-0.18,0.49,0.94,-3,0.3,27.8,0.57,0.02,-0.02,-0.82
1697352264.21,-0.01,0.72,0.83,-6.3,1.2,28.4,0.57,0.02,-0.02,-0.82
1697352264.22,-0.04,0.68,0.97,-5.4,2.3,29,0.57,0.02,-0.02,-0.82
1697352264.23,-0.01,0.8,0.99,-1,2.7,29.1,0.57,0.02,-0.02,-0.82
1697352264.24,0.16,0.44,1.22,4,3.1,29.1,0.58,0.02,-0.02,-0.82
1697352264.25,-0.03,0.21,1.12,6.6,1.9,28.6,0.58,0.02,-0.02,-0.82
1697352264.26,0.03,0.24,0.98,1.6,-0.1,28,0.58,0.02,-0.02,-0.81
1697352264.27,0.11,0.41,0.55,-4,-0.9,24.2,0.58,0.02,-0.02,-0.81
1697352264.28,-0.14,0.54,1.1,-2.6,-1.2,23,0.58,0.02,-0.02,-0.81
1697352264.29,-0.03,0.46,1.16,-1.1,-1.4,22,0.58,0.02,-0.02,-0.81
1697352264.3,0.02,0.52,0.94,0.6,-1.7,21,0.59,0.02,-0.02,-0.81
1697352264.31,0.05,0.51,0.96,2.9,-1.8,20.4,0.59,0.02,-0.02,-0.81
1697352264.32,-0.07,0.4,0.92,2.7,-1.5,19.9,0.59,0.02,-0.02,-0.81
1697352264.33,-0.12,0.22,1.1,2,-1.1,18.6,0.59,0.02,-0.02,-0.81
1697352264.34,0.03,-0.02,0.82,-1,0,17.1,0.59,0.02,-0.02,-0.81
1697352264.35,0.06,0.3,0.95,-3.4,-0.2,16.2,0.59,0.02,-0.02,-0.8
1697352264.36,-0.09,0.27,1.04,-5.2,2,14.9,0.59,0.02,-0.02,-0.8
1697352264.37,-0.01,0.47,0.75,-4.7,4.3,15.2,0.59,0.02,-0.02,-0.8
1697352264.38,0.02,0.47,1.16,-0.5,5.1,14.7,0.6,0.02,-0.02,-0.8
1697352264.39,0.06,0.41,1.21,1.6,4.1,14.5,0.6,0.02,-0.02,-0.8
1697352264.4,0.1,0.53,1.14,2.6,2.3,15.5,0.6,0.02,-0.02,-0.8
1697352264.41,0.17,0.12,0.66,3.1,1.1,15.6,0.6,0.02,-0.02,-0.8
1697352264.42,0.17,0.12,0.66,3.1,1.1,15.6,0.6,0.02,-0.02,-0.8
1697352264.43,-0.09,0.25,0.91,1.8,0.6,15.5,0.6,0.02,-0.02,-0.8
1697352264.44,-0.06,0.27,1,-1.9,-0.1,16.5,0.6,0.02,-0.02,-0.8
1697352264.45,-0.08,0.41,0.94,-2.2,0,16.4,0.6,0.02,-0.02,-0.8
1697352264.46,0.1,0.48,0.76,-0.6,-0.3,16.9,0.6,0.02,-0.02,-0.8
1697352264.47,0.1,0.48,0.76,-0.6,-0.3,16.9,0.61,0.02,-0.02,-0.8
1697352264.48,-0.09,0.5,1.26,0.8,-0.5,17.3,0.61,0.02,-0.02,-0.79
1697352264.49,-0.1,0.49,0.88,2.2,-0.7,17.3,0.61,0.02,-0.02,-0.79
1697352264.5,0.24,0.22,0.86,2.3,-1,17.2,0.61,0.02,-0.02,-0.79
1697352264.51,0.09,0.24,1.02,-2.3,-2.4,17.3,0.61,0.02,-0.02,-0.79
1697352264.52,0.01,0.49,0.8,-2.4,-3,16.6,0.61,0.02,-0.02,-0.79
1697352264.53,-0.12,0.39,0.95,-3.3,-1.8,16.5,0.61,0.02,-0.02,-0.79
1697352264.54,0.02,0.66,0.95,-3.6,-1.3,16.7,0.61,0.02,-0.02,-0.79
1697352264.55,-0.22,0.54,0.97,0.6,0,17.2,0.62,0.02,-0.02,-0.79
1697352264.56,0.07,0.53,0.91,3.5,0.9,18.1,0.62,0.02,-0.02,-0.79
1697352264.57,0.17,0.22,0.7,3,0.8,18.4,0.62,0.02,-0.02,-0.79
1697352264.58,-0.02,0.32,1.17,2.2,1,18,0.62,0.02,-0.02,-0.78
1697352264.59,-0.02,0.32,1.17,2.2,1,18,0.62,0.02,-0.02,-0.78
1697352264.6,-0.02,0.32,1.17,2.2,1,18,0.62,0.02,-0.02,-0.78
1697352264.61,-0.02,0.32,1.17,2.2,1,18,0.62,0.02,-0.02,-0.78
