time,accel_x,accel_y,accel_z,gyro_x,gyro_y,gyro_z,quat_w,quat_x,quat_y,quat_z
1697353560.55,-0.12,0.32,0.94,-1.2,0.3,52,0.93,0.06,-0,-0.37
1697353560.56,-0.21,0.28,1.05,-1.2,0.3,52,0.93,0.06,-0,-0.37
1697353560.57,-0.21,0.28,1.05,-2,0.9,52,0.93,0.06,-0,-0.36
1697353560.58,-0.18,0.34,0.94,-2.2,1.1,52,0.93,0.06,-0,-0.36
1697353560.59,-0.18,0.38,1,-2,1.2,52,0.93,0.06,-0,-0.35
1697353560.6,-0.13,0.42,0.98,0.5,0.7,51.7,0.93,0.06,-0,-0.35
1697353560.61,-0.1,0.36,1.07,1.3,0.1,51.5,0.94,0.06,-0,-0.35
1697353560.62,-0.1,0.36,1.07,1.3,0.1,51.5,0.94,0.06,-0,-0.35
1697353560.63,-0.1,0.36,1.07,1.3,0.1,51.5,0.94,0.06,-0,-0.35
1697353560.64,-0.1,0.36,1.07,1.3,0.1,51.5,0.94,0.06,-0,-0.35
1697353560.65,-0.1,0.36,1.07,1.3,0.1,51.5,0.94,0.06,-0,-0.35
1697353560.66,-0.1,0.36,1.07,1.3,0.1,51.5,0.94,0.06,-0,-0.35
1697353560.67,-0.1,0.36,1.07,1.3,0.1,51.5,0.94,0.06,-0,-0.35
1697353560.68,-0.1,0.36,1.07,1.3,0.1,51.5,0.94,0.06,-0,-0.35
1697353560.69,-0.1,0.36,1.07,1.3,0.1,51.5,0.94,0.06,-0,-0.35
1697353560.7,-0.1,0.36,1.07,1.3,0.1,51.5,0.94,0.06,-0,-0.35
1697353560.71,-0.1,0.36,1.07,1.3,0.1,51.5,0.94,0.06,-0,-0.35
1697353560.72,-0.1,0.36,1.07,1.3,0.1,51.5,0.94,0.06,-0,-0.35
1697353560.73,-0.1,0.36,1.07,1.3,0.1,51.5,0.94,0.06,-0,-0.35
1697353560.74,-0.1,0.36,1.07,1.3,0.1,51.5,0.94,0.06,-0,-0.35
1697353560.75,-0.06,0.37,0.95,-1.7,0.3,48.7,0.95,0.06,-0.01,-0.29
1697353560.76,-0.13,0.3,1.15,-1.1,-0.1,48.8,0.96,0.06,-0.01,-0.29
1697353560.77,-0.11,0.22,0.69,1.6,-0.8,48.5,0.96,0.06,-0.01,-0.28
1697353560.78,-0.24,0.31,1.26,2.1,-1.1,48.1,0.96,0.06,-0.01,-0.28
1697353560.79,-0.08,0.27,0.82,1.4,-1.1,48,0.96,0.06,-0.01,-0.27
1697353560.8,-0.1,0.32,0.85,-0.2,-0.8,48,0.96,0.06,-0.01,-0.27
1697353560.81,-0.19,0.32,1.12,-0.5,-0.7,47.9,0.96,0.06,-0.01,-0.27
1697353560.82,-0.15,0.31,1.03,-0.6,-0.2,48.1,0.96,0.06,-0.01,-0.26
1697353560.83,-0.17,0.31,0.97,-0.3,0.2,48,0.97,0.06,-0.01,-0.25
1697353560.84,-0.17,0.31,0.97,-0.3,0.2,48,0.97,0.06,-0.01,-0.25
1697353560.85,-0.18,0.27,1.14,0,0.5,48,0.97,0.06,-0.01,-0.25
1697353560.86,-0.18,0.27,1.14,-0.3,0.9,48,0.97,0.06,-0.01,-0.24
1697353560.87,-0.15,0.29,1.1,-0.4,1.3,47.7,0.97,0.06,-0.01,-0.24
1697353560.88,-0.15,0.29,1.1,-1.1,1.7,47.3,0.97,0.06,-0.01,-0.24
1697353560.89,-0.12,0.28,0.96,-1.1,1.9,47.2,0.97,0.06,-0.01,-0.23
1697353560.9,-0.17,0.29,0.97,-1.2,1.8,46.8,0.97,0.06,-0.01,-0.23
1697353560.91,-0.14,0.27,1.02,-0.9,1.5,46.6,0.97,0.06,-0.01,-0.23
1697353560.92,-0.08,0.26,0.99,-0.3,1.2,46.3,0.97,0.06,-0.01,-0.22
1697353560.93,-0.1,0.24,1.01,0.1,0.2,45.9,0.97,0.06,-0.01,-0.22
1697353560.94,-0.09,0.25,0.94,-0.3,0,45.8,0.98,0.06,-0.01,-0.21
1697353560.95,-0.13,0.25,0.95,-0.5,-0.2,45.7,0.98,0.06,-0.01,-0.21
1697353560.96,-0.13,0.26,1,-0.6,-0.2,45.6,0.98,0.06,-0.01,-0.2
1697353560.97,-0.12,0.26,0.94,-0.7,-0.3,45.6,0.98,0.06,-0.01,-0.2
1697353560.98,-0.16,0.27,1.07,-0.7,0,45.4,0.98,0.06,-0.01,-0.2
1697353560.99,-0.11,0.27,0.88,-0.4,0.4,45.4,0.98,0.06,-0.01,-0.19
1697353561,-0.16,0.28,1.03,0.4,1,45.4,0.98,0.07,-0.01,-0.19
1697353561.01,-0.16,0.25,1.07,0.4,1,45.4,0.98,0.07,-0.01,-0.19
1697353561.02,-0.1,0.24,0.95,1.6,2.3,45.2,0.98,0.07,-0.01,-0.18
1697353561.03,-0.16,0.22,1.09,1.7,2.7,45,0.98,0.07,-0.01,-0.18
1697353561.04,-0.1,0.15,1.06,0.7,3.1,44.6,0.98,0.07,-0.01,-0.17
1697353561.05,-0.09,0.23,0.87,-0.3,3.1,44.5,0.98,0.07,-0.01,-0.17
1697353561.06,-0.09,0.23,0.86,-0.4,3,44.4,0.98,0.07,-0.01,-0.17
1697353561.07,-0.1,0.26,0.97,-0.6,2.8,44.1,0.98,0.07,-0.01,-0.16
1697353561.08,-0.1,0.24,1,-1.4,1.6,43.7,0.99,0.07,-0.01,-0.16
1697353561.09,-0.1,0.32,0.88,-1.3,1.1,43.5,0.99,0.07,-0.01,-0.15
1697353561.1,-0.1,0.27,0.9,-1,0.6,43.4,0.99,0.07,-0.01,-0.15
1697353561.11,-0.12,0.28,1.01,-1.1,0.5,43.3,0.99,0.07,-0.01,-0.15
1697353561.12,-0.16,0.22,1.04,-1.6,0.8,43.2,0.99,0.07,-0.01,-0.14
1697353561.13,-0.14,0.24,0.94,-1.8,1.5,43,0.99,0.07,-0,-0.14
1697353561.14,-0.14,0.24,0.94,-1.8,1.5,43,0.99,0.07,-0,-0.14
1697353561.15,-0.14,0.24,0.94,-1.8,1.5,43,0.99,0.07,-0,-0.14
1697353561.16,-0.14,0.24,0.94,-1.8,1.5,43,0.99,0.07,-0,-0.14
1697353561.17,-0.14,0.24,0.94,-1.8,1.5,43,0.99,0.07,-0,-0.14
1697353561.18,-0.14,0.24,0.94,-1.8,1.5,43,0.99,0.07,-0,-0.14
1697353561.19,-0.14,0.24,0.94,-1.8,1.5,43,0.99,0.07,-0,-0.14
1697353561.2,-0.14,0.24,0.94,-1.8,1.5,43,0.99,0.07,-0,-0.14
1697353561.21,-0.14,0.24,0.94,-1.8,1.5,43,0.99,0.07,-0,-0.14
1697353561.22,-0.14,0.24,0.94,-1.8,1.5,43,0.99,0.07,-0,-0.14
1697353561.23,-0.14,0.24,0.94,-1.8,1.5,43,0.99,0.07,-0,-0.14
1697353561.24,-0.14,0.24,0.94,-1.8,1.5,43,0.99,0.07,-0,-0.14
1697353561.25,-0.14,0.24,0.94,-1.8,1.5,43,0.99,0.07,-0,-0.14
1697353561.26,-0.14,0.24,0.94,-1.8,1.5,43,0.99,0.07,-0,-0.14
1697353561.27,-0.14,0.24,0.94,-1.8,1.5,43,0.99,0.07,-0,-0.14
1697353561.28,-0.14,0.24,0.94,-1.8,1.5,43,0.99,0.07,-0,-0.14
1697353561.29,-0.14,0.24,0.94,-1.8,1.5,43,0.99,0.07,-0,-0.14
1697353561.3,-0.14,0.24,0.94,-1.8,1.5,43,0.99,0.07,-0,-0.14
1697353561.31,-0.14,0.24,0.94,-1.8,1.5,43,0.99,0.07,-0,-0.14
1697353561.32,-0.14,0.24,0.94,-1.8,1.5,43,0.99,0.07,-0,-0.14
1697353561.33,-0.14,0.24,0.94,-1.8,1.5,43,0.99,0.07,-0,-0.14
1697353561.34,0.19,0.1,1.13,-0.1,0.1,37.2,0.99,0.08,0,-0.07
1697353561.35,0.1,0.21,0.97,-0.6,0.1,37.7,1,0.08,-0,-0.06
1697353561.36,-0.03,0.25,0.98,-0.4,1.1,38.4,1,0.08,-0,-0.06
1697353561.37,-0.18,0.31,0.92,-1.2,2.2,40.1,1,0.08,-0,-0.05
1697353561.38,-0.17,0.25,0.86,-1.1,3.4,41.6,1,0.08,0,-0.05
1697353561.39,-0.16,0.22,1.07,-1.2,4.4,42.9,1,0.08,0,-0.05
1697353561.4,-0.13,0.25,0.96,-0.8,5.1,43.7,1,0.08,0,-0.04
1697353561.41,-0.01,0.18,1.12,-0.4,5.1,43.7,1,0.08,0,-0.04
1697353561.42,0.12,0.15,1.09,-0.1,4.3,42.7,1,0.08,0,-0.04
1697353561.43,0.23,0.13,1.15,0.4,2.8,40.7,1,0.08,0,-0.04
1697353561.44,0.38,0.12,0.96,0.4,2.8,40.7,1,0.08,0,-0.03
1697353561.45,0.28,0.15,1.12,0.4,1.4,38.6,1,0.08,0,-0.02
1697353561.46,0.19,0.26,0.92,0.3,0.4,37.2,1,0.08,0,-0.02
1697353561.47,0.19,0.26,0.92,0.3,0.4,37.2,1,0.08,0,-0.02
1697353561.48,-0.03,0.31,1.04,0,0.4,36.8,1,0.08,-0,-0.01
1697353561.49,-0.12,0.22,0.92,0,0.4,36.8,1,0.08,-0,-0.01
1697353561.5,-0.12,0.3,0.9,-1,2.6,39.5,1,0.08,0,-0.01
1697353561.51,-0.13,0.3,1.12,-1.2,3.9,41.5,1,0.08,0,-0.01
1697353561.52,0.01,0.25,0.89,-0.7,4.7,43.2,1,0.08,0,-0
1697353561.53,0.15,0.12,0.99,0.5,4.6,44.1,1,0.08,0,-0
1697353561.54,0.15,0.12,0.99,0.5,4.6,44.1,1,0.08,0,-0
1697353561.55,0.15,0.12,0.99,0.5,4.6,44.1,1,0.08,0,-0
1697353561.56,0.15,0.12,0.99,0.5,4.6,44.1,1,0.08,0,-0
1697353561.57,0.15,0.12,0.99,0.5,4.6,44.1,1,0.08,0,-0
1697353561.58,0.15,0.12,0.99,0.5,4.6,44.1,1,0.08,0,-0
1697353561.59,0.15,0.12,0.99,0.5,4.6,44.1,1,0.08,0,-0
1697353561.6,0.15,0.12,0.99,0.5,4.6,44.1,1,0.08,0,-0
1697353561.61,0.15,0.12,0.99,0.5,4.6,44.1,1,0.08,0,-0
1697353561.62,0.15,0.12,0.99,0.5,4.6,44.1,1,0.08,0,-0
1697353561.63,0.15,0.12,0.99,0.5,4.6,44.1,1,0.08,0,-0
1697353561.64,0.15,0.12,0.99,0.5,4.6,44.1,1,0.08,0,-0
1697353561.65,0.15,0.12,0.99,0.5,4.6,44.1,1,0.08,0,-0
1697353561.66,0.15,0.12,0.99,0.5,4.6,44.1,1,0.08,0,-0
1697353561.67,0.15,0.12,0.99,0.5,4.6,44.1,1,0.08,0,-0
1697353561.68,0.15,0.12,0.99,0.5,4.6,44.1,1,0.08,0,-0
1697353561.69,0.15,0.12,0.99,0.5,4.6,44.1,1,0.08,0,-0
1697353561.7,0.15,0.12,0.99,0.5,4.6,44.1,1,0.08,0,-0
1697353561.71,0.15,0.12,0.99,0.5,4.6,44.1,1,0.08,0,-0
1697353561.72,0.15,0.12,0.99,0.5,4.6,44.1,1,0.08,0,-0
1697353561.73,0.15,0.12,0.99,0.5,4.6,44.1,1,0.08,0,-0
1697353561.74,0.15,0.12,0.99,0.5,4.6,44.1,1,0.08,0,-0
1697353561.75,0.15,0.14,1.11,0.2,3.3,44.5,0.99,0.08,-0,0.09
1697353561.76,0.22,0.16,0.92,-0.2,2.6,44.1,0.99,0.08,-0,0.09
1697353561.77,0.26,0.22,1.09,-0.7,2.1,43.3,0.99,0.08,-0,0.09
1697353561.78,0.25,0.28,1.03,-0.8,1.1,42.2,0.99,0.08,-0,0.1
1697353561.79,0.15,0.24,0.92,-0.1,0.2,41.5,0.99,0.08,-0,0.1
1697353561.8,0.11,0.36,1.04,-0.1,0.2,41.5,0.99,0.08,-0,0.1
1697353561.81,-0,0.29,1.04,1.1,-0.5,41.3,0.99,0.08,-0,0.1
1697353561.82,-0.06,0.27,0.79,1,-0.6,41.9,0.99,0.08,-0,0.11
1697353561.83,-0.04,0.28,1.09,0,0,42.7,0.99,0.08,-0,0.11
1697353561.84,-0.01,0.29,1,0,0,42.7,0.99,0.08,-0,0.12
1697353561.85,0.03,0.25,1.31,-0.6,0.4,43.9,0.99,0.08,-0,0.12
1697353561.86,0.14,0.3,0.99,-0.6,0.6,45,0.99,0.08,-0.01,0.12
1697353561.87,0.14,0.3,0.99,-0.1,0.5,45.1,0.99,0.08,-0.01,0.13
1697353561.88,0.13,0.23,1.04,0.5,0,44.5,0.99,0.08,-0.01,0.13
1697353561.89,0.13,0.23,1.04,0.5,0,44.5,0.99,0.08,-0.01,0.13
1697353561.9,0.09,0.23,1.06,0.8,0,44.2,0.99,0.08,-0.01,0.14
1697353561.91,0.09,0.23,1.06,0.2,0,44.2,0.99,0.08,-0.01,0.14
1697353561.92,0.01,0.28,1.05,0.1,0.1,44.4,0.99,0.08,-0.01,0.15
1697353561.93,-0.14,0.29,1.12,-0.1,0.6,45.3,0.99,0.08,-0.01,0.15
1697353561.94,0.01,0.32,0.58,0.2,1.1,46,0.98,0.08,-0.01,0.15
1697353561.95,-0.03,0.3,1.05,0.5,1.1,46.6,0.98,0.08,-0.01,0.16
1697353561.96,-0.02,0.27,1.04,0.3,1.1,47,0.98,0.08,-0.01,0.16
1697353561.97,0.06,0.27,1.07,0.4,1.1,46.8,0.98,0.08,-0.01,0.17
1697353561.98,0.22,0.24,0.94,0.1,0.2,46.6,0.98,0.08,-0.01,0.17
1697353561.99,0.18,0.26,1.07,0,-0.5,46.1,0.98,0.08,-0.01,0.17
1697353562,0.12,0.29,0.99,0,-1.1,45.7,0.98,0.08,-0.01,0.18
1697353562.01,0.03,0.34,0.88,0.7,-1.8,45.5,0.98,0.08,-0.01,0.18
1697353562.02,0,0.32,1.15,1.5,-2.1,45.7,0.98,0.08,-0.01,0.19
1697353562.03,-0.07,0.25,1.41,1.4,-1.8,45.9,0.98,0.08,-0.01,0.19
1697353562.04,0.02,0.29,0.66,0.8,-1.5,46.4,0.98,0.08,-0.01,0.2
1697353562.05,-0.09,0.27,1.27,0.1,-0.6,46.9,0.98,0.08,-0.01,0.2
1697353562.06,0.02,0.31,0.84,0.1,-0.6,46.9,0.98,0.08,-0.01,0.2
1697353562.07,-0.1,0.28,1.17,0,0.4,47.7,0.97,0.08,-0.01,0.21
1697353562.08,-0.1,0.28,1.17,0,0.4,47.7,0.97,0.08,-0.01,0.21
1697353562.09,0.08,0.24,1.05,0.5,0.6,47.7,0.97,0.08,-0.01,0.22
1697353562.1,0.08,0.24,1.05,0.5,0.6,47.7,0.97,0.08,-0.01,0.22
1697353562.11,0.12,0.29,1.08,0.4,0.4,47.3,0.97,0.08,-0.01,0.22
1697353562.12,0.14,0.29,0.86,0.2,0.2,47.3,0.97,0.08,-0.01,0.22
1697353562.13,0,0.34,1.06,0,-0.1,47.5,0.97,0.08,-0.01,0.23
1697353562.14,0.02,0.33,0.87,-0.6,-0.4,48,0.97,0.08,-0.01,0.23
1697353562.15,0.02,0.33,0.87,-0.6,-0.4,48,0.97,0.08,-0.01,0.24
1697353562.16,0.02,0.33,0.87,-0.6,-0.4,48,0.97,0.08,-0.01,0.24
1697353562.17,0.02,0.33,0.87,-0.6,-0.4,48,0.97,0.08,-0.01,0.24
1697353562.18,0.02,0.33,0.87,-0.6,-0.4,48,0.97,0.08,-0.01,0.24
1697353562.19,0.02,0.33,0.87,-0.6,-0.4,48,0.97,0.08,-0.01,0.24
1697353562.2,0.02,0.33,0.87,-0.6,-0.4,48,0.97,0.08,-0.01,0.24
1697353562.21,0.02,0.33,0.87,-0.6,-0.4,48,0.97,0.08,-0.01,0.24
1697353562.22,0.02,0.33,0.87,-0.6,-0.4,48,0.97,0.08,-0.01,0.24
1697353562.23,0.02,0.33,0.87,-0.6,-0.4,48,0.97,0.08,-0.01,0.24
1697353562.24,0.02,0.33,0.87,-0.6,-0.4,48,0.97,0.08,-0.01,0.24
1697353562.25,0.02,0.33,0.87,-0.6,-0.4,48,0.97,0.08,-0.01,0.24
1697353562.26,0.02,0.33,0.87,-0.6,-0.4,48,0.97,0.08,-0.01,0.24
1697353562.27,0.02,0.33,0.87,-0.6,-0.4,48,0.97,0.08,-0.01,0.24
1697353562.28,0.02,0.33,0.87,-0.6,-0.4,48,0.97,0.08,-0.01,0.24
1697353562.29,0.02,0.33,0.87,-0.6,-0.4,48,0.97,0.08,-0.01,0.24
1697353562.3,0.02,0.33,0.87,-0.6,-0.4,48,0.97,0.08,-0.01,0.24
1697353562.31,0.02,0.33,0.87,-0.6,-0.4,48,0.97,0.08,-0.01,0.24
1697353562.32,0.02,0.33,0.87,-0.6,-0.4,48,0.97,0.08,-0.01,0.24
1697353562.33,0.02,0.33,0.87,-0.6,-0.4,48,0.97,0.08,-0.01,0.24
1697353562.34,0.02,0.33,0.87,-0.6,-0.4,48,0.97,0.08,-0.01,0.24
1697353562.35,0.02,0.33,0.87,-0.6,-0.4,48,0.97,0.08,-0.01,0.24
1697353562.36,0.02,0.33,0.87,-0.6,-0.4,48,0.97,0.08,-0.01,0.24
1697353562.37,0.02,0.33,0.87,-0.6,-0.4,48,0.97,0.08,-0.01,0.24
1697353562.38,0.02,0.33,0.87,-0.6,-0.4,48,0.97,0.08,-0.01,0.24
1697353562.39,0.02,0.33,0.87,-0.6,-0.4,48,0.97,0.08,-0.01,0.24
1697353562.4,0.02,0.33,0.87,-0.6,-0.4,48,0.97,0.08,-0.01,0.24
1697353562.41,0.02,0.33,0.87,-0.6,-0.4,48,0.97,0.08,-0.01,0.24
1697353562.42,0.02,0.33,0.87,-0.6,-0.4,48,0.97,0.08,-0.01,0.24
1697353562.43,0.02,0.33,0.87,-0.6,-0.4,48,0.97,0.08,-0.01,0.24
1697353562.44,0.02,0.33,0.87,-0.6,-0.4,48,0.97,0.08,-0.01,0.24
1697353562.45,0.02,0.33,0.87,-0.6,-0.4,48,0.97,0.08,-0.01,0.24
1697353562.46,0.02,0.33,0.87,-0.6,-0.4,48,0.97,0.08,-0.01,0.24
1697353562.47,0.02,0.33,0.87,-0.6,-0.4,48,0.97,0.08,-0.01,0.24
1697353562.48,0.02,0.33,0.87,-0.6,-0.4,48,0.97,0.08,-0.01,0.24
1697353562.49,0.02,0.33,0.87,-0.6,-0.4,48,0.97,0.08,-0.01,0.24
1697353562.5,0.02,0.33,0.87,-0.6,-0.4,48,0.97,0.08,-0.01,0.24
1697353562.51,0.02,0.33,0.87,-0.6,-0.4,48,0.97,0.08,-0.01,0.24
1697353562.52,0.02,0.33,0.87,-0.6,-0.4,48,0.97,0.08,-0.01,0.24
1697353562.53,0.02,0.33,0.87,-0.6,-0.4,48,0.97,0.08,-0.01,0.24
1697353562.54,0.02,0.33,0.87,-0.6,-0.4,48,0.97,0.08,-0.01,0.24
1697353562.55,0.02,0.33,0.87,-0.6,-0.4,48,0.97,0.08,-0.01,0.24
1697353562.56,0.02,0.33,0.87,-0.6,-0.4,48,0.97,0.08,-0.01,0.24
1697353562.57,0.02,0.33,0.87,-0.6,-0.4,48,0.97,0.08,-0.01,0.24
1697353562.58,0.02,0.33,0.87,-0.6,-0.4,48,0.97,0.08,-0.01,0.24
1697353562.59,0.02,0.33,0.87,-0.6,-0.4,48,0.97,0.08,-0.01,0.24
1697353562.6,0.02,0.33,0.87,-0.6,-0.4,48,0.97,0.08,-0.01,0.24
1697353562.61,0.02,0.33,0.87,-0.6,-0.4,48,0.97,0.08,-0.01,0.24
1697353562.62,-0.06,0.29,1.06,-0.7,1.6,51,0.9,0.08,-0.03,0.43
1697353562.63,0.02,0.27,1.11,-0.4,1.3,50.8,0.9,0.08,-0.03,0.43
1697353562.64,-0.04,0.24,1.06,-0.4,1.3,50.8,0.9,0.08,-0.03,0.44
1697353562.65,0.1,0.22,0.54,-0.8,0.6,50.1,0.89,0.08,-0.03,0.44
1697353562.66,0.1,0.22,0.54,-0.8,0.6,50.1,0.89,0.08,-0.03,0.44
1697353562.67,-0.02,0.35,0.98,-1.2,1.6,50.1,0.89,0.08,-0.03,0.45
1697353562.68,-0.01,0.36,1.03,0.7,1.5,49.9,0.89,0.08,-0.03,0.45
1697353562.69,-0.01,0.36,1.03,0.7,1.5,49.9,0.89,0.08,-0.03,0.46
1697353562.7,-0.03,0.28,0.97,2.4,1.2,50.3,0.88,0.08,-0.03,0.46
1697353562.71,-0.03,0.28,0.97,2.4,1.2,50.3,0.88,0.08,-0.03,0.46
1697353562.72,-0,0.32,0.99,1.1,1.2,50.6,0.88,0.08,-0.03,0.47
1697353562.73,-0,0.32,0.99,1.1,1.2,50.6,0.88,0.08,-0.03,0.47
1697353562.74,-0.08,0.37,1.01,0.7,1.4,50.9,0.88,0.08,-0.03,0.48
1697353562.75,-0.08,0.37,1.01,0.7,1.3,51.2,0.87,0.08,-0.03,0.48
1697353562.76,-0.06,0.34,1.08,1.5,1.4,51.2,0.87,0.08,-0.03,0.48
1697353562.77,0,0.28,0.81,2,1.5,51.3,0.87,0.08,-0.03,0.49
1697353562.78,0,0.31,1,2.1,1.7,51.2,0.87,0.08,-0.03,0.49
1697353562.79,0.02,0.33,1.01,1.1,1.3,51,0.86,0.08,-0.03,0.5
1697353562.8,-0.04,0.39,1.21,0.1,1,50.9,0.86,0.08,-0.03,0.5
1697353562.81,-0.02,0.4,1.03,0,0.5,50.8,0.86,0.08,-0.03,0.5
1697353562.82,-0.02,0.41,0.74,0.4,0,50.8,0.86,0.08,-0.03,0.51
1697353562.83,-0.09,0.35,1.08,0.3,0,50.7,0.86,0.08,-0.03,0.51
1697353562.84,-0.01,0.4,1.01,0.1,0,50.7,0.86,0.08,-0.03,0.51
1697353562.85,-0.03,0.38,0.86,0,-0.4,50.7,0.85,0.08,-0.03,0.51
1697353562.86,-0.07,0.3,0.88,0,0,50.4,0.85,0.08,-0.03,0.52
1697353562.87,-0.07,0.28,0.8,0,0.4,50.2,0.85,0.08,-0.03,0.53
1697353562.88,-0.1,0.3,1.08,-1.4,0.9,50.2,0.85,0.08,-0.03,0.53
1697353562.89,-0.03,0.37,0.94,-2,1.4,49.8,0.84,0.08,-0.04,0.53
1697353562.9,-0.03,0.33,1.23,-1.3,1.6,49.7,0.84,0.08,-0.04,0.53
1697353562.91,0,0.3,0.91,-1.1,1.6,50,0.84,0.08,-0.04,0.54
1697353562.92,-0.04,0.33,0.99,-1.4,1.1,50,0.83,0.08,-0.04,0.55
1697353562.93,-0.02,0.36,0.79,-1.8,0.6,50.2,0.83,0.08,-0.04,0.55
1697353562.94,-0.07,0.43,1.25,-2.2,-0.2,50.7,0.83,0.08,-0.04,0.55
1697353562.95,-0.02,0.48,0.92,-0.5,-1.2,51.3,0.83,0.08,-0.04,0.55
1697353562.96,-0,0.16,0.79,-0.5,-1.2,51.3,0.83,0.08,-0.04,0.56
1697353562.97,-0.02,0.2,0.9,2.6,0,51.1,0.82,0.08,-0.04,0.56
1697353562.98,-0.04,0.11,1.17,2.2,0.8,50.4,0.82,0.08,-0.04,0.56
1697353562.99,-0.08,0.23,1.03,0.8,1,50,0.82,0.08,-0.04,0.57
1697353563,-0.12,0.35,1.05,-0.3,0.6,49.7,0.82,0.07,-0.04,0.57
1697353563.01,-0.12,0.35,1.05,-0.3,0.6,49.7,0.82,0.07,-0.04,0.57
1697353563.02,-0.12,0.35,1.05,-0.3,0.6,49.7,0.82,0.07,-0.04,0.57
1697353563.03,-0.12,0.35,1.05,-0.3,0.6,49.7,0.82,0.07,-0.04,0.57
1697353563.04,-0.12,0.35,1.05,-0.3,0.6,49.7,0.82,0.07,-0.04,0.57
1697353563.05,-0.12,0.35,1.05,-0.3,0.6,49.7,0.82,0.07,-0.04,0.57
1697353563.06,-0.12,0.35,1.05,-0.3,0.6,49.7,0.82,0.07,-0.04,0.57
1697353563.07,-0.12,0.35,1.05,-0.3,0.6,49.7,0.82,0.07,-0.04,0.57
1697353563.08,-0.12,0.35,1.05,-0.3,0.6,49.7,0.82,0.07,-0.04,0.57
1697353563.09,-0.12,0.35,1.05,-0.3,0.6,49.7,0.82,0.07,-0.04,0.57
1697353563.1,-0.12,0.35,1.05,-0.3,0.6,49.7,0.82,0.07,-0.04,0.57
1697353563.11,-0.12,0.35,1.05,-0.3,0.6,49.7,0.82,0.07,-0.04,0.57
1697353563.12,-0.12,0.35,1.05,-0.3,0.6,49.7,0.82,0.07,-0.04,0.57
1697353563.13,-0.12,0.35,1.05,-0.3,0.6,49.7,0.82,0.07,-0.04,0.57
1697353563.14,-0.12,0.35,1.05,-0.3,0.6,49.7,0.82,0.07,-0.04,0.57
1697353563.15,-0.12,0.35,1.05,-0.3,0.6,49.7,0.82,0.07,-0.04,0.57
1697353563.16,-0.12,0.35,1.05,-0.3,0.6,49.7,0.82,0.07,-0.04,0.57
1697353563.17,-0.12,0.35,1.05,-0.3,0.6,49.7,0.82,0.07,-0.04,0.57
1697353563.18,-0.12,0.35,1.05,-0.3,0.6,49.7,0.82,0.07,-0.04,0.57
1697353563.19,-0.12,0.35,1.05,-0.3,0.6,49.7,0.82,0.07,-0.04,0.57
1697353563.2,-0.12,0.35,1.05,-0.3,0.6,49.7,0.82,0.07,-0.04,0.57
1697353563.21,-0.12,0.35,1.05,-0.3,0.6,49.7,0.82,0.07,-0.04,0.57
1697353563.22,-0.12,0.35,1.05,-0.3,0.6,49.7,0.82,0.07,-0.04,0.57
1697353563.23,-0.12,0.35,1.05,-0.3,0.6,49.7,0.82,0.07,-0.04,0.57
1697353563.24,-0.12,0.35,1.05,-0.3,0.6,49.7,0.82,0.07,-0.04,0.57
1697353563.25,-0.12,0.35,1.05,-0.3,0.6,49.7,0.82,0.07,-0.04,0.57
1697353563.26,-0.12,0.35,1.05,-0.3,0.6,49.7,0.82,0.07,-0.04,0.57
1697353563.27,-0.12,0.35,1.05,-0.3,0.6,49.7,0.82,0.07,-0.04,0.57
1697353563.28,-0.12,0.35,1.05,-0.3,0.6,49.7,0.82,0.07,-0.04,0.57
1697353563.29,-0.12,0.35,1.05,-0.3,0.6,49.7,0.82,0.07,-0.04,0.57
1697353563.3,-0.12,0.35,1.05,-0.3,0.6,49.7,0.82,0.07,-0.04,0.57
1697353563.31,-0.12,0.35,1.05,-0.3,0.6,49.7,0.82,0.07,-0.04,0.57
1697353563.32,-0.12,0.35,1.05,-0.3,0.6,49.7,0.82,0.07,-0.04,0.57
1697353563.33,-0.12,0.35,1.05,-0.3,0.6,49.7,0.82,0.07,-0.04,0.57
1697353563.34,-0.12,0.35,1.05,-0.3,0.6,49.7,0.82,0.07,-0.04,0.57
1697353563.35,-0.12,0.35,1.05,-0.3,0.6,49.7,0.82,0.07,-0.04,0.57
1697353563.36,-0.12,0.35,1.05,-0.3,0.6,49.7,0.82,0.07,-0.04,0.57
1697353563.37,-0.12,0.35,1.05,-0.3,0.6,49.7,0.82,0.07,-0.04,0.57
1697353563.38,-0.12,0.35,1.05,-0.3,0.6,49.7,0.82,0.07,-0.04,0.57
1697353563.39,-0.12,0.35,1.05,-0.3,0.6,49.7,0.82,0.07,-0.04,0.57
1697353563.4,-0.12,0.35,1.05,-0.3,0.6,49.7,0.82,0.07,-0.04,0.57
1697353563.41,-0.12,0.35,1.05,-0.3,0.6,49.7,0.82,0.07,-0.04,0.57
1697353563.42,-0.12,0.35,1.05,-0.3,0.6,49.7,0.82,0.07,-0.04,0.57
1697353563.43,-0.12,0.35,1.05,-0.3,0.6,49.7,0.82,0.07,-0.04,0.57
1697353563.44,-0.12,0.35,1.05,-0.3,0.6,49.7,0.82,0.07,-0.04,0.57
1697353563.45,-0.12,0.35,1.05,-0.3,0.6,49.7,0.82,0.07,-0.04,0.57
1697353563.46,-0.12,0.35,1.05,-0.3,0.6,49.7,0.82,0.07,-0.04,0.57
1697353563.47,-0.12,0.35,1.05,-0.3,0.6,49.7,0.82,0.07,-0.04,0.57
1697353563.48,-0.12,0.35,1.05,-0.3,0.6,49.7,0.82,0.07,-0.04,0.57
1697353563.49,-0.12,0.35,1.05,-0.3,0.6,49.7,0.82,0.07,-0.04,0.57
1697353563.5,-0.12,0.35,1.05,-0.3,0.6,49.7,0.82,0.07,-0.04,0.57
1697353563.51,-0.12,0.35,1.05,-0.3,0.6,49.7,0.82,0.07,-0.04,0.57
1697353563.52,-0.12,0.35,1.05,-0.3,0.6,49.7,0.82,0.07,-0.04,0.57
1697353563.53,-0.12,0.35,1.05,-0.3,0.6,49.7,0.82,0.07,-0.04,0.57
1697353563.54,-0.12,0.35,1.05,-0.3,0.6,49.7,0.82,0.07,-0.04,0.57
1697353563.55,-0.12,0.35,1.05,-0.3,0.6,49.7,0.82,0.07,-0.04,0.57
1697353563.56,-0.12,0.35,1.05,-0.3,0.6,49.7,0.82,0.07,-0.04,0.57
1697353563.57,-0.12,0.35,1.05,-0.3,0.6,49.7,0.82,0.07,-0.04,0.57
1697353563.58,-0.12,0.35,1.05,-0.3,0.6,49.7,0.82,0.07,-0.04,0.57
1697353563.59,-0.12,0.35,1.05,-0.3,0.6,49.7,0.82,0.07,-0.04,0.57
1697353563.6,-0.12,0.35,1.05,-0.3,0.6,49.7,0.82,0.07,-0.04,0.57
1697353563.61,-0.12,0.35,1.05,-0.3,0.6,49.7,0.82,0.07,-0.04,0.57
1697353563.62,-0.12,0.35,1.05,-0.3,0.6,49.7,0.82,0.07,-0.04,0.57
1697353563.63,-0.12,0.35,1.05,-0.3,0.6,49.7,0.82,0.07,-0.04,0.57
1697353563.64,0.07,-0.01,1.03,-1.2,-1.2,26,0.66,0.06,-0.04,0.75
1697353563.65,0,0.02,1.02,-1,-0.9,24.8,0.66,0.06,-0.04,0.75
1697353563.66,-0.05,0.02,0.89,-0.4,-1,23.4,0.66,0.06,-0.04,0.75
1697353563.67,0.02,-0.02,1,0,-1,21.9,0.66,0.06,-0.04,0.75
1697353563.68,0.03,-0.04,0.93,-0.3,-0.8,20.6,0.65,0.06,-0.04,0.75
1697353563.69,0.06,-0.09,0.93,-0.5,-0.8,19.2,0.65,0.06,-0.04,0.75
1697353563.7,0.04,-0.03,0.98,-1.4,-0.3,18.1,0.65,0.06,-0.04,0.76
1697353563.71,0.11,-0.04,1.08,-1.4,-0.3,18.1,0.65,0.06,-0.04,0.76
1697353563.72,0.1,-0.1,1.11,-1.2,0.5,15.8,0.65,0.06,-0.04,0.76
1697353563.73,0,-0.15,0.95,-1,0.7,14.8,0.65,0.06,-0.04,0.76
1697353563.74,0.02,-0.4,0.84,-0.9,1,13.7,0.65,0.06,-0.04,0.76
1697353563.75,0.08,-0.13,0.75,-1,1.2,12.1,0.64,0.06,-0.04,0.76
1697353563.76,0.08,-0.13,0.75,-1,1.2,12.1,0.64,0.06,-0.04,0.76
1697353563.77,0.05,-0.21,1.24,0.1,1.8,8.7,0.64,0.05,-0.04,0.76
1697353563.78,0.05,-0.21,1.24,0.1,1.8,8.7,0.64,0.05,-0.04,0.76
1697353563.79,0.14,-0.32,1.04,-0.7,1.9,5,0.64,0.05,-0.04,0.76
1697353563.8,0.1,-0.26,0.86,-0.7,1.9,5,0.64,0.05,-0.04,0.76
1697353563.81,0.08,-0.25,0.74,-2.3,1.2,3,0.64,0.05,-0.04,0.76
1697353563.82,0.05,-0.11,0.89,-2.7,0.4,1.2,0.64,0.05,-0.04,0.76
1697353563.83,0.11,-0.14,0.89,-1.2,-0.6,-1.2,0.64,0.05,-0.04,0.76
1697353563.84,0.02,-0.19,1.09,-1.2,-0.6,-1.2,0.64,0.05,-0.04,0.76
1697353563.85,0.12,-0.19,0.89,-0.8,-0.8,-2.3,0.64,0.05,-0.04,0.76
1697353563.86,0.12,-0.19,0.89,-0.8,-0.8,-3.6,0.64,0.05,-0.04,0.76
1697353563.87,-0.04,-0.27,1.11,-1.7,-0.6,-4.4,0.64,0.05,-0.05,0.76
1697353563.88,-0.01,-0.25,0.93,-2.6,0,-5.4,0.64,0.05,-0.05,0.76
1697353563.89,0.02,-0.23,0.89,-3.2,-0.2,-6.2,0.64,0.05,-0.05,0.76
1697353563.9,-0.03,-0.26,1.26,-2.7,-0.2,-7.3,0.64,0.05,-0.05,0.76
1697353563.91,-0.03,-0.26,1.26,-1.2,0,-8.4,0.64,0.05,-0.05,0.76
1697353563.92,-0,-0.26,1.18,-0.2,0.3,-9.3,0.64,0.05,-0.05,0.76
1697353563.93,0.03,-0.27,1.05,0.4,0.2,-10.4,0.65,0.05,-0.05,0.76
1697353563.94,0.03,-0.34,0.97,0.2,0,-11.3,0.65,0.05,-0.05,0.76
1697353563.95,0.04,-0.39,1.17,-0.6,-0.3,-12.4,0.65,0.05,-0.05,0.76
1697353563.96,0.03,-0.31,1.14,-1,-0.9,-13.4,0.65,0.05,-0.05,0.76
1697353563.97,0.01,-0.15,1.07,-0.8,-1.5,-14.4,0.65,0.05,-0.05,0.76
1697353563.98,-0.01,-0.12,1,0.6,-2,-15.2,0.65,0.05,-0.05,0.76
1697353563.99,-0.04,-0.22,0.88,2.2,-1.2,-15.8,0.65,0.05,-0.05,0.76
1697353564,-0.07,-0.33,0.97,3.1,0.2,-17,0.65,0.05,-0.05,0.76
1697353564.01,-0.05,-0.31,1.15,3.1,0.2,-17,0.65,0.05,-0.05,0.75
1697353564.02,-0.01,-0.46,0.96,-0.1,1.1,-19,0.65,0.05,-0.05,0.75
1697353564.03,0.01,-0.34,1.1,-1.7,1.4,-20.3,0.66,0.05,-0.05,0.75
1697353564.04,0.06,-0.24,0.98,-1.7,1.4,-20.3,0.66,0.05,-0.05,0.75
1697353564.05,0.06,-0.24,0.98,-1.7,1.4,-20.3,0.66,0.05,-0.05,0.75
1697353564.06,0.06,-0.24,0.98,-1.7,1.4,-20.3,0.66,0.05,-0.05,0.75
1697353564.07,0.06,-0.24,0.98,-1.7,1.4,-20.3,0.66,0.05,-0.05,0.75
1697353564.08,0.06,-0.24,0.98,-1.7,1.4,-20.3,0.66,0.05,-0.05,0.75
1697353564.09,0.06,-0.24,0.98,-1.7,1.4,-20.3,0.66,0.05,-0.05,0.75
1697353564.1,0.06,-0.24,0.98,-1.7,1.4,-20.3,0.66,0.05,-0.05,0.75
1697353564.11,0.06,-0.24,0.98,-1.7,1.4,-20.3,0.66,0.05,-0.05,0.75
1697353564.12,0.06,-0.24,0.98,-1.7,1.4,-20.3,0.66,0.05,-0.05,0.75
1697353564.13,0.06,-0.24,0.98,-1.7,1.4,-20.3,0.66,0.05,-0.05,0.75
1697353564.14,0.06,-0.24,0.98,-1.7,1.4,-20.3,0.66,0.05,-0.05,0.75
1697353564.15,0.06,-0.24,0.98,-1.7,1.4,-20.3,0.66,0.05,-0.05,0.75
1697353564.16,0.06,-0.24,0.98,-1.7,1.4,-20.3,0.66,0.05,-0.05,0.75
1697353564.17,0.06,-0.24,0.98,-1.7,1.4,-20.3,0.66,0.05,-0.05,0.75
1697353564.18,0.06,-0.24,0.98,-1.7,1.4,-20.3,0.66,0.05,-0.05,0.75
1697353564.19,0.06,-0.24,0.98,-1.7,1.4,-20.3,0.66,0.05,-0.05,0.75
1697353564.2,0.06,-0.24,0.98,-1.7,1.4,-20.3,0.66,0.05,-0.05,0.75
1697353564.21,0.06,-0.24,0.98,-1.7,1.4,-20.3,0.66,0.05,-0.05,0.75
1697353564.22,0.06,-0.24,0.98,-1.7,1.4,-20.3,0.66,0.05,-0.05,0.75
1697353564.23,0.06,-0.24,0.98,-1.7,1.4,-20.3,0.66,0.05,-0.05,0.75
1697353564.24,0.06,-0.24,0.98,-1.7,1.4,-20.3,0.66,0.05,-0.05,0.75
1697353564.25,0.06,-0.24,0.98,-1.7,1.4,-20.3,0.66,0.05,-0.05,0.75
1697353564.26,0.06,-0.24,0.98,-1.7,1.4,-20.3,0.66,0.05,-0.05,0.75
1697353564.27,0.06,-0.24,0.98,-1.7,1.4,-20.3,0.66,0.05,-0.05,0.75
1697353564.28,0.06,-0.24,0.98,-1.7,1.4,-20.3,0.66,0.05,-0.05,0.75
1697353564.29,0.06,-0.24,0.98,-1.7,1.4,-20.3,0.66,0.05,-0.05,0.75
1697353564.3,0.06,-0.24,0.98,-1.7,1.4,-20.3,0.66,0.05,-0.05,0.75
1697353564.31,0.06,-0.24,0.98,-1.7,1.4,-20.3,0.66,0.05,-0.05,0.75
1697353564.32,0.06,-0.24,0.98,-1.7,1.4,-20.3,0.66,0.05,-0.05,0.75
1697353564.33,0.06,-0.24,0.98,-1.7,1.4,-20.3,0.66,0.05,-0.05,0.75
1697353564.34,0.06,-0.24,0.98,-1.7,1.4,-20.3,0.66,0.05,-0.05,0.75
1697353564.35,0.06,-0.24,0.98,-1.7,1.4,-20.3,0.66,0.05,-0.05,0.75
1697353564.36,0.06,-0.24,0.98,-1.7,1.4,-20.3,0.66,0.05,-0.05,0.75
1697353564.37,0.06,-0.24,0.98,-1.7,1.4,-20.3,0.66,0.05,-0.05,0.75
1697353564.38,0.06,-0.24,0.98,-1.7,1.4,-20.3,0.66,0.05,-0.05,0.75
1697353564.39,0.06,-0.24,0.98,-1.7,1.4,-20.3,0.66,0.05,-0.05,0.75
1697353564.4,0.06,-0.24,0.98,-1.7,1.4,-20.3,0.66,0.05,-0.05,0.75
1697353564.41,0.06,-0.24,0.98,-1.7,1.4,-20.3,0.66,0.05,-0.05,0.75
1697353564.42,0.06,-0.24,0.98,-1.7,1.4,-20.3,0.66,0.05,-0.05,0.75
1697353564.43,0.01,-0.25,0.88,-1.7,1.4,-20.3,0.66,0.05,-0.05,0.75
1697353564.44,-0.04,-0.25,1.12,-0.7,-1.3,-28.7,0.73,0.05,-0.04,0.69
1697353564.45,-0.09,-0.21,1.05,-0.4,-1,-28.8,0.73,0.05,-0.04,0.68
1697353564.46,-0.1,-0.24,1.07,0,-0.7,-28.8,0.73,0.05,-0.04,0.68
1697353564.47,-0.08,-0.24,1.13,0.2,-0.3,-28.9,0.73,0.05,-0.04,0.68
1697353564.48,-0.01,-0.25,0.99,0,0.1,-28.8,0.73,0.05,-0.04,0.68
1697353564.49,-0.06,-0.22,1.32,0.1,0.4,-28.8,0.73,0.05,-0.04,0.68
1697353564.5,-0.01,-0.27,1.12,0.3,0.5,-28.7,0.74,0.05,-0.04,0.67
1697353564.51,0.06,-0.23,0.97,0,0.4,-28.7,0.74,0.05,-0.04,0.67
1697353564.52,0.03,-0.22,1.09,-0.1,0.2,-28.8,0.74,0.05,-0.04,0.67
1697353564.53,0.03,-0.22,1.09,-0.1,0.2,-28.8,0.74,0.05,-0.04,0.67
1697353564.54,0.02,-0.23,1.11,-0.4,0.1,-28.8,0.74,0.05,-0.04,0.67
1697353564.55,-0.01,-0.26,1.05,-0.3,0,-29,0.74,0.05,-0.04,0.66
1697353564.56,-0.01,-0.26,1.05,-0.3,0,-29,0.74,0.05,-0.04,0.66
1697353564.57,-0.04,-0.18,1.12,0.5,-0.9,-29,0.75,0.05,-0.04,0.66
1697353564.58,-0.04,-0.18,1.12,0.5,-0.9,-29,0.75,0.05,-0.04,0.66
1697353564.59,-0.04,-0.28,0.93,-1.9,-1.1,-29.2,0.75,0.05,-0.04,0.66
1697353564.6,-0.01,-0.35,0.93,-3.7,-0.4,-29,0.75,0.05,-0.04,0.66
1697353564.61,0.01,-0.11,0.89,-3.7,-0.4,-29,0.75,0.05,-0.04,0.65
1697353564.62,-0.03,-0.03,1,-0.9,0.3,-27.8,0.75,0.05,-0.04,0.65
1697353564.63,-0.08,-0.15,0.97,2.7,0.8,-27.6,0.76,0.05,-0.04,0.65
1697353564.64,0.06,-0.26,0.81,2.7,0.8,-27.6,0.76,0.05,-0.04,0.65
1697353564.65,0.07,-0.42,0.89,4.3,1.4,-27.7,0.76,0.05,-0.04,0.65
1697353564.66,0.07,-0.42,0.89,2.1,2.1,-27.8,0.76,0.05,-0.04,0.65
1697353564.67,0.01,-0.4,1,-1,2.4,-28.3,0.76,0.05,-0.04,0.64
1697353564.68,0.06,-0.28,0.94,-3.7,2.6,-28.4,0.76,0.05,-0.04,0.64
1697353564.69,-0,-0.18,1.18,-3.5,2.5,-28.5,0.77,0.05,-0.04,0.64
1697353564.7,0.02,-0.16,1.09,-1.5,1.8,-28.7,0.77,0.05,-0.04,0.64
1697353564.71,-0.01,-0.23,1.11,1.1,0.9,-28.9,0.77,0.05,-0.04,0.64
1697353564.72,0.05,-0.27,1.06,2,0,-29,0.77,0.05,-0.04,0.63
1697353564.73,0.05,-0.29,0.86,1.1,-0.2,-29.2,0.77,0.05,-0.04,0.63
1697353564.74,-0.07,-0.27,1.13,-0.5,-0.5,-29.2,0.77,0.05,-0.04,0.63
1697353564.75,-0.04,-0.23,1.09,-1.3,-1,-29.2,0.78,0.05,-0.04,0.63
1697353564.76,0.11,-0.18,0.7,-1.4,-1.1,-29.1,0.78,0.05,-0.04,0.63
1697353564.77,-0.02,-0.19,1.02,-0.7,-1.1,-29.1,0.78,0.05,-0.04,0.62
1697353564.78,0.03,-0.23,0.83,0.3,-0.9,-28.9,0.78,0.05,-0.04,0.62
1697353564.79,-0.01,-0.28,1.06,0.8,-1.1,-28.9,0.78,0.05,-0.04,0.62
1697353564.8,0,-0.28,0.85,0.8,-0.9,-28.9,0.78,0.05,-0.04,0.62
1697353564.81,0,-0.28,0.85,0.8,-0.9,-28.9,0.78,0.05,-0.04,0.62
1697353564.82,0.05,-0.31,0.88,0,-0.7,-28.8,0.79,0.05,-0.04,0.62
1697353564.83,0.05,-0.31,0.88,0,-0.7,-28.8,0.79,0.05,-0.04,0.62
1697353564.84,0.05,-0.31,0.88,0,-0.7,-28.8,0.79,0.05,-0.04,0.62
1697353564.85,0.05,-0.31,0.88,0,-0.7,-28.8,0.79,0.05,-0.04,0.62
1697353564.86,0.05,-0.31,0.88,0,-0.7,-28.8,0.79,0.05,-0.04,0.62
1697353564.87,0.05,-0.31,0.88,0,-0.7,-28.8,0.79,0.05,-0.04,0.62
1697353564.88,0.05,-0.31,0.88,0,-0.7,-28.8,0.79,0.05,-0.04,0.62
1697353564.89,0.05,-0.31,0.88,0,-0.7,-28.8,0.79,0.05,-0.04,0.62
1697353564.9,0.05,-0.31,0.88,0,-0.7,-28.8,0.79,0.05,-0.04,0.62
1697353564.91,0.05,-0.31,0.88,0,-0.7,-28.8,0.79,0.05,-0.04,0.62
1697353564.92,0.05,-0.31,0.88,0,-0.7,-28.8,0.79,0.05,-0.04,0.62
1697353564.93,0.05,-0.31,0.88,0,-0.7,-28.8,0.79,0.05,-0.04,0.62
1697353564.94,0.05,-0.31,0.88,0,-0.7,-28.8,0.79,0.05,-0.04,0.62
1697353564.95,0.03,-0.24,0.7,0.6,2.3,-29.2,0.79,0.05,-0.04,0.62
1697353564.96,0.03,-0.16,1.05,-2.5,1.7,-29.4,0.81,0.05,-0.04,0.59
1697353564.97,0.04,-0.16,0.85,-1.7,1.2,-29.4,0.81,0.05,-0.04,0.58
1697353564.98,-0.06,-0.22,1.07,-0.4,0.7,-29.2,0.81,0.05,-0.04,0.58
1697353564.99,0.01,-0.23,0.99,0.9,0.6,-29.2,0.81,0.05,-0.04,0.58
1697353565,-0.02,-0.28,1.06,1.1,0.5,-29.3,0.81,0.05,-0.04,0.58
1697353565.01,-0.01,-0.27,0.88,0.1,0.5,-29.1,0.81,0.05,-0.04,0.58
1697353565.02,-0.07,-0.22,1.02,-0.4,0.5,-29.3,0.82,0.05,-0.04,0.57
1697353565.03,-0.01,-0.26,0.87,0,0.6,-29.1,0.82,0.05,-0.04,0.57
1697353565.04,-0.01,-0.26,1.11,0,0.6,-29.1,0.82,0.05,-0.04,0.57
1697353565.05,-0.07,-0.3,1.07,0.4,0.7,-28.8,0.82,0.05,-0.04,0.57
1697353565.06,-0.07,-0.3,1.07,0.4,0.7,-28.8,0.82,0.05,-0.04,0.57
1697353565.07,0.02,-0.19,1.01,0.5,1.4,-28.6,0.82,0.05,-0.04,0.56
1697353565.08,0.02,-0.19,1.01,0.5,1.4,-28.6,0.83,0.05,-0.04,0.56
1697353565.09,0.03,-0.28,1.1,2.8,1.3,-28.6,0.83,0.05,-0.03,0.56
1697353565.1,-0.02,-0.3,1.1,2.8,1.3,-28.6,0.83,0.05,-0.03,0.56
1697353565.11,-0.02,-0.24,1.2,2.1,0.7,-28.8,0.83,0.05,-0.03,0.56
1697353565.12,-0.02,-0.24,1.2,1,0,-29.1,0.83,0.05,-0.03,0.55
1697353565.13,-0.02,-0.18,0.84,0.7,-0.3,-29.3,0.83,0.04,-0.03,0.55
1697353565.14,-0.02,-0.19,1.15,0.7,-0.3,-29.3,0.83,0.04,-0.03,0.55
1697353565.15,0.05,-0.19,0.96,1.3,-0.4,-29.3,0.84,0.04,-0.03,0.55
1697353565.16,0.05,-0.19,0.96,2.4,-0.6,-29.5,0.84,0.04,-0.03,0.55
1697353565.17,0.03,-0.3,0.99,2.8,-0.6,-29.5,0.84,0.04,-0.03,0.54
1697353565.18,-0.05,-0.32,1.11,1.8,-0.8,-29.4,0.84,0.04,-0.03,0.54
1697353565.19,0.05,-0.22,0.97,0,-0.9,-29.5,0.84,0.04,-0.03,0.54
1697353565.2,0.06,-0.29,1.05,-1.8,-0.3,-29.3,0.84,0.04,-0.03,0.54
1697353565.21,0.07,-0.12,0.9,-2.3,0.5,-29.1,0.84,0.04,-0.03,0.53
1697353565.22,0.04,-0.12,1.09,0.3,1.4,-28.5,0.85,0.04,-0.03,0.53
1697353565.23,0.07,-0.22,1.25,2.2,1.6,-28.2,0.85,0.04,-0.03,0.53
1697353565.24,0.07,-0.34,1.16,2.5,1.5,-28.4,0.85,0.04,-0.03,0.53
1697353565.25,0.1,-0.38,1.21,1.1,1,-28.6,0.85,0.04,-0.03,0.53
1697353565.26,0.1,-0.38,1.22,-1,0.4,-28.7,0.85,0.04,-0.03,0.52
1697353565.27,0.18,-0.26,1.14,-2.2,0,-29.1,0.85,0.04,-0.03,0.52
1697353565.28,0.15,-0.21,0.99,-1.9,-0.5,-29.1,0.85,0.04,-0.03,0.52
1697353565.29,0.16,-0.23,0.98,-0.5,-1,-29,0.85,0.04,-0.03,0.52
1697353565.3,0.17,-0.18,1.1,1.2,-1.2,-28.9,0.85,0.04,-0.03,0.52
1697353565.31,0.17,-0.29,1.05,1.5,-1.1,-28.6,0.86,0.04,-0.03,0.51
1697353565.32,0.1,-0.35,1.24,1.2,-1.1,-28.6,0.86,0.04,-0.03,0.51
1697353565.33,0.16,-0.36,0.93,-0.1,-0.8,-28.9,0.86,0.04,-0.03,0.51
1697353565.34,0.16,-0.26,1,-1,-0.5,-29,0.86,0.04,-0.03,0.51
1697353565.35,0.14,-0.16,1.16,-1,-0.5,-29,0.86,0.04,-0.03,0.51
1697353565.36,0.14,-0.16,1.16,-1,-0.5,-29,0.86,0.04,-0.03,0.51
1697353565.37,0.14,-0.16,1.16,-1,-0.5,-29,0.86,0.04,-0.03,0.51
1697353565.38,0.14,-0.16,1.16,-1,-0.5,-29,0.86,0.04,-0.03,0.51
1697353565.39,0.14,-0.16,1.16,-1,-0.5,-29,0.86,0.04,-0.03,0.51
1697353565.4,0.14,-0.16,1.16,-1,-0.5,-29,0.86,0.04,-0.03,0.51
1697353565.41,0.14,-0.16,1.16,-1,-0.5,-29,0.86,0.04,-0.03,0.51
1697353565.42,0.14,-0.16,1.16,-1,-0.5,-29,0.86,0.04,-0.03,0.51
1697353565.43,0.14,-0.16,1.16,-1,-0.5,-29,0.86,0.04,-0.03,0.51
1697353565.44,0.14,-0.16,1.16,-1,-0.5,-29,0.86,0.04,-0.03,0.51
1697353565.45,0.14,-0.16,1.16,-1,-0.5,-29,0.86,0.04,-0.03,0.51
1697353565.46,0.14,-0.16,1.16,-1,-0.5,-29,0.86,0.04,-0.03,0.51
1697353565.47,0.14,-0.16,1.16,-1,-0.5,-29,0.86,0.04,-0.03,0.51
1697353565.48,0.14,-0.16,1.16,-1,-0.5,-29,0.86,0.04,-0.03,0.51
1697353565.49,0.17,-0.22,0.89,-0.4,-1.3,-31.1,0.88,0.04,-0.03,0.47
1697353565.5,0.17,-0.22,0.89,-0.4,-1.3,-31.1,0.88,0.04,-0.04,0.47
1697353565.51,0.16,-0.23,0.96,0.7,-1.4,-30.8,0.88,0.04,-0.04,0.47
1697353565.52,0.17,-0.28,1.08,2.3,-1.5,-30.8,0.88,0.04,-0.04,0.47
1697353565.53,0.2,-0.32,0.95,2.5,-1.7,-30.4,0.88,0.04,-0.04,0.46
1697353565.54,0.2,-0.32,0.95,0.7,-1.9,-30.6,0.89,0.04,-0.04,0.46
1697353565.55,0.17,-0.31,0.94,-0.5,-2.2,-30.7,0.89,0.04,-0.04,0.46
1697353565.56,0.15,-0.18,1.01,-0.8,-2.5,-30.7,0.89,0.04,-0.04,0.46
1697353565.57,0.06,-0.2,1.04,-0.5,-2.2,-30.6,0.89,0.04,-0.04,0.45
1697353565.58,0.13,-0.28,0.97,1.7,-1.7,-30.7,0.89,0.04,-0.04,0.45
1697353565.59,0.23,-0.25,0.88,1.9,-0.8,-30.9,0.89,0.04,-0.04,0.45
1697353565.6,0.15,-0.3,1,0.7,0.3,-31.2,0.89,0.04,-0.04,0.45
1697353565.61,0.12,-0.29,1.04,-1,1,-31.4,0.89,0.04,-0.04,0.44
1697353565.62,0.18,-0.17,1.08,-1.8,1.9,-31.5,0.9,0.04,-0.04,0.44
1697353565.63,0.18,-0.22,1.09,-0.9,2.1,-31.5,0.9,0.04,-0.03,0.44
1697353565.64,0.19,-0.27,1.07,-0.1,2,-31.7,0.9,0.04,-0.03,0.44
1697353565.65,0.21,-0.37,0.99,0.3,1.6,-31.6,0.9,0.04,-0.03,0.43
1697353565.66,0.19,-0.38,1.13,-0.5,1,-31.9,0.9,0.04,-0.03,0.43
1697353565.67,0.1,-0.38,1.03,-1.7,0,-32.3,0.9,0.04,-0.03,0.43
1697353565.68,0.16,-0.25,1.01,-2.4,-0.4,-32.7,0.9,0.04,-0.03,0.43
1697353565.69,0.2,-0.18,0.84,-1.3,-0.7,-32.6,0.9,0.04,-0.03,0.42
1697353565.7,0.21,-0.25,0.88,0.7,-1,-32.6,0.9,0.04,-0.03,0.42
1697353565.71,0.15,-0.31,1.07,2.5,-1.7,-32.5,0.91,0.04,-0.03,0.42
1697353565.72,0.28,-0.43,1.07,3.5,-2.4,-32.4,0.91,0.04,-0.03,0.42
1697353565.73,0.28,-0.43,1.07,3.5,-2.4,-32.4,0.91,0.04,-0.03,0.41
1697353565.74,0.15,-0.41,1.04,0.9,-3.4,-33.2,0.91,0.04,-0.03,0.41
1697353565.75,0.21,-0.26,0.73,-0.6,-3,-33.1,0.91,0.04,-0.03,0.41
1697353565.76,0.09,-0.27,1.05,-0.9,-2.3,-33.2,0.91,0.04,-0.03,0.41
1697353565.77,0.14,-0.28,0.98,-0.1,-1.5,-32.8,0.91,0.04,-0.03,0.4
1697353565.78,0.17,-0.25,0.91,-0.1,-1.5,-32.8,0.91,0.04,-0.03,0.4
1697353565.79,0.19,-0.35,0.94,0.6,-0.6,-32.8,0.92,0.04,-0.03,0.4
1697353565.8,0.14,-0.35,1.08,0.1,0.4,-33.3,0.92,0.04,-0.03,0.4
1697353565.81,0.23,-0.26,0.85,-0.8,0.9,-33.8,0.92,0.04,-0.03,0.39
1697353565.82,0.2,-0.27,0.95,-1.6,1.1,-34.1,0.92,0.04,-0.03,0.39
1697353565.83,0.21,-0.24,0.92,-0.7,1.5,-34.4,0.92,0.04,-0.03,0.39
1697353565.84,0.18,-0.33,1.02,0.8,1.8,-34.4,0.92,0.04,-0.03,0.38
1697353565.85,0.16,-0.41,1.03,2,2.1,-34.4,0.92,0.04,-0.03,0.38
1697353565.86,0.23,-0.49,0.92,2,2.1,-34.4,0.92,0.04,-0.03,0.38
1697353565.87,0.21,-0.48,0.95,-0.7,3.2,-34.6,0.93,0.04,-0.03,0.38
1697353565.88,0.21,-0.48,0.95,-0.7,3.2,-34.6,0.93,0.04,-0.03,0.38
1697353565.89,0.21,-0.48,0.95,-0.7,3.2,-34.6,0.93,0.04,-0.03,0.38
1697353565.9,0.21,-0.48,0.95,-0.7,3.2,-34.6,0.93,0.04,-0.03,0.38
1697353565.91,0.21,-0.48,0.95,-0.7,3.2,-34.6,0.93,0.04,-0.03,0.38
1697353565.92,0.21,-0.48,0.95,-0.7,3.2,-34.6,0.93,0.04,-0.03,0.38
1697353565.93,0.21,-0.48,0.95,-0.7,3.2,-34.6,0.93,0.04,-0.03,0.38
1697353565.94,0.21,-0.48,0.95,-0.7,3.2,-34.6,0.93,0.04,-0.03,0.38
1697353565.95,0.21,-0.48,0.95,-0.7,3.2,-34.6,0.93,0.04,-0.03,0.38
1697353565.96,0.21,-0.48,0.95,-0.7,3.2,-34.6,0.93,0.04,-0.03,0.38
1697353565.97,0.21,-0.48,0.95,-0.7,3.2,-34.6,0.93,0.04,-0.03,0.38
1697353565.98,0.21,-0.48,0.95,-0.7,3.2,-34.6,0.93,0.04,-0.03,0.38
1697353565.99,0.21,-0.48,0.95,-0.7,3.2,-34.6,0.93,0.04,-0.03,0.38
1697353566,0.21,-0.48,0.95,-0.7,3.2,-34.6,0.93,0.04,-0.03,0.38
1697353566.01,0.21,-0.48,0.95,-0.7,3.2,-34.6,0.93,0.04,-0.03,0.38
1697353566.02,0.18,-0.54,0.89,0.6,4.8,-35.5,0.94,0.05,-0.03,0.33
1697353566.03,0.14,-0.49,0.9,-1.3,4.3,-35.6,0.94,0.05,-0.03,0.33
1697353566.04,0.18,-0.32,1.06,-1.2,3,-35.5,0.94,0.05,-0.03,0.33
1697353566.05,0.16,-0.26,0.96,0.6,1.1,-35.4,0.94,0.05,-0.03,0.32
1697353566.06,0.27,-0.27,1.12,1.6,-0.3,-35.1,0.95,0.05,-0.03,0.32
1697353566.07,0.26,-0.34,0.86,1.4,-1.5,-34.8,0.95,0.05,-0.03,0.32
1697353566.08,0.2,-0.36,0.83,0.7,-2.5,-35,0.95,0.05,-0.03,0.31
1697353566.09,0.2,-0.36,0.71,-0.7,-2.9,-35.2,0.95,0.05,-0.03,0.31
1697353566.1,0.06,-0.36,1.11,-0.8,-2.7,-35.4,0.95,0.05,-0.03,0.31
1697353566.11,0.06,-0.36,1.11,-0.8,-2.7,-35.4,0.95,0.05,-0.03,0.31
1697353566.12,0.18,-0.31,0.94,0.2,-1,-36.1,0.95,0.05,-0.03,0.3
1697353566.13,0.18,-0.31,0.94,0.2,-1,-36.1,0.95,0.05,-0.03,0.3
1697353566.14,0.19,-0.39,1.13,0.2,1,-36.8,0.95,0.05,-0.03,0.3
1697353566.15,0.14,-0.41,1.07,0,1.4,-37,0.95,0.05,-0.03,0.3
1697353566.16,0.15,-0.43,0.84,-0.1,1.8,-37.1,0.95,0.05,-0.03,0.29
1697353566.17,0.22,-0.37,1.04,-0.2,1.8,-37.2,0.96,0.05,-0.03,0.29
1697353566.18,0.21,-0.39,1.31,0.2,1,-36.9,0.96,0.05,-0.02,0.29
1697353566.19,0.2,-0.34,0.87,0.5,0.8,-36.7,0.96,0.05,-0.02,0.28
1697353566.2,0.13,-0.43,1.23,0.5,0.8,-36.7,0.96,0.05,-0.02,0.28
1697353566.21,0.13,-0.43,1.23,0.7,0.1,-36.5,0.96,0.05,-0.02,0.28
1697353566.22,0.22,-0.38,0.91,-0.2,-1.5,-35.1,0.96,0.05,-0.02,0.27
1697353566.23,0.22,-0.38,0.91,-0.2,-1.5,-35.1,0.96,0.05,-0.02,0.27
1697353566.24,0.01,-0.41,1.22,0.2,-1.6,-34.3,0.96,0.05,-0.02,0.27
1697353566.25,0.01,-0.41,1.22,0.2,-1.6,-34.3,0.96,0.05,-0.02,0.26
1697353566.26,0.15,-0.35,1,1,-1.3,-34.4,0.96,0.05,-0.02,0.26
1697353566.27,0.16,-0.4,0.65,1.3,-1,-34.5,0.96,0.05,-0.02,0.26
1697353566.28,0.2,-0.42,1.06,1.2,-0.8,-34.5,0.96,0.05,-0.02,0.26
1697353566.29,0.24,-0.39,0.68,0.4,0,-34.7,0.97,0.05,-0.02,0.25
1697353566.3,0.16,-0.4,0.83,0,0.2,-35,0.97,0.05,-0.02,0.25
1697353566.31,0.16,-0.34,1.18,-0.2,0.7,-35.2,0.97,0.05,-0.02,0.25
1697353566.32,0.36,-0.26,1.01,-0.3,0.8,-35.5,0.97,0.05,-0.02,0.24
1697353566.33,0.14,-0.34,0.96,-0.5,0.9,-35.7,0.97,0.05,-0.02,0.24
1697353566.34,0.08,-0.42,0.89,-0.3,0.5,-35.8,0.97,0.05,-0.02,0.24
1697353566.35,0.24,-0.42,1.08,-0.3,0.3,-35.8,0.97,0.05,-0.02,0.23
1697353566.36,0.2,-0.26,1.06,-0.1,0.6,-35.6,0.97,0.05,-0.02,0.23
1697353566.37,0.14,-0.45,1.21,-0.3,1,-35.2,0.97,0.05,-0.02,0.23
1697353566.38,0.32,-0.32,1.1,-0.8,1.3,-35.2,0.97,0.05,-0.02,0.23
1697353566.39,0.16,-0.38,0.59,-1.3,1.1,-34.8,0.97,0.05,-0.02,0.22
1697353566.4,0.09,-0.28,1.23,-1.4,1.6,-34.3,0.97,0.05,-0.02,0.22
1697353566.41,0.16,-0.17,1.22,-0.6,1.9,-34,0.98,0.05,-0.02,0.22
1697353566.42,0.08,-0.37,0.91,1,2.2,-33.5,0.98,0.05,-0.02,0.22
1697353566.43,0.08,-0.37,0.91,1,2.2,-33.5,0.98,0.05,-0.02,0.22
1697353566.44,0.08,-0.37,0.91,1,2.2,-33.5,0.98,0.05,-0.02,0.22
1697353566.45,0.08,-0.37,0.91,1,2.2,-33.5,0.98,0.05,-0.02,0.22
1697353566.46,0.08,-0.37,0.91,1,2.2,-33.5,0.98,0.05,-0.02,0.22
1697353566.47,0.08,-0.37,0.91,1,2.2,-33.5,0.98,0.05,-0.02,0.22
1697353566.48,0.08,-0.37,0.91,1,2.2,-33.5,0.98,0.05,-0.02,0.22
1697353566.49,0.08,-0.37,0.91,1,2.2,-33.5,0.98,0.05,-0.02,0.22
1697353566.5,0.08,-0.37,0.91,1,2.2,-33.5,0.98,0.05,-0.02,0.22
1697353566.51,0.08,-0.37,0.91,1,2.2,-33.5,0.98,0.05,-0.02,0.22
1697353566.52,0.08,-0.37,0.91,1,2.2,-33.5,0.98,0.05,-0.02,0.22
1697353566.53,0.08,-0.37,0.91,1,2.2,-33.5,0.98,0.05,-0.02,0.22
1697353566.54,0.08,-0.37,0.91,1,2.2,-33.5,0.98,0.05,-0.02,0.22
1697353566.55,0.08,-0.37,0.91,1,2.2,-33.5,0.98,0.05,-0.02,0.22
1697353566.56,0.08,-0.37,0.91,1,2.2,-33.5,0.98,0.05,-0.02,0.22
1697353566.57,0.08,-0.37,0.91,1,2.2,-33.5,0.98,0.05,-0.02,0.22
1697353566.58,0.2,-0.23,0.84,2.6,1.8,-16.6,0.98,0.05,-0.02,0.18
1697353566.59,0.2,-0.23,0.84,2.6,1.8,-16.6,0.98,0.05,-0.02,0.18
1697353566.6,0.09,-0.04,0.87,0.2,1.9,-15.7,0.98,0.05,-0.02,0.18
1697353566.61,0.09,-0.04,0.87,-0.5,1.8,-15.4,0.98,0.05,-0.02,0.18
1697353566.62,0.27,-0.13,0.74,0.3,2.5,-14.8,0.98,0.05,-0.01,0.18
1697353566.63,0.27,-0.13,0.74,1.9,2.4,-14,0.98,0.05,-0.01,0.17
1697353566.64,0.19,-0.08,0.9,1.8,2.5,-14.1,0.98,0.05,-0.01,0.17
1697353566.65,0.14,-0.11,1.05,0,2.9,-13.9,0.98,0.05,-0.01,0.17
1697353566.66,0.14,-0.11,1.05,-0.8,3.3,-13.5,0.98,0.05,-0.01,0.17
1697353566.67,0.23,-0,1.02,-0.6,2.7,-13.3,0.98,0.05,-0.01,0.17
1697353566.68,0.21,-0.09,0.9,-0.3,2,-12.9,0.98,0.05,-0.01,0.17
1697353566.69,0.1,-0.09,1.04,-0.9,1.1,-12.6,0.98,0.05,-0.01,0.17
1697353566.7,0.08,-0.14,0.99,-1.7,0.6,-12.1,0.98,0.05,-0.01,0.17
1697353566.71,0.08,-0.08,1.03,-1.5,0.9,-12.2,0.98,0.05,-0.01,0.17
1697353566.72,0.13,-0.15,1.08,-2,1,-11.4,0.99,0.05,-0.01,0.16
1697353566.73,0.22,-0.05,0.85,-0.8,1.5,-11.9,0.99,0.05,-0.01,0.16
1697353566.74,0.13,-0.13,1.28,-0.8,1.7,-11.4,0.99,0.05,-0.01,0.16
1697353566.75,0.17,-0.12,1.1,0.4,1.2,-11.8,0.99,0.05,-0.01,0.16
1697353566.76,-0.02,-0.26,1.14,0.7,0.9,-11.8,0.99,0.05,-0.01,0.16
1697353566.77,0.06,-0.2,1.16,0,0.9,-11.5,0.99,0.05,-0.01,0.16
1697353566.78,0.18,0.03,0.95,-0.6,0.8,-11.2,0.99,0.05,-0.01,0.16
1697353566.79,0.24,-0.05,0.99,-0.2,0.7,-10.2,0.99,0.05,-0.01,0.16
1697353566.8,0.14,0.06,1.07,2,0.5,-9.4,0.99,0.05,-0.01,0.16
1697353566.81,0.2,-0.12,0.77,2.6,0.1,-7.7,0.99,0.05,-0.01,0.16
1697353566.82,0.18,-0.06,0.84,3,0.2,-7.2,0.99,0.05,-0.01,0.16
1697353566.83,0.18,-0.15,0.92,2.3,0,-7,0.99,0.05,-0.01,0.15
1697353566.84,0.21,-0.09,0.78,1.5,0,-6.4,0.99,0.05,-0.01,0.15
1697353566.85,0.06,-0.08,1.15,1.6,-0.3,-6.7,0.99,0.05,-0.01,0.15
1697353566.86,0.12,0.01,0.85,0,-0.1,-6.5,0.99,0.05,-0.01,0.15
1697353566.87,0.13,-0.06,1.16,-0.4,-0.6,-7,0.99,0.05,-0.01,0.15
1697353566.88,0.16,-0.05,1.16,0,-0.7,-7.2,0.99,0.05,-0.01,0.15
1697353566.89,0.14,-0.07,1.01,0.3,-1.1,-7.2,0.99,0.05,-0.01,0.15
1697353566.9,0.17,0.01,1.02,0.6,-1.4,-7,0.99,0.05,-0.01,0.15
1697353566.91,0.15,-0.15,1.15,0.6,-1.4,-7,0.99,0.05,-0.01,0.15
1697353566.92,0.07,-0.09,1.18,0.1,-1.6,-7,0.99,0.05,-0.01,0.15
1697353566.93,0.07,-0.09,1.18,0.1,-1.6,-7,0.99,0.05,-0.01,0.15
1697353566.94,0.15,0.04,1.04,-0.3,-1.5,-6.7,0.99,0.05,-0.01,0.15
1697353566.95,0.15,0.04,1.04,-0.3,-1.5,-6.7,0.99,0.05,-0.01,0.15
1697353566.96,0.1,0,1.05,1.2,-0.9,-6.6,0.99,0.05,-0.01,0.15
1697353566.97,0.1,0,1.05,1,0,-6.1,0.99,0.05,-0.01,0.15
1697353566.98,0.1,0,1.05,1,0,-6.1,0.99,0.05,-0.01,0.15
1697353566.99,0.1,0,1.05,1,0,-6.1,0.99,0.05,-0.01,0.15
1697353567,0.1,0,1.05,1,0,-6.1,0.99,0.05,-0.01,0.15
1697353567.01,0.1,0,1.05,1,0,-6.1,0.99,0.05,-0.01,0.15
1697353567.02,0.1,0,1.05,1,0,-6.1,0.99,0.05,-0.01,0.15
1697353567.03,0.1,0,1.05,1,0,-6.1,0.99,0.05,-0.01,0.15
1697353567.04,0.1,0,1.05,1,0,-6.1,0.99,0.05,-0.01,0.15
1697353567.05,0.1,0,1.05,1,0,-6.1,0.99,0.05,-0.01,0.15
1697353567.06,0.1,0,1.05,1,0,-6.1,0.99,0.05,-0.01,0.15
1697353567.07,0.1,0,1.05,1,0,-6.1,0.99,0.05,-0.01,0.15
1697353567.08,0.1,0,1.05,1,0,-6.1,0.99,0.05,-0.01,0.15
1697353567.09,0.1,0,1.05,1,0,-6.1,0.99,0.05,-0.01,0.15
1697353567.1,0.1,0,1.05,1,0,-6.1,0.99,0.05,-0.01,0.15
1697353567.11,0,-0.02,1.18,2.2,-2.3,3.1,0.99,0.05,-0.02,0.15
1697353567.12,0.06,0,1.2,2,-2,3.2,0.99,0.05,-0.02,0.15
1697353567.13,0.16,0.01,1.02,1,-1.2,3.2,0.99,0.05,-0.02,0.15
1697353567.14,0.14,0.04,1.15,0.2,-0.1,3.3,0.99,0.05,-0.02,0.15
1697353567.15,0.15,0.17,0.96,0.4,0.2,3.4,0.99,0.05,-0.02,0.15
1697353567.16,0.13,0.1,1.16,0.4,0.2,3.4,0.99,0.05,-0.02,0.15
1697353567.17,0.2,0.12,1.04,2.2,0.3,4.2,0.99,0.05,-0.02,0.15
1697353567.18,0.24,0.07,0.91,2.2,0.3,4.2,0.99,0.05,-0.02,0.15
1697353567.19,0.16,0.04,1.02,1.4,-1.2,4.5,0.99,0.05,-0.02,0.15
1697353567.2,0.22,0.12,0.78,0.4,-2.1,4.5,0.99,0.05,-0.02,0.15
1697353567.21,0.18,0.08,0.96,-0.2,-3,4.4,0.99,0.05,-0.02,0.15
1697353567.22,0.21,0.14,0.98,-0.3,-3.1,4.4,0.99,0.05,-0.02,0.15
1697353567.23,0.17,0.09,0.91,-0.9,-3.1,4.3,0.99,0.05,-0.02,0.15
1697353567.24,0.15,0.08,0.93,-2.5,-2.5,4.1,0.99,0.05,-0.02,0.15
1697353567.25,0.15,0.08,0.93,-2.5,-2.5,4.1,0.99,0.05,-0.02,0.15
1697353567.26,0.17,0.07,0.88,-4.1,-1.7,4,0.99,0.05,-0.02,0.15
1697353567.27,-0,0.17,1.42,-4.7,-0.6,4,0.99,0.05,-0.02,0.15
1697353567.28,0.14,0.21,1.09,-4.8,-0.3,4,0.99,0.05,-0.02,0.15
1697353567.29,0.17,0.14,0.97,0.4,2,4.2,0.99,0.05,-0.02,0.15
1697353567.3,0.15,-0,1.27,0.4,2,4.2,0.99,0.05,-0.02,0.15
1697353567.31,0.15,-0,1.27,0.7,2.5,4,0.99,0.05,-0.02,0.15
1697353567.32,0.18,0.02,0.92,-0.2,2.7,3.8,0.99,0.05,-0.02,0.15
1697353567.33,0.18,0.02,0.92,-0.8,2.4,3.6,0.99,0.05,-0.02,0.15
1697353567.34,0.17,-0.02,1.11,-0.4,2.1,3.6,0.99,0.05,-0.02,0.15
1697353567.35,0.31,-0.01,1.09,-0.5,2,3.6,0.99,0.05,-0.02,0.15
1697353567.36,0.19,0.11,0.51,-0.9,0.9,3.5,0.99,0.05,-0.02,0.15
1697353567.37,0.05,0.15,1.19,-0.2,0.3,3.9,0.99,0.05,-0.02,0.15
1697353567.38,0.25,0.03,0.93,2.2,0,4.4,0.99,0.05,-0.02,0.15
1697353567.39,0.24,-0.04,0.92,4.3,0,4.1,0.99,0.05,-0.02,0.15
1697353567.4,0.27,-0.07,0.86,-0.1,-1.2,4.3,0.99,0.05,-0.02,0.16
1697353567.41,0.22,0.11,1.12,-1.3,-1.7,4,0.99,0.05,-0.02,0.16
1697353567.42,0.13,0.05,0.94,-1,-1.8,3.4,0.99,0.05,-0.02,0.16
1697353567.43,0.1,0.1,0.76,-0.9,-0.8,3,0.99,0.05,-0.02,0.16
1697353567.44,0.17,0.19,0.85,-1.5,0.5,3.8,0.99,0.05,-0.02,0.16
1697353567.45,0.17,0.13,0.95,0.2,0.9,3.8,0.99,0.05,-0.02,0.16
1697353567.46,0.24,0.14,0.97,1.7,1.1,3.3,0.99,0.05,-0.02,0.16
1697353567.47,0.21,-0.03,1.04,0.6,1.6,3.1,0.99,0.05,-0.02,0.16
1697353567.48,0.15,-0.02,0.99,-0.8,1.6,3.3,0.99,0.05,-0.02,0.16
1697353567.49,0.17,-0.05,1.14,-2.3,1.3,3.3,0.99,0.05,-0.02,0.16
1697353567.5,0.19,0.04,0.97,-1.3,1.3,3.2,0.99,0.05,-0.02,0.16
1697353567.51,0.19,0.04,0.97,-1.3,1.3,3.2,0.99,0.05,-0.02,0.16
1697353567.52,0.19,0.04,0.97,-1.3,1.3,3.2,0.99,0.05,-0.02,0.16
1697353567.53,0.19,0.04,0.97,-1.3,1.3,3.2,0.99,0.05,-0.02,0.16
1697353567.54,0.19,0.04,0.97,-1.3,1.3,3.2,0.99,0.05,-0.02,0.16
1697353567.55,0.19,0.04,0.97,-1.3,1.3,3.2,0.99,0.05,-0.02,0.16
1697353567.56,0.19,0.04,0.97,-1.3,1.3,3.2,0.99,0.05,-0.02,0.16
1697353567.57,0.19,0.04,0.97,-1.3,1.3,3.2,0.99,0.05,-0.02,0.16
1697353567.58,0.19,0.04,0.97,-1.3,1.3,3.2,0.99,0.05,-0.02,0.16
1697353567.59,0.19,0.04,0.97,-1.3,1.3,3.2,0.99,0.05,-0.02,0.16
1697353567.6,0.19,0.04,0.97,-1.3,1.3,3.2,0.99,0.05,-0.02,0.16
1697353567.61,0.19,0.04,0.97,-1.3,1.3,3.2,0.99,0.05,-0.02,0.16
1697353567.62,0.19,0.04,0.97,-1.3,1.3,3.2,0.99,0.05,-0.02,0.16
1697353567.63,0.19,0.04,0.97,-1.3,1.3,3.2,0.99,0.05,-0.02,0.16
1697353567.64,0.19,0.04,0.97,-1.3,1.3,3.2,0.99,0.05,-0.02,0.16
1697353567.65,0.11,0.28,1.1,1.3,0.5,4.4,0.99,0.05,-0.02,0.16
1697353567.66,0.09,0.03,0.84,2.1,-0.8,4.7,0.99,0.05,-0.02,0.16
1697353567.67,0.08,-0.09,1.17,0.1,-1.7,4.9,0.99,0.05,-0.02,0.16
1697353567.68,0.03,-0.07,1.38,-1.8,-2.4,5.1,0.99,0.05,-0.02,0.16
1697353567.69,0.03,0.03,0.63,-1.9,-2.3,5.1,0.99,0.05,-0.02,0.16
1697353567.7,-0.06,0.09,1.1,-1.3,-2,5.5,0.99,0.05,-0.02,0.16
1697353567.71,-0.07,0.13,1.43,0.3,-1.7,5.9,0.98,0.05,-0.02,0.17
1697353567.72,-0.09,0.1,0.64,1.7,-1.6,6.2,0.98,0.05,-0.02,0.17
1697353567.73,-0.03,0.18,1.45,1.7,-1.6,6.2,0.98,0.05,-0.02,0.17
1697353567.74,0.02,0.08,1.2,3,-3,7.2,0.98,0.05,-0.02,0.17
1697353567.75,-0.02,0.26,1.37,4.2,-4.5,8,0.98,0.05,-0.02,0.17
1697353567.76,-0.02,0.26,1.24,5.2,-5.6,9.1,0.98,0.05,-0.02,0.17
1697353567.77,0.04,0.22,0.55,3.8,-6.4,10.2,0.98,0.05,-0.02,0.17
1697353567.78,0.05,0.18,1.09,0.8,-5.9,10.8,0.98,0.05,-0.02,0.17
1697353567.79,-0.21,0.24,0.89,-2.2,-5,11.6,0.98,0.05,-0.02,0.17
1697353567.8,-0.39,0.27,1.09,-3.3,-3.7,11.8,0.98,0.05,-0.02,0.17
1697353567.81,-0.51,0.44,1.01,-3.3,-3.7,11.8,0.98,0.05,-0.02,0.17
1697353567.82,-0.65,0.47,1.01,-1.4,0.2,12.2,0.98,0.05,-0.02,0.17
1697353567.83,-0.47,0.46,0.99,1.4,1.5,12.7,0.98,0.05,-0.02,0.17
1697353567.84,-0.32,0.24,1.15,1.8,1.9,12.3,0.98,0.05,-0.02,0.18
1697353567.85,-0.14,0.2,1.27,0.4,1.8,12.5,0.98,0.05,-0.02,0.18
1697353567.86,0.01,0.15,1.2,-1.2,1.7,12.8,0.98,0.05,-0.02,0.18
1697353567.87,0.01,0.07,1.05,-2.6,1.3,13,0.98,0.05,-0.02,0.18
1697353567.88,-0,0.23,0.79,-3.1,0.7,13.9,0.98,0.05,-0.02,0.18
1697353567.89,-0.1,0.17,1.4,-2.1,-0.1,14.1,0.98,0.05,-0.02,0.18
1697353567.9,0.09,0.2,0.66,-1.5,-0.9,14.2,0.98,0.05,-0.02,0.18
1697353567.91,-0.01,0.1,0.78,-1.5,-0.9,14.2,0.98,0.05,-0.02,0.18
1697353567.92,-0.06,0.24,0.93,0,-1,13.9,0.98,0.05,-0.02,0.19
1697353567.93,-0.06,0.24,0.93,0,-1,13.9,0.98,0.05,-0.02,0.19
1697353567.94,-0.15,0.16,0.93,0.9,0.2,14,0.98,0.05,-0.02,0.19
1697353567.95,-0.15,0.28,1.23,1.2,1.2,13.9,0.98,0.05,-0.02,0.19
1697353567.96,-0.15,0.28,1.23,1.3,1.8,14.2,0.98,0.05,-0.02,0.19
1697353567.97,0.01,0.23,1.32,0.6,2,14.6,0.98,0.05,-0.02,0.19
1697353567.98,-0.03,0.34,0.87,0.3,1.9,14.8,0.98,0.05,-0.02,0.19
1697353567.99,-0.21,0.31,0.93,-0.7,1.6,15.8,0.98,0.05,-0.02,0.19
1697353568,-0.04,0.32,0.61,-0.3,1,16.4,0.98,0.05,-0.02,0.2
1697353568.01,-0.1,0.35,0.87,0.1,0.5,17.3,0.98,0.05,-0.02,0.2
1697353568.02,-0.21,0.33,0.87,0.3,0.1,18.1,0.98,0.05,-0.02,0.2
1697353568.03,-0.25,0.29,0.6,0.7,-0.2,18.2,0.98,0.05,-0.02,0.2
1697353568.04,-0.25,0.29,0.6,0.7,-0.2,18.2,0.98,0.05,-0.02,0.2
1697353568.05,-0.25,0.29,0.6,0.7,-0.2,18.2,0.98,0.05,-0.02,0.2
1697353568.06,-0.25,0.29,0.6,0.7,-0.2,18.2,0.98,0.05,-0.02,0.2
1697353568.07,-0.25,0.29,0.6,0.7,-0.2,18.2,0.98,0.05,-0.02,0.2
1697353568.08,-0.25,0.29,0.6,0.7,-0.2,18.2,0.98,0.05,-0.02,0.2
1697353568.09,-0.25,0.29,0.6,0.7,-0.2,18.2,0.98,0.05,-0.02,0.2
1697353568.1,-0.25,0.29,0.6,0.7,-0.2,18.2,0.98,0.05,-0.02,0.2
1697353568.11,-0.25,0.29,0.6,0.7,-0.2,18.2,0.98,0.05,-0.02,0.2
1697353568.12,-0.25,0.29,0.6,0.7,-0.2,18.2,0.98,0.05,-0.02,0.2
1697353568.13,-0.25,0.29,0.6,0.7,-0.2,18.2,0.98,0.05,-0.02,0.2
1697353568.14,-0.25,0.29,0.6,0.7,-0.2,18.2,0.98,0.05,-0.02,0.2
1697353568.15,-0.25,0.29,0.6,0.7,-0.2,18.2,0.98,0.05,-0.02,0.2
1697353568.16,-0.25,0.29,0.6,0.7,-0.2,18.2,0.98,0.05,-0.02,0.2
1697353568.17,-0.06,0.77,1.08,1.9,2.8,36.1,0.97,0.05,-0.02,0.23
1697353568.18,-0.06,0.77,1.08,4.7,2.7,37.9,0.97,0.05,-0.02,0.23
1697353568.19,-0.08,0.4,0.79,5.9,2.2,39.4,0.97,0.05,-0.02,0.24
1697353568.2,-0.11,0.5,1.01,5.9,2.2,39.4,0.97,0.05,-0.02,0.24
1697353568.21,-0.11,0.5,1.01,-1.6,1.5,39.7,0.97,0.05,-0.02,0.24
1697353568.22,-0.1,0.72,0.75,-3.2,1.3,40.8,0.97,0.05,-0.02,0.25
1697353568.23,-0.1,0.72,0.75,-3.2,1.3,40.8,0.97,0.05,-0.02,0.25
1697353568.24,-0.11,0.62,0.84,-2,1.2,40.7,0.97,0.05,-0.02,0.25
1697353568.25,-0.11,0.62,0.84,-2.3,1.3,40.9,0.96,0.05,-0.02,0.26
1697353568.26,-0.16,0.66,1.18,-2.9,1.5,41.3,0.96,0.05,-0.02,0.26
1697353568.27,-0.15,0.55,0.95,-2.9,2.1,40.9,0.96,0.05,-0.02,0.26
1697353568.28,-0.36,0.6,1.27,-2.8,3.3,40.3,0.96,0.05,-0.02,0.27
1697353568.29,-0.29,0.71,1.12,-0.7,4.5,40.1,0.96,0.05,-0.02,0.27
1697353568.3,-0.28,0.58,1.28,-0.7,4.5,40.1,0.96,0.05,-0.02,0.27
1697353568.31,-0.16,0.61,1.1,2.4,4.4,39.7,0.96,0.05,-0.02,0.28
1697353568.32,-0.09,0.32,1,3.9,4.1,39.8,0.96,0.05,-0.02,0.28
1697353568.33,-0.02,0.4,0.84,2.7,3.5,39.9,0.96,0.05,-0.02,0.28
1697353568.34,-0.1,0.46,1.02,0.4,2.9,39.7,0.96,0.05,-0.02,0.29
1697353568.35,-0.08,0.47,0.88,-1.7,2.5,39.8,0.95,0.05,-0.02,0.29
1697353568.36,-0,0.55,1.11,-2.1,2.1,40,0.95,0.05,-0.02,0.3
1697353568.37,-0.07,0.59,0.92,-1.1,1.5,40.2,0.95,0.05,-0.02,0.3
1697353568.38,-0.07,0.59,0.92,-1.1,1.5,40.2,0.95,0.05,-0.02,0.3
1697353568.39,-0.07,0.57,1.16,3.4,0,40.6,0.95,0.05,-0.02,0.31
1697353568.4,-0.07,0.57,1.16,3.4,0,40.6,0.95,0.05,-0.02,0.31
1697353568.41,-0.12,0.43,0.82,3.9,0,40.6,0.95,0.05,-0.02,0.31
1697353568.42,-0.17,0.4,0.97,1.2,0.6,40.5,0.95,0.05,-0.02,0.32
1697353568.43,-0.13,0.55,0.84,-2.3,1.2,40.2,0.95,0.05,-0.02,0.32
1697353568.44,-0.13,0.68,1.12,-2.3,1.2,40.2,0.95,0.05,-0.02,0.32
1697353568.45,-0.15,0.69,0.73,1.2,1.9,40.7,0.94,0.05,-0.02,0.33
1697353568.46,-0.15,0.69,0.73,1.2,1.9,40.7,0.94,0.05,-0.02,0.33
1697353568.47,-0.24,0.58,1.17,2.4,2.3,40.5,0.94,0.05,-0.02,0.33
1697353568.48,-0.24,0.58,1.17,2.4,2.3,40.5,0.94,0.05,-0.02,0.33
1697353568.49,-0.23,0.5,1.07,0,2.2,40.1,0.94,0.05,-0.02,0.34
1697353568.5,-0.23,0.5,1.07,0,2.2,40.1,0.94,0.05,-0.02,0.34
1697353568.51,-0.2,0.53,0.87,-0.5,1.8,40.1,0.94,0.05,-0.02,0.34
1697353568.52,-0.07,0.59,0.9,-0.3,1.2,40.6,0.94,0.05,-0.02,0.35
1697353568.53,-0.16,0.59,1.46,0.5,0.7,41.1,0.93,0.05,-0.02,0.35
1697353568.54,-0.07,0.51,1.02,0.3,0,41.5,0.93,0.05,-0.02,0.35
1697353568.55,-0.15,0.51,1.42,-0.8,-0.6,41.7,0.93,0.05,-0.02,0.36
1697353568.56,-0.06,0.49,0.98,-2.1,-0.7,41.9,0.93,0.05,-0.02,0.36
1697353568.57,-0.06,0.49,0.98,-2.1,-0.7,41.9,0.93,0.05,-0.02,0.36
1697353568.58,-0.06,0.49,0.98,-2.1,-0.7,41.9,0.93,0.05,-0.02,0.36
1697353568.59,-0.06,0.49,0.98,-2.1,-0.7,41.9,0.93,0.05,-0.02,0.36
1697353568.6,-0.06,0.49,0.98,-2.1,-0.7,41.9,0.93,0.05,-0.02,0.36
1697353568.61,-0.06,0.49,0.98,-2.1,-0.7,41.9,0.93,0.05,-0.02,0.36
1697353568.62,-0.06,0.49,0.98,-2.1,-0.7,41.9,0.93,0.05,-0.02,0.36
1697353568.63,-0.06,0.49,0.98,-2.1,-0.7,41.9,0.93,0.05,-0.02,0.36
1697353568.64,-0.06,0.49,0.98,-2.1,-0.7,41.9,0.93,0.05,-0.02,0.36
1697353568.65,-0.06,0.49,0.98,-2.1,-0.7,41.9,0.93,0.05,-0.02,0.36
1697353568.66,-0.06,0.49,0.98,-2.1,-0.7,41.9,0.93,0.05,-0.02,0.36
1697353568.67,-0.06,0.49,0.98,-2.1,-0.7,41.9,0.93,0.05,-0.02,0.36
1697353568.68,-0.06,0.49,0.98,-2.1,-0.7,41.9,0.93,0.05,-0.02,0.36
1697353568.69,-0.06,0.49,0.98,-2.1,-0.7,41.9,0.93,0.05,-0.02,0.36
1697353568.7,-0.16,0.34,1.07,-0.5,0.2,42.7,0.91,0.05,-0.03,0.41
1697353568.71,-0.15,0.4,1.04,-3.4,0.5,42.6,0.91,0.05,-0.03,0.41
1697353568.72,-0.12,0.58,1,-3.6,0.9,42.8,0.91,0.04,-0.03,0.42
1697353568.73,-0.12,0.58,1,-3.6,0.9,42.8,0.91,0.04,-0.03,0.42
1697353568.74,-0.36,0.69,1.04,3.1,2.8,42.4,0.9,0.04,-0.03,0.42
1697353568.75,-0.49,0.57,1.16,5.7,3.4,41.5,0.9,0.04,-0.03,0.43
1697353568.76,-0.39,0.45,0.87,4.8,3.6,40.3,0.9,0.04,-0.03,0.43
1697353568.77,-0.39,0.34,1.24,2,3.5,39.3,0.9,0.04,-0.03,0.43
1697353568.78,-0.19,0.51,0.97,2,3.5,39.3,0.9,0.04,-0.03,0.43
1697353568.79,-0.04,0.57,0.92,-1.2,1.8,39.2,0.9,0.04,-0.02,0.44
1697353568.8,-0.04,0.57,0.92,-1.2,1.8,39.2,0.9,0.04,-0.03,0.44
1697353568.81,0,0.69,0.85,-0.1,0.2,40.2,0.89,0.04,-0.03,0.44
1697353568.82,-0.1,0.62,0.85,3.4,-1.8,41.6,0.89,0.04,-0.03,0.45
1697353568.83,-0.03,0.52,1.27,3.4,-1.8,41.6,0.89,0.04,-0.03,0.45
1697353568.84,-0.16,0.36,0.79,2.9,-2.6,42,0.89,0.04,-0.03,0.45
1697353568.85,-0.16,0.36,0.79,0.3,-3.1,42.4,0.89,0.04,-0.03,0.46
1697353568.86,-0.1,0.56,0.83,-1.6,-3.2,42.6,0.89,0.04,-0.03,0.46
1697353568.87,-0.13,0.65,1,-1.6,-3.1,43,0.88,0.04,-0.03,0.46
1697353568.88,-0.11,0.82,0.77,0.8,-2.5,43.8,0.88,0.04,-0.03,0.47
1697353568.89,-0.19,0.83,1.07,4.5,-1.6,45.3,0.88,0.04,-0.03,0.47
1697353568.9,-0.22,0.66,1.02,5.8,-1.1,46.1,0.88,0.05,-0.03,0.47
1697353568.91,-0.14,0.61,1.04,4.5,0,46.9,0.88,0.05,-0.03,0.48
1697353568.92,-0.15,0.59,1.02,2,0.8,47.6,0.87,0.05,-0.03,0.48
1697353568.93,-0.16,0.67,1.24,-0.5,1.7,48.9,0.87,0.05,-0.03,0.49
1697353568.94,-0.18,0.86,1.22,-1.6,2.1,49.8,0.87,0.05,-0.03,0.49
1697353568.95,-0.24,0.81,1.35,-1.4,2.3,50.9,0.87,0.04,-0.03,0.49
1697353568.96,-0.13,0.87,0.9,-0.4,2.1,51.9,0.87,0.04,-0.03,0.5
1697353568.97,-0.21,0.84,1.21,0.3,1.9,52.8,0.86,0.04,-0.03,0.5
1697353568.98,-0.2,0.72,1.12,1.9,1.8,53.6,0.86,0.04,-0.03,0.5
1697353568.99,-0.38,0.65,1.19,1.8,1.4,53.6,0.86,0.04,-0.03,0.51
1697353569,-0.28,0.68,0.81,0,1.1,53.5,0.86,0.04,-0.03,0.51
1697353569.01,-0.21,0.75,0.95,-1.1,1.2,53.5,0.86,0.04,-0.03,0.51
1697353569.02,-0.41,0.84,1.16,-1.2,1,53.6,0.85,0.04,-0.03,0.52
1697353569.03,-0.41,0.84,1.16,-1.2,1,53.6,0.85,0.04,-0.03,0.52
1697353569.04,-0.11,0.85,1.16,1.1,0.7,55.1,0.85,0.04,-0.03,0.53
1697353569.05,-0.11,0.85,1.16,1.1,0.7,55.1,0.85,0.04,-0.03,0.53
1697353569.06,-0.12,0.71,1.01,1.3,0,56.7,0.84,0.04,-0.03,0.54
1697353569.07,-0.12,0.71,1.01,1.3,0,56.7,0.84,0.04,-0.03,0.54
1697353569.08,-0.11,0.69,0.8,0.1,-0.7,57.5,0.84,0.04,-0.03,0.54
1697353569.09,-0.11,0.69,0.8,-0.7,-1.2,57.9,0.83,0.04,-0.03,0.55
1697353569.1,-0.2,0.82,1.3,-0.7,-1.2,57.9,0.83,0.04,-0.03,0.55
1697353569.11,-0.2,0.82,1.3,-0.7,-1.2,57.9,0.83,0.04,-0.03,0.55
1697353569.12,-0.2,0.82,1.3,-0.7,-1.2,57.9,0.83,0.04,-0.03,0.55
1697353569.13,-0.2,0.82,1.3,-0.7,-1.2,57.9,0.83,0.04,-0.03,0.55
1697353569.14,-0.2,0.82,1.3,-0.7,-1.2,57.9,0.83,0.04,-0.03,0.55
1697353569.15,-0.2,0.82,1.3,-0.7,-1.2,57.9,0.83,0.04,-0.03,0.55
1697353569.16,-0.2,0.82,1.3,-0.7,-1.2,57.9,0.83,0.04,-0.03,0.55
1697353569.17,-0.2,0.82,1.3,-0.7,-1.2,57.9,0.83,0.04,-0.03,0.55
1697353569.18,-0.2,0.82,1.3,-0.7,-1.2,57.9,0.83,0.04,-0.03,0.55
1697353569.19,-0.2,0.82,1.3,-0.7,-1.2,57.9,0.83,0.04,-0.03,0.55
1697353569.2,-0.2,0.82,1.3,-0.7,-1.2,57.9,0.83,0.04,-0.03,0.55
1697353569.21,-0.2,0.82,1.3,-0.7,-1.2,57.9,0.83,0.04,-0.03,0.55
1697353569.22,-0.2,0.82,1.3,-0.7,-1.2,57.9,0.83,0.04,-0.03,0.55
1697353569.23,-0.03,0.79,0.84,0,3.3,61.2,0.8,0.04,-0.03,0.6
1697353569.24,0.13,0.71,1.12,2.1,2.6,60.9,0.79,0.04,-0.03,0.61
1697353569.25,0.27,0.64,0.53,3.1,1.1,60.1,0.79,0.04,-0.03,0.61
1697353569.26,0.12,0.56,0.95,2.1,-0.4,59.7,0.79,0.04,-0.03,0.62
1697353569.27,0.22,0.69,0.76,0,-1.3,59.1,0.78,0.04,-0.03,0.62
1697353569.28,0.14,0.7,0.69,-2.4,-1.6,59.2,0.78,0.04,-0.03,0.62
1697353569.29,0.18,0.92,0.58,-2.4,-1.4,58.9,0.78,0.04,-0.03,0.63
1697353569.3,-0.16,0.95,1.3,-0.1,-0.5,58.6,0.77,0.04,-0.03,0.63
1697353569.31,0.18,0.79,1.04,2.5,-0.3,59.2,0.77,0.04,-0.03,0.64
1697353569.32,0.1,0.79,1.11,4.1,-0.3,58.5,0.77,0.04,-0.03,0.64
1697353569.33,0.19,0.73,1.23,1.2,-0.2,58.8,0.76,0.04,-0.03,0.65
1697353569.34,0.2,0.75,1.19,-1.7,-0.4,58.7,0.76,0.04,-0.03,0.65
1697353569.35,0.11,0.69,1.08,-3.5,0,58.8,0.75,0.04,-0.03,0.66
1697353569.36,0.05,0.92,1.13,-2.7,1,58.8,0.75,0.04,-0.04,0.66
1697353569.37,-0.14,1.04,0.84,-0.1,1.9,59.6,0.75,0.04,-0.04,0.66
1697353569.38,0.17,0.72,1.08,2.7,2.3,59.9,0.74,0.04,-0.04,0.67
1697353569.39,0.04,0.85,0.99,1.9,2.1,60.5,0.74,0.04,-0.04,0.67
1697353569.4,0.12,0.64,0.99,-0.1,1.7,60.3,0.73,0.04,-0.04,0.68
1697353569.41,0.06,0.77,1.05,-2,1.2,60.3,0.73,0.04,-0.04,0.68
1697353569.42,0.24,0.81,0.76,-1.9,1,60.6,0.73,0.04,-0.04,0.69
1697353569.43,0.05,0.85,1.13,0.2,0.8,60.4,0.72,0.04,-0.04,0.69
1697353569.44,0.16,0.9,0.68,2.4,1,60.3,0.72,0.04,-0.04,0.69
1697353569.45,0.18,0.85,0.84,2.9,1,60.3,0.72,0.04,-0.04,0.69
1697353569.46,0.03,0.68,0.86,2.9,1,60.3,0.71,0.04,-0.04,0.7
1697353569.47,0.09,0.83,1.11,0.8,0.7,60.2,0.71,0.04,-0.04,0.7
1697353569.48,0.09,0.83,1.11,0.8,0.7,60.2,0.71,0.04,-0.04,0.71
1697353569.49,0.14,0.91,0.87,0,0.6,60.4,0.7,0.04,-0.04,0.71
1697353569.5,0.14,0.91,0.87,0.2,0.4,60.3,0.7,0.04,-0.04,0.71
1697353569.51,0.07,0.86,0.88,0.8,0.7,60.2,0.7,0.03,-0.04,0.72
1697353569.52,0.12,0.77,1,1,1.1,60.1,0.69,0.03,-0.04,0.72
1697353569.53,0.11,0.81,0.99,0.5,1.7,59.8,0.69,0.03,-0.04,0.72
1697353569.54,0.13,0.79,1.15,0.2,2,59.7,0.68,0.03,-0.04,0.73
1697353569.55,0.12,0.77,1.04,-0.4,2.2,59.3,0.68,0.03,-0.04,0.73
1697353569.56,0.18,0.73,1.18,-0.4,2.2,59.3,0.68,0.03,-0.04,0.73
1697353569.57,0.12,0.73,0.88,-1,1.8,59,0.67,0.03,-0.04,0.74
1697353569.58,0.2,0.71,0.95,-1.5,1.9,58.5,0.67,0.03,-0.04,0.74
1697353569.59,0.06,0.66,1.05,-1.4,1.8,57.8,0.67,0.03,-0.04,0.75
1697353569.6,0.12,0.65,0.96,-1,1.7,56.4,0.66,0.03,-0.04,0.75
1697353569.61,0.21,0.57,0.85,-0.6,1.4,54.6,0.66,0.03,-0.04,0.75
1697353569.62,0.03,0.54,1.27,-1,0.9,53.2,0.66,0.03,-0.04,0.75
1697353569.63,0.03,0.54,1.27,-1,0.9,53.2,0.66,0.03,-0.04,0.75
1697353569.64,0.03,0.54,1.27,-1,0.9,53.2,0.66,0.03,-0.04,0.75
1697353569.65,0.03,0.54,1.27,-1,0.9,53.2,0.66,0.03,-0.04,0.75
1697353569.66,0.03,0.54,1.27,-1,0.9,53.2,0.66,0.03,-0.04,0.75
1697353569.67,0.03,0.54,1.27,-1,0.9,53.2,0.66,0.03,-0.04,0.75
1697353569.68,0.03,0.54,1.27,-1,0.9,53.2,0.66,0.03,-0.04,0.75
1697353569.69,0.03,0.54,1.27,-1,0.9,53.2,0.66,0.03,-0.04,0.75
1697353569.7,0.03,0.54,1.27,-1,0.9,53.2,0.66,0.03,-0.04,0.75
1697353569.71,0.03,0.54,1.27,-1,0.9,53.2,0.66,0.03,-0.04,0.75
1697353569.72,0.03,0.54,1.27,-1,0.9,53.2,0.66,0.03,-0.04,0.75
1697353569.73,0.03,0.54,1.27,-1,0.9,53.2,0.66,0.03,-0.04,0.75
1697353569.74,0.03,0.54,1.27,-1,0.9,53.2,0.66,0.03,-0.04,0.75
1697353569.75,0.03,0.54,1.27,-1.2,0.5,40.8,0.62,0.03,-0.04,0.79
1697353569.76,0.11,0.33,0.97,0.1,0.7,38.4,0.61,0.03,-0.04,0.79
1697353569.77,0.19,0.16,0.88,0,1.2,35.8,0.61,0.03,-0.04,0.79
1697353569.78,0.19,0.16,0.88,0,1.2,35.8,0.61,0.03,-0.04,0.79
1697353569.79,0.1,0.23,1.13,-3,0.6,31.3,0.61,0.03,-0.04,0.79
1697353569.8,0.11,0.23,1.08,-3,0.6,31.3,0.6,0.03,-0.04,0.8
1697353569.81,0.11,0.23,1.08,-3.8,0.7,29,0.6,0.03,-0.04,0.8
1697353569.82,0.12,0.28,0.78,-2.6,1,26.8,0.6,0.03,-0.04,0.8
1697353569.83,0.02,0.21,1.11,-0.7,1.5,23.5,0.6,0.03,-0.04,0.8
1697353569.84,0.13,0.2,1.05,-1.6,1.5,22.3,0.6,0.03,-0.04,0.8
1697353569.85,0.19,0.17,0.68,-2.5,1.3,21.4,0.6,0.03,-0.04,0.8
1697353569.86,0.09,0.24,1.27,-2.8,0.6,21.1,0.59,0.03,-0.04,0.8
1697353569.87,0.04,0.27,0.98,-1.3,-0.3,21,0.59,0.02,-0.04,0.8
1697353569.88,0.13,0.29,1.17,-0.6,-1.1,21.2,0.59,0.02,-0.04,0.8
1697353569.89,0.11,0.2,1.07,-1,-1.6,21.4,0.59,0.02,-0.04,0.81
1697353569.9,0.04,0.17,0.69,-1.8,-1.7,21.4,0.59,0.02,-0.04,0.81
1697353569.91,0.07,0.25,1.28,-2.5,-1.8,21.9,0.59,0.02,-0.04,0.81
1697353569.92,0.02,0.25,0.84,-2,-1.7,22,0.59,0.02,-0.04,0.81
1697353569.93,0.07,0.34,0.94,0.2,-1.1,21.9,0.58,0.02,-0.04,0.81
1697353569.94,0.08,0.35,1.21,2.6,-0.5,21.7,0.58,0.02,-0.04,0.81
1697353569.95,0.02,0.13,0.82,3.8,0,21,0.58,0.02,-0.04,0.81
1697353569.96,0.06,0.05,1.06,0.9,1.1,19.6,0.58,0.02,-0.04,0.81
1697353569.97,0.02,0.06,0.68,-1.4,1.4,18.4,0.58,0.02,-0.04,0.81
1697353569.98,0.08,0.18,1.26,-2.2,1.9,17,0.58,0.02,-0.04,0.82
1697353569.99,0.12,0.29,1.3,-1.6,1.7,16.3,0.58,0.02,-0.04,0.82
1697353570,0.15,0.31,0.66,0,1.2,15.5,0.57,0.02,-0.04,0.82
1697353570.01,0.11,0.21,1.23,0.6,0.8,14.6,0.57,0.02,-0.04,0.82
1697353570.02,0.14,0.09,0.91,0,0.3,13.4,0.57,0.02,-0.04,0.82
1697353570.03,0.21,-0.08,1,-3.6,-0.5,11.5,0.57,0.02,-0.04,0.82
1697353570.04,0.09,0.01,0.97,-6,-0.9,10.3,0.57,0.02,-0.04,0.82
1697353570.05,0.3,0.11,0.7,-5.1,-0.8,8.7,0.57,0.02,-0.04,0.82
1697353570.06,0.15,0.07,1.22,-3.2,-0.1,7.1,0.57,0.02,-0.04,0.82
1697353570.07,0.22,0.06,0.75,-1.9,0.3,5.7,0.57,0.02,-0.04,0.82
1697353570.08,0.22,0.06,0.75,-1.9,0.3,5.7,0.57,0.02,-0.04,0.82
1697353570.09,0.17,-0.19,0.94,-3.7,0.6,3.5,0.57,0.02,-0.04,0.82
1697353570.1,0.17,-0.19,0.94,-3.7,0.6,3.5,0.57,0.02,-0.04,0.82
1697353570.11,0.14,0.03,1.16,-2.9,-0.1,3.5,0.57,0.02,-0.04,0.82
1697353570.12,0.14,0.03,1.16,-2.9,-0.1,3.5,0.57,0.02,-0.04,0.82
1697353570.13,0.21,0.08,0.72,0,-0.7,3.9,0.57,0.02,-0.04,0.82
1697353570.14,0.27,-0.01,1.02,0.6,-1.3,4.4,0.57,0.02,-0.04,0.82
1697353570.15,0.25,-0.01,0.82,0.8,-1.5,4.6,0.57,0.02,-0.04,0.82
1697353570.16,0.25,-0.01,0.82,0.8,-1.5,4.6,0.57,0.02,-0.04,0.82
1697353570.17,0.25,-0.01,0.82,0.8,-1.5,4.6,0.57,0.02,-0.04,0.82
1697353570.18,0.25,-0.01,0.82,0.8,-1.5,4.6,0.57,0.02,-0.04,0.82
1697353570.19,0.25,-0.01,0.82,0.8,-1.5,4.6,0.57,0.02,-0.04,0.82
1697353570.2,0.25,-0.01,0.82,0.8,-1.5,4.6,0.57,0.02,-0.04,0.82
1697353570.21,0.25,-0.01,0.82,0.8,-1.5,4.6,0.57,0.02,-0.04,0.82
1697353570.22,0.25,-0.01,0.82,0.8,-1.5,4.6,0.57,0.02,-0.04,0.82
1697353570.23,0.25,-0.01,0.82,0.8,-1.5,4.6,0.57,0.02,-0.04,0.82
1697353570.24,0.25,-0.01,0.82,0.8,-1.5,4.6,0.57,0.02,-0.04,0.82
1697353570.25,0.25,-0.01,0.82,0.8,-1.5,4.6,0.57,0.02,-0.04,0.82
1697353570.26,0.25,-0.01,0.82,0.8,-1.5,4.6,0.57,0.02,-0.04,0.82
1697353570.27,0.25,-0.01,0.82,0.8,-1.5,4.6,0.57,0.02,-0.04,0.82
1697353570.28,0.12,-0.26,1.12,-2.1,0,-7.9,0.57,0.02,-0.05,0.82
1697353570.29,0.12,-0.41,1.17,-1.6,0.3,-9.1,0.57,0.02,-0.05,0.82
1697353570.3,0.17,-0.4,0.86,-2.5,0.2,-10.5,0.57,0.02,-0.05,0.82
1697353570.31,0.11,-0.32,1.18,-3.9,0.3,-11.7,0.57,0.02,-0.05,0.82
1697353570.32,0.12,-0.37,1.03,-4.2,0.2,-12.7,0.57,0.02,-0.05,0.82
1697353570.33,0.14,-0.47,1.06,-3.6,0.6,-14,0.57,0.02,-0.05,0.82
1697353570.34,0.14,-0.55,0.95,-2.8,0.5,-16.5,0.57,0.02,-0.05,0.82
1697353570.35,0.17,-0.54,1.15,-4.2,0,-17.7,0.57,0.02,-0.05,0.82
1697353570.36,0.27,-0.47,0.85,-4.6,-0.7,-19.2,0.58,0.02,-0.05,0.82
1697353570.37,0.24,-0.68,0.94,-4.2,-1.4,-20.9,0.58,0.02,-0.05,0.81
1697353570.38,0.27,-0.66,0.68,-4.3,-1.5,-22.4,0.58,0.02,-0.05,0.81
1697353570.39,0.06,-0.57,1.43,-4.1,-1.3,-23.3,0.58,0.02,-0.05,0.81
1697353570.4,0.08,-0.69,1.52,-2.9,-0.3,-26,0.58,0.02,-0.05,0.81
1697353570.41,0.08,-0.53,1.1,-2,-0.4,-28.5,0.58,0.02,-0.05,0.81
1697353570.42,0.12,-0.97,1.17,-1.8,-0.1,-30.8,0.59,0.02,-0.05,0.81
1697353570.43,0.12,-0.87,0.97,-1.8,-0.1,-30.8,0.59,0.02,-0.05,0.81
1697353570.44,0.12,-0.46,0.96,-2,-0.7,-34.9,0.59,0.02,-0.05,0.8
1697353570.45,0.2,-1.04,1.02,0.3,-0.9,-37.9,0.59,0.02,-0.05,0.8
1697353570.46,0.1,-0.68,1.1,0.5,-0.9,-38.5,0.59,0.02,-0.05,0.8
1697353570.47,0.15,-0.88,0.9,0.5,-0.9,-38.5,0.6,0.02,-0.05,0.8
1697353570.48,0.15,-0.88,0.9,-1.6,-0.9,-38.5,0.6,0.02,-0.05,0.8
1697353570.49,0.11,-0.67,1,-1.9,-0.2,-39.5,0.6,0.02,-0.05,0.8
1697353570.5,0.11,-0.67,1,-2.8,0.1,-40.6,0.61,0.02,-0.05,0.79
1697353570.51,0.13,-0.89,0.74,-4.1,0.3,-40.1,0.61,0.02,-0.05,0.79
1697353570.52,0.13,-0.84,0.85,-3.8,1.2,-41,0.61,0.02,-0.05,0.79
1697353570.53,0.18,-0.97,1.14,-4.6,1.9,-42.2,0.61,0.02,-0.05,0.79
1697353570.54,0.19,-0.93,0.95,-5.2,1.6,-43.4,0.62,0.02,-0.05,0.78
1697353570.55,0.14,-0.81,0.9,-4.5,1.3,-44.8,0.62,0.02,-0.05,0.78
1697353570.56,0.17,-0.81,1.06,-2.2,1.1,-45.1,0.62,0.02,-0.05,0.78
1697353570.57,0.25,-0.78,0.57,0.5,0.7,-46.3,0.63,0.02,-0.05,0.78
1697353570.58,0.15,-0.93,1.04,1.6,1.1,-47.1,0.63,0.02,-0.05,0.77
1697353570.59,0.15,-0.94,1.09,1.6,2.1,-46.7,0.63,0.02,-0.05,0.77
1697353570.6,0.21,-1,0.93,1.3,2,-47.3,0.64,0.02,-0.05,0.77
1697353570.61,0.13,-1.08,1.16,-0.1,2.3,-48.2,0.64,0.02,-0.05,0.77
1697353570.62,0.15,-0.95,1.06,-2.6,1.9,-49.1,0.64,0.02,-0.05,0.76
1697353570.63,0.14,-0.88,1.13,-4.4,1,-50,0.65,0.02,-0.05,0.76
1697353570.64,0.11,-0.7,1.01,-3,0.4,-50.9,0.65,0.02,-0.05,0.76
1697353570.65,0.1,-0.87,1.08,0.3,-0.2,-51.3,0.65,0.02,-0.05,0.75
1697353570.66,0.09,-0.92,1.02,2.4,-0.4,-51.9,0.65,0.02,-0.05,0.75
1697353570.67,0.2,-0.96,0.8,2.2,-0.7,-52.3,0.66,0.02,-0.05,0.75
1697353570.68,0.2,-0.96,0.8,2.2,-0.7,-52.3,0.66,0.02,-0.05,0.75
1697353570.69,0.2,-0.96,0.8,2.2,-0.7,-52.3,0.66,0.02,-0.05,0.75
1697353570.7,0.2,-0.96,0.8,2.2,-0.7,-52.3,0.66,0.02,-0.05,0.75
1697353570.71,0.2,-0.96,0.8,2.2,-0.7,-52.3,0.66,0.02,-0.05,0.75
1697353570.72,0.2,-0.96,0.8,2.2,-0.7,-52.3,0.66,0.02,-0.05,0.75
1697353570.73,0.2,-0.96,0.8,2.2,-0.7,-52.3,0.66,0.02,-0.05,0.75
1697353570.74,0.2,-0.96,0.8,2.2,-0.7,-52.3,0.66,0.02,-0.05,0.75
1697353570.75,0.2,-0.96,0.8,2.2,-0.7,-52.3,0.66,0.02,-0.05,0.75
1697353570.76,0.2,-0.96,0.8,2.2,-0.7,-52.3,0.66,0.02,-0.05,0.75
1697353570.77,0.2,-0.96,0.8,2.2,-0.7,-52.3,0.66,0.02,-0.05,0.75
1697353570.78,0.2,-0.96,0.8,2.2,-0.7,-52.3,0.66,0.02,-0.05,0.75
1697353570.79,0.2,-0.96,0.8,2.2,-0.7,-52.3,0.66,0.02,-0.05,0.75
1697353570.8,0.2,-0.96,0.8,2.2,-0.7,-52.3,0.66,0.02,-0.05,0.75
1697353570.81,0.2,-0.96,0.8,2.2,-0.7,-52.3,0.66,0.02,-0.05,0.75
1697353570.82,0.28,-0.89,0.69,3.8,-0.8,-50.7,0.71,0.03,-0.05,0.7
1697353570.83,0.28,-0.89,0.69,-0.3,-0.9,-51.3,0.71,0.03,-0.05,0.7
1697353570.84,0.23,-0.79,1.17,-5.5,-0.2,-49.9,0.71,0.03,-0.05,0.7
1697353570.85,0.23,-0.61,1.05,-5.7,-0.4,-49.4,0.72,0.03,-0.05,0.69
1697353570.86,0.16,-0.74,1.29,-3.6,0.4,-48.8,0.72,0.03,-0.05,0.69
1697353570.87,0.25,-0.74,0.91,-0.7,0.8,-48.5,0.72,0.03,-0.05,0.69
1697353570.88,0.25,-0.72,1.01,2.3,1.5,-48.1,0.73,0.03,-0.05,0.69
1697353570.89,0.33,-0.86,0.63,3.6,2,-47.3,0.73,0.03,-0.05,0.68
1697353570.9,0.25,-0.86,0.87,4.1,2.2,-47,0.73,0.03,-0.05,0.68
1697353570.91,0.29,-0.85,0.82,2.5,2.4,-46.4,0.74,0.03,-0.05,0.68
1697353570.92,0.29,-0.86,1,0,2.9,-46.2,0.74,0.03,-0.05,0.67
1697353570.93,0.34,-0.82,1.07,-0.6,3.1,-46,0.74,0.03,-0.05,0.67
1697353570.94,0.33,-0.71,1,-0.9,2.6,-45.6,0.74,0.03,-0.05,0.67
1697353570.95,0.24,-0.68,1.08,1.2,2.2,-45.5,0.75,0.03,-0.05,0.66
1697353570.96,0.3,-0.91,0.83,4.3,1.7,-44.8,0.75,0.03,-0.05,0.66
1697353570.97,0.31,-0.64,0.79,4.3,0.1,-44.4,0.75,0.03,-0.05,0.66
1697353570.98,0.48,-0.68,0.8,2.2,-1.3,-42.8,0.75,0.03,-0.05,0.66
1697353570.99,0.38,-0.9,0.82,1.7,-1.7,-42.3,0.76,0.03,-0.05,0.65
1697353571,0.21,-0.78,1.28,-1.9,-1.9,-41.2,0.76,0.03,-0.05,0.65
1697353571.01,0.34,-0.43,1.1,-5.6,-1.8,-39.4,0.76,0.03,-0.05,0.65
1697353571.02,0.3,-0.39,0.99,2.3,-0.9,-36,0.76,0.03,-0.05,0.64
1697353571.03,0.44,-0.5,0.8,6.8,0.1,-34.7,0.76,0.03,-0.05,0.64
1697353571.04,0.32,-0.71,0.82,5.9,1.2,-33.6,0.77,0.03,-0.04,0.64
1697353571.05,0.15,-0.68,1.01,3.7,2.2,-33.7,0.77,0.03,-0.04,0.64
1697353571.06,0.19,-0.82,1,1.1,3.3,-33.9,0.77,0.03,-0.04,0.64
1697353571.07,0.23,-0.75,1.07,0.7,3.1,-34.8,0.77,0.03,-0.04,0.63
1697353571.08,0.24,-0.65,0.98,0.2,2.2,-35.2,0.77,0.03,-0.04,0.63
1697353571.09,0.24,-0.54,0.97,0.8,1.5,-34.9,0.78,0.03,-0.04,0.63
1697353571.1,0.24,-0.46,1.13,2.3,0.3,-34.3,0.78,0.03,-0.04,0.63
1697353571.11,0.29,-0.42,1.09,3,-1,-33.3,0.78,0.03,-0.04,0.62
1697353571.12,0.34,-0.5,0.92,3,-2,-32.1,0.78,0.03,-0.04,0.62
1697353571.13,0.42,-0.56,0.93,3,-2,-32.1,0.78,0.03,-0.04,0.62
1697353571.14,0.37,-0.34,0.77,-0.6,-2.2,-29.6,0.78,0.03,-0.04,0.62
1697353571.15,0.37,-0.34,0.77,-1.5,-2.4,-29.3,0.79,0.03,-0.04,0.62
1697353571.16,0.26,-0.1,0.93,-2,0.2,-26,0.79,0.03,-0.04,0.61
1697353571.17,0.21,-0.23,0.96,2.5,2.2,-24.4,0.79,0.03,-0.04,0.61
1697353571.18,0.21,-0.23,0.96,5.1,3.6,-22.9,0.79,0.03,-0.04,0.61
1697353571.19,0.24,-0.55,0.97,3.9,4.2,-22,0.79,0.03,-0.04,0.61
1697353571.2,0.24,-0.55,0.97,1.2,4.9,-21.8,0.79,0.03,-0.04,0.61
1697353571.21,0.17,-0.36,1.11,1,4.9,-21.5,0.79,0.03,-0.04,0.61
1697353571.22,0.17,-0.36,1.11,1,4.9,-21.5,0.79,0.03,-0.04,0.61
1697353571.23,0.17,-0.36,1.11,1,4.9,-21.5,0.79,0.03,-0.04,0.61
1697353571.24,0.17,-0.36,1.11,1,4.9,-21.5,0.79,0.03,-0.04,0.61
1697353571.25,0.17,-0.36,1.11,1,4.9,-21.5,0.79,0.03,-0.04,0.61
1697353571.26,0.17,-0.36,1.11,1,4.9,-21.5,0.79,0.03,-0.04,0.61
1697353571.27,0.17,-0.36,1.11,1,4.9,-21.5,0.79,0.03,-0.04,0.61
1697353571.28,0.17,-0.36,1.11,1,4.9,-21.5,0.79,0.03,-0.04,0.61
1697353571.29,0.17,-0.36,1.11,1,4.9,-21.5,0.79,0.03,-0.04,0.61
1697353571.3,0.17,-0.36,1.11,1,4.9,-21.5,0.79,0.03,-0.04,0.61
1697353571.31,0.17,-0.36,1.11,1,4.9,-21.5,0.79,0.03,-0.04,0.61
1697353571.32,0.17,-0.36,1.11,1,4.9,-21.5,0.79,0.03,-0.04,0.61
1697353571.33,0.17,-0.36,1.11,1,4.9,-21.5,0.79,0.03,-0.04,0.61
1697353571.34,0.16,-0.29,1.1,2.3,2.5,-9.5,0.8,0.03,-0.04,0.59
1697353571.35,0.18,-0.17,1.07,1.5,2.2,-8.8,0.8,0.03,-0.04,0.59
1697353571.36,0.25,-0.2,0.93,1.4,2.2,-8.3,0.8,0.03,-0.04,0.59
1697353571.37,0.22,0.01,1.13,1.4,2,-6.9,0.81,0.03,-0.04,0.59
1697353571.38,0.22,0.01,1.13,1.4,2,-6.9,0.81,0.03,-0.04,0.59
1697353571.39,0.19,0.07,1.2,2.1,0.3,-4.4,0.81,0.03,-0.04,0.59
1697353571.4,0.3,0.08,0.93,2.1,0.3,-4.4,0.81,0.03,-0.04,0.59
1697353571.41,0.25,0.02,0.91,1.2,-0.6,-2.5,0.81,0.03,-0.04,0.59
1697353571.42,0.13,0.14,1.03,-0.6,-1.3,-1.5,0.81,0.03,-0.04,0.59
1697353571.43,0.17,0.15,0.94,-1.9,-1.6,-0.6,0.81,0.03,-0.04,0.59
1697353571.44,0.18,0.3,0.89,-2.6,-1.1,0.3,0.81,0.03,-0.04,0.59
1697353571.45,0.17,0.33,1.08,-2.6,-1.1,0.3,0.81,0.03,-0.04,0.59
1697353571.46,0.15,0.25,0.99,2.5,0.3,2.4,0.81,0.03,-0.04,0.59
1697353571.47,0.22,0.21,1.04,5.2,1.3,3.4,0.81,0.03,-0.04,0.59
1697353571.48,0.2,-0.03,1.07,5.2,1.3,3.4,0.81,0.03,-0.04,0.59
1697353571.49,0.15,-0.04,1.01,4.1,0.9,4.6,0.81,0.03,-0.04,0.59
1697353571.5,0.26,0.2,1.14,0.7,0.6,4.8,0.8,0.03,-0.04,0.59
1697353571.51,0.22,0.27,1.24,-1,0.2,5.6,0.8,0.03,-0.04,0.59
1697353571.52,0.27,0.4,1.07,-1,0.1,6.3,0.8,0.03,-0.04,0.59
1697353571.53,0.27,0.4,1.07,-1,0.1,6.3,0.8,0.03,-0.04,0.59
1697353571.54,0.27,0.42,0.94,0.7,-0.4,7.4,0.8,0.03,-0.04,0.59
1697353571.55,0.27,0.42,0.94,0.7,-0.4,7.4,0.8,0.03,-0.04,0.59
1697353571.56,0.27,0.42,0.94,0.7,-0.4,7.4,0.8,0.03,-0.04,0.59
1697353571.57,0.27,0.42,0.94,0.7,-0.4,7.4,0.8,0.03,-0.04,0.59
1697353571.58,0.27,0.42,0.94,0.7,-0.4,7.4,0.8,0.03,-0.04,0.59
1697353571.59,0.27,0.42,0.94,0.7,-0.4,7.4,0.8,0.03,-0.04,0.59
1697353571.6,0.27,0.42,0.94,0.7,-0.4,7.4,0.8,0.03,-0.04,0.59
1697353571.61,0.27,0.42,0.94,0.7,-0.4,7.4,0.8,0.03,-0.04,0.59
1697353571.62,0.27,0.42,0.94,0.7,-0.4,7.4,0.8,0.03,-0.04,0.59
1697353571.63,0.27,0.42,0.94,0.7,-0.4,7.4,0.8,0.03,-0.04,0.59
1697353571.64,0.27,0.42,0.94,0.7,-0.4,7.4,0.8,0.03,-0.04,0.59
1697353571.65,0.15,0.2,1.19,-2,1.2,10.1,0.8,0.03,-0.04,0.6
1697353571.66,0.18,0.36,1.23,-3,0.7,10.1,0.8,0.03,-0.04,0.6
1697353571.67,0.25,0.32,1.06,-1.4,0,10.3,0.8,0.03,-0.04,0.6
1697353571.68,0.17,0.14,1.09,0.8,-1.3,10.1,0.8,0.03,-0.04,0.6
1697353571.69,0.23,0.03,1.08,-2,-2.5,8.3,0.8,0.03,-0.04,0.6
1697353571.7,0.2,0.05,0.97,-4.1,-2.6,7.3,0.8,0.03,-0.04,0.6
1697353571.71,0.12,0.24,0.95,-3.3,-1.9,6.6,0.8,0.03,-0.04,0.6
1697353571.72,0.14,0.25,0.92,-0.2,-1.1,6.1,0.79,0.03,-0.04,0.6
1697353571.73,0.16,0.12,1.01,1.7,0,5.5,0.79,0.03,-0.04,0.6
1697353571.74,0.21,0.04,0.9,2.1,0.8,5.3,0.79,0.03,-0.04,0.61
1697353571.75,0.16,-0.02,1.02,0.8,1.3,5.2,0.79,0.03,-0.04,0.61
1697353571.76,0.15,0.04,1.08,0.4,1.6,5,0.79,0.03,-0.04,0.61
1697353571.77,0.25,0.01,1.03,-0.5,1.4,5,0.79,0.03,-0.04,0.61
1697353571.78,0.25,0.01,1.03,-0.5,1.4,5,0.79,0.03,-0.04,0.61
1697353571.79,0.15,0.16,1.24,-1.2,0.8,5.8,0.79,0.03,-0.04,0.61
1697353571.8,0.15,0.16,1.24,-1.2,0.8,5.8,0.79,0.03,-0.04,0.61
1697353571.81,0.06,0.03,1.29,-0.5,-0.4,5.8,0.79,0.03,-0.04,0.61
1697353571.82,0.06,0.12,1.15,-1.3,-0.6,5.8,0.79,0.03,-0.04,0.61
1697353571.83,0.21,0.12,0.94,-1.3,-0.6,5.8,0.79,0.03,-0.04,0.61
1697353571.84,0.18,0.22,1.13,-1.3,-0.6,5.8,0.79,0.03,-0.04,0.61
1697353571.85,0.19,-0.05,0.96,3.6,-0.6,4.1,0.79,0.03,-0.04,0.61
1697353571.86,0.25,-0.08,0.95,2.1,-0.6,3.2,0.79,0.03,-0.04,0.61
1697353571.87,0.25,-0.08,0.95,2.1,-0.6,3.2,0.79,0.03,-0.04,0.61
1697353571.88,0.19,0.08,0.84,1.2,-0.2,3.2,0.79,0.03,-0.04,0.61
1697353571.89,0.18,0.02,0.95,0.4,1.3,2.1,0.79,0.03,-0.04,0.61
1697353571.9,0.18,-0.01,1.12,-1.4,1.5,2.4,0.79,0.03,-0.04,0.61
1697353571.91,0.17,0.15,1.18,-0.3,0.6,2.6,0.79,0.03,-0.04,0.61
1697353571.92,0.24,0.15,1.13,-0.3,0.6,2.6,0.79,0.03,-0.04,0.61
1697353571.93,0.24,0.15,1.13,0.4,0.3,2.6,0.79,0.03,-0.04,0.61
1697353571.94,0.19,0.06,1.14,1.2,-0.8,2.8,0.79,0.03,-0.04,0.61
1697353571.95,0.14,0,1.05,0.6,-1.8,2.1,0.79,0.03,-0.04,0.61
1697353571.96,0.14,0,1.05,0,-2.3,2.2,0.79,0.03,-0.04,0.61
1697353571.97,0.12,0.19,0.97,0,-2.4,2.4,0.79,0.03,-0.04,0.61
1697353571.98,0.14,-0.24,1.14,3.6,1,2.5,0.79,0.04,-0.04,0.61
1697353571.99,0.14,-0.24,1.14,3.6,1,2.5,0.79,0.04,-0.04,0.61
1697353572,0.18,-0.22,1.04,-2.3,2.1,1.3,0.79,0.04,-0.04,0.61
1697353572.01,0.2,-0.07,1.21,-5.3,0.4,1.7,0.79,0.03,-0.04,0.61
1697353572.02,0.27,0.19,1,-3.2,-1.5,1.6,0.79,0.03,-0.04,0.61
1697353572.03,0.14,0.24,1.15,0,-3.3,1.5,0.79,0.03,-0.04,0.61
1697353572.04,0.16,0.1,1.14,3.1,-4.1,1.4,0.79,0.03,-0.04,0.61
1697353572.05,0.16,0.1,1.14,3.1,-4.1,1.4,0.79,0.03,-0.04,0.61
1697353572.06,0.16,0.1,1.14,3.1,-4.1,1.4,0.79,0.03,-0.04,0.61
1697353572.07,0.16,0.1,1.14,3.1,-4.1,1.4,0.79,0.03,-0.04,0.61
1697353572.08,0.16,0.1,1.14,3.1,-4.1,1.4,0.79,0.03,-0.04,0.61
1697353572.09,0.16,0.1,1.14,3.1,-4.1,1.4,0.79,0.03,-0.04,0.61
1697353572.1,0.16,0.1,1.14,3.1,-4.1,1.4,0.79,0.03,-0.04,0.61
1697353572.11,0.16,0.1,1.14,3.1,-4.1,1.4,0.79,0.03,-0.04,0.61
1697353572.12,0.16,0.1,1.14,3.1,-4.1,1.4,0.79,0.03,-0.04,0.61
1697353572.13,0.16,0.1,1.14,3.1,-4.1,1.4,0.79,0.03,-0.04,0.61
1697353572.14,0.16,0.1,1.14,3.1,-4.1,1.4,0.79,0.03,-0.04,0.61
1697353572.15,0.16,0.1,1.14,3.1,-4.1,1.4,0.79,0.03,-0.04,0.61
1697353572.16,0.16,0.1,1.14,3.1,-4.1,1.4,0.79,0.03,-0.04,0.61
1697353572.17,0.16,0.1,1.14,3.1,-4.1,1.4,0.79,0.03,-0.04,0.61
1697353572.18,0.16,0.1,1.14,3.1,-4.1,1.4,0.79,0.03,-0.04,0.61
1697353572.19,0.25,0.09,1,1.7,1.5,7.5,0.79,0.04,-0.04,0.62
1697353572.2,0.17,0.21,1.17,-2.2,0.5,7.2,0.78,0.04,-0.04,0.62
1697353572.21,0.29,0.41,0.82,-3.6,0.3,6.4,0.78,0.04,-0.04,0.62
1697353572.22,0.19,0.42,0.84,-0.7,0.4,6.4,0.78,0.04,-0.04,0.62
1697353572.23,0.19,0.42,0.84,-0.7,0.4,6.4,0.78,0.04,-0.04,0.62
1697353572.24,0.15,0.12,0.85,2.7,0.3,6.7,0.78,0.04,-0.04,0.62
1697353572.25,0.15,0.05,0.91,3.2,0.6,6.9,0.78,0.04,-0.04,0.62
1697353572.26,0.15,0.05,0.91,1.3,0.6,7.1,0.78,0.04,-0.04,0.62
1697353572.27,0.09,0.04,1.04,-1.9,1.1,7.5,0.78,0.04,-0.04,0.62
1697353572.28,0.15,0.24,1.04,-3.1,1.3,8.1,0.78,0.04,-0.04,0.62
1697353572.29,0.15,0.35,1.17,-2.3,1.3,9.4,0.78,0.03,-0.04,0.62
1697353572.3,0.08,0.35,1.11,-1.9,1.1,10.1,0.78,0.03,-0.04,0.62
1697353572.31,0.25,0.3,1.02,-0.1,0,11.5,0.78,0.03,-0.04,0.62
1697353572.32,0.35,0.25,0.95,-1.5,-0.9,12.3,0.78,0.03,-0.04,0.62
1697353572.33,0.35,0.34,0.79,-1.6,-1.8,12.2,0.78,0.03,-0.04,0.63
1697353572.34,0.27,0.4,0.99,-0.5,-1.9,12.5,0.78,0.03,-0.04,0.63
1697353572.35,0.23,0.42,1.01,2.5,-1.9,12.8,0.78,0.03,-0.04,0.63
1697353572.36,0.07,0.26,0.96,5.4,-1.5,12.4,0.78,0.03,-0.04,0.63
1697353572.37,-0.03,0.12,1.09,3.6,-0.5,12.4,0.78,0.04,-0.04,0.63
1697353572.38,0.09,0.19,1.03,1.2,0.6,12.6,0.78,0.04,-0.04,0.63
1697353572.39,0.11,0.19,1,0,0.7,12.7,0.77,0.04,-0.04,0.63
1697353572.4,0.09,0.47,1.11,-1.6,0.7,12.6,0.77,0.04,-0.04,0.63
1697353572.41,0.33,0.31,0.69,0,0.1,12.7,0.77,0.03,-0.04,0.63
1697353572.42,0.14,0.21,1.1,-0.9,-0.5,12.3,0.77,0.03,-0.04,0.63
1697353572.43,0.14,0.21,1.1,-0.9,-0.5,12.3,0.77,0.03,-0.04,0.63
1697353572.44,0.19,0.38,1.25,-4.2,-2.3,11.6,0.77,0.03,-0.04,0.63
1697353572.45,0.19,0.38,1.25,-4.2,-2.3,11.6,0.77,0.03,-0.04,0.63
1697353572.46,0.07,0.34,0.78,-1.2,-2.7,11.2,0.77,0.03,-0.04,0.64
1697353572.47,0.08,0.27,0.91,-1.2,-2.7,11.2,0.77,0.03,-0.04,0.64
1697353572.48,0.1,0.13,0.88,1.4,-1.2,11.2,0.77,0.03,-0.04,0.64
1697353572.49,-0,0.09,0.93,2.7,0.1,11.2,0.77,0.03,-0.04,0.64
1697353572.5,0.12,0.23,1.29,-0.3,3.3,11.3,0.77,0.03,-0.04,0.64
1697353572.51,0.19,0.4,1.05,-0.1,3.1,11.8,0.77,0.03,-0.04,0.64
1697353572.52,0.23,0.36,1.23,0.6,2,12.5,0.77,0.03,-0.04,0.64
1697353572.53,0.23,0.36,1.23,0.6,2,12.5,0.77,0.03,-0.04,0.64
1697353572.54,0.29,0.29,1.1,1.4,-2.2,13.6,0.76,0.03,-0.04,0.64
1697353572.55,0.23,0.41,1.14,1.4,-2.2,13.6,0.76,0.03,-0.04,0.64
1697353572.56,0.19,0.34,0.95,0,-4.5,13.5,0.76,0.03,-0.04,0.64
1697353572.57,0.15,0.32,0.94,-0.2,-5.7,13.2,0.76,0.04,-0.04,0.64
1697353572.58,0.15,0.32,0.94,-0.2,-4.5,13,0.76,0.04,-0.04,0.65
1697353572.59,0.12,0.19,0.76,-1.3,-3.2,12.6,0.76,0.04,-0.04,0.65
1697353572.6,0.12,0.19,0.76,-1.3,-3.2,12.6,0.76,0.04,-0.04,0.65
1697353572.61,0.12,0.19,0.76,-1.3,-3.2,12.6,0.76,0.04,-0.04,0.65
1697353572.62,0.12,0.19,0.76,-1.3,-3.2,12.6,0.76,0.04,-0.04,0.65
1697353572.63,0.12,0.19,0.76,-1.3,-3.2,12.6,0.76,0.04,-0.04,0.65
1697353572.64,0.12,0.19,0.76,-1.3,-3.2,12.6,0.76,0.04,-0.04,0.65
1697353572.65,0.12,0.19,0.76,-1.3,-3.2,12.6,0.76,0.04,-0.04,0.65
1697353572.66,0.12,0.19,0.76,-1.3,-3.2,12.6,0.76,0.04,-0.04,0.65
1697353572.67,0.12,0.19,0.76,-1.3,-3.2,12.6,0.76,0.04,-0.04,0.65
1697353572.68,0.12,0.19,0.76,-1.3,-3.2,12.6,0.76,0.04,-0.04,0.65
1697353572.69,0.12,0.19,0.76,-1.3,-3.2,12.6,0.76,0.04,-0.04,0.65
1697353572.7,0.12,0.19,0.76,-1.3,-3.2,12.6,0.76,0.04,-0.04,0.65
1697353572.71,0.15,0.2,0.85,0.2,-0.1,12.1,0.76,0.04,-0.04,0.65
1697353572.72,0.16,0.24,1.27,-0.8,-0.4,12.1,0.75,0.04,-0.04,0.66
1697353572.73,0.15,0.38,1.03,1.3,-1.7,12.2,0.75,0.04,-0.04,0.66
1697353572.74,0.19,0.27,1.07,2.7,-2.7,11.8,0.75,0.04,-0.04,0.66
1697353572.75,0.19,0.27,1.07,2.7,-2.7,11.8,0.75,0.04,-0.04,0.66
1697353572.76,0.24,0.18,0.99,0.8,-4.1,10.9,0.75,0.04,-0.04,0.66
1697353572.77,0.27,0.18,0.74,0.8,-4.1,10.9,0.75,0.04,-0.04,0.66
1697353572.78,0.17,0.41,0.95,-3.9,-3.9,10,0.75,0.04,-0.04,0.66
1697353572.79,0.1,0.4,0.92,-3.2,-2.6,9.7,0.75,0.04,-0.04,0.66
1697353572.8,0.08,0.3,0.89,-0.4,-0.5,10.1,0.75,0.04,-0.04,0.66
1697353572.81,0.04,0.15,0.86,2.4,1.6,9.7,0.75,0.04,-0.04,0.66
1697353572.82,0.1,0.04,0.91,2.4,1.6,9.7,0.75,0.04,-0.04,0.66
1697353572.83,0.12,0.1,1.13,1.4,4.7,9.5,0.75,0.04,-0.04,0.66
1697353572.84,0.21,0.2,1.1,-0.9,6.1,9.2,0.74,0.04,-0.04,0.67
1697353572.85,0.26,0.4,1.14,-0.9,6.1,9.2,0.74,0.03,-0.04,0.67
1697353572.86,0.28,0.25,1.13,-0.6,6.3,9.2,0.74,0.03,-0.04,0.67
1697353572.87,0.28,0.25,1.13,3,3.4,9.4,0.74,0.03,-0.04,0.67
1697353572.88,0.19,0.19,1.22,2.5,1.8,8.9,0.74,0.03,-0.04,0.67
1697353572.89,0.29,0.03,1.02,0,-0.1,8,0.74,0.03,-0.04,0.67
1697353572.9,0.34,0.26,0.82,-0.9,-2.4,7,0.74,0.03,-0.04,0.67
1697353572.91,0.18,0.31,0.69,2.2,-4.1,6.9,0.74,0.03,-0.04,0.67
1697353572.92,0.15,0.11,0.94,3,-4.4,6.4,0.74,0.04,-0.04,0.67
1697353572.93,0.11,0.05,0.8,2.1,-3.8,5.4,0.74,0.04,-0.04,0.67
1697353572.94,0.03,-0.01,1.07,0.5,-2.9,4.5,0.74,0.04,-0.04,0.67
1697353572.95,0.12,-0.03,1.07,-2.1,-1.3,4,0.74,0.04,-0.04,0.67
1697353572.96,0.11,0.13,0.91,-2.4,0.1,3.9,0.74,0.04,-0.04,0.67
1697353572.97,0.12,0.16,1.04,-0.3,1.3,3.9,0.74,0.04,-0.04,0.67
1697353572.98,0.13,0.08,0.99,0,2.5,4,0.74,0.04,-0.04,0.67
1697353572.99,0.08,0.14,1.07,-0.4,3.2,4.6,0.74,0.04,-0.04,0.67
1697353573,0.17,0.02,1.23,-1.2,2.4,4.8,0.74,0.03,-0.04,0.67
1697353573.01,0.19,0.04,1.02,-2.1,1,5,0.74,0.03,-0.04,0.67
1697353573.02,0.09,0.28,1.25,0,0.1,6,0.74,0.03,-0.04,0.67
1697353573.03,0.12,0.05,1.06,1.2,0,6.1,0.74,0.03,-0.04,0.67
1697353573.04,0.17,0.05,0.98,2.1,0.4,5.1,0.74,0.03,-0.04,0.67
1697353573.05,0.24,0,0.91,1.2,0.4,4.9,0.74,0.03,-0.04,0.67
1697353573.06,0.15,0.09,1.03,0.4,1,4.3,0.74,0.03,-0.04,0.67
1697353573.07,0.23,0.15,1.13,1.6,0.8,3.8,0.74,0.03,-0.04,0.67
1697353573.08,0.23,0.15,1.13,1.6,0.8,3.8,0.74,0.03,-0.04,0.67
1697353573.09,0.13,0.15,0.94,0.4,-1.5,3.3,0.74,0.03,-0.04,0.68
1697353573.1,0.13,0.15,0.94,0.4,-1.5,3.3,0.74,0.03,-0.04,0.68
1697353573.11,0.13,0.15,0.94,0.4,-1.5,3.3,0.74,0.03,-0.04,0.68
1697353573.12,0.13,0.15,0.94,0.4,-1.5,3.3,0.74,0.03,-0.04,0.68
1697353573.13,0.13,0.15,0.94,0.4,-1.5,3.3,0.74,0.03,-0.04,0.68
1697353573.14,0.13,0.15,0.94,0.4,-1.5,3.3,0.74,0.03,-0.04,0.68
1697353573.15,0.13,0.15,0.94,0.4,-1.5,3.3,0.74,0.03,-0.04,0.68
1697353573.16,0.13,0.15,0.94,0.4,-1.5,3.3,0.74,0.03,-0.04,0.68
1697353573.17,0.13,0.15,0.94,0.4,-1.5,3.3,0.74,0.03,-0.04,0.68
1697353573.18,0.13,0.15,0.94,0.4,-1.5,3.3,0.74,0.03,-0.04,0.68
1697353573.19,0.13,0.15,0.94,0.4,-1.5,3.3,0.74,0.03,-0.04,0.68
1697353573.2,0.13,0.15,0.94,0.4,-1.5,3.3,0.74,0.03,-0.04,0.68
1697353573.21,0.13,0.15,0.94,0.4,-1.5,3.3,0.74,0.03,-0.04,0.68
1697353573.22,0.13,0.15,0.94,0.4,-1.5,3.3,0.74,0.03,-0.04,0.68
1697353573.23,0.13,0.15,0.94,0.4,-1.5,3.3,0.74,0.03,-0.04,0.68
1697353573.24,0.17,-0.04,1.07,0.4,-2,2.4,0.73,0.04,-0.04,0.68
1697353573.25,0.07,-0.07,1.13,0.4,-2,2.4,0.73,0.04,-0.04,0.68
1697353573.26,0.23,0.01,0.82,-0.5,-2,2.1,0.73,0.04,-0.04,0.68
1697353573.27,0.07,0.12,0.74,-1,-0.9,2.8,0.73,0.04,-0.04,0.68
1697353573.28,0.01,0.03,0.99,-1,-0.9,2.8,0.73,0.04,-0.04,0.68
1697353573.29,0.02,0.02,0.96,3,1,2.5,0.73,0.04,-0.04,0.68
1697353573.3,0.02,0.02,0.96,3,1,2.5,0.73,0.04,-0.04,0.68
1697353573.31,-0.03,-0.09,0.87,-0.2,1.6,2,0.73,0.04,-0.04,0.68
1697353573.32,-0.07,-0,1.05,-2.4,1.6,1.9,0.73,0.04,-0.04,0.68
1697353573.33,0.01,0.12,0.88,-2.8,1.5,1.9,0.73,0.04,-0.04,0.68
1697353573.34,-0.22,0.18,1.28,-1,1.1,2.1,0.73,0.03,-0.04,0.68
1697353573.35,-0.27,0.02,1.18,2.3,1.4,2.3,0.73,0.03,-0.04,0.68
1697353573.36,-0.31,-0.18,1.15,2.8,1.8,2,0.73,0.03,-0.04,0.68
1697353573.37,-0.3,0.02,0,0.8,2.6,1.1,0.73,0.03,-0.04,0.68
1697353573.38,-0.73,0.07,1.1,-1.3,4.5,0.7,0.73,0.03,-0.04,0.68
1697353573.39,-0.58,0.09,0.64,-2,6.3,0.5,0.73,0.03,-0.04,0.68
1697353573.4,-0.58,0.09,0.64,-2,6.3,0.5,0.73,0.03,-0.04,0.68
1697353573.41,-0.18,0.01,0.85,-0.2,7,0,0.73,0.03,-0.04,0.68
1697353573.42,0.04,-0.04,1.11,0,5.9,0.1,0.73,0.03,-0.04,0.68
1697353573.43,0.17,0.04,1.05,-0.8,3.8,0.3,0.73,0.03,-0.04,0.68
1697353573.44,-0.02,0.09,1.23,-1.3,0.8,0.3,0.73,0.03,-0.04,0.68
1697353573.45,0.15,0.04,0.6,-1.3,0.8,0.3,0.73,0.03,-0.04,0.68
1697353573.46,0.08,-0.05,0.3,0,-1.2,0.7,0.73,0.03,-0.04,0.68
1697353573.47,-0.21,0.1,1.11,-0.5,-0.7,0.4,0.73,0.03,-0.04,0.68
1697353573.48,-0.12,-0.04,0.91,-0.5,-0.7,0.4,0.73,0.03,-0.04,0.68
1697353573.49,0.01,0.01,0.91,-0.9,1.4,0.5,0.73,0.03,-0.04,0.68
1697353573.5,-0.04,0.17,1.06,-0.9,1.4,0.5,0.73,0.03,-0.04,0.68
1697353573.51,-0.16,0.26,1.13,-0.7,2.5,1.8,0.73,0.03,-0.04,0.68
1697353573.52,-0.16,0.26,1.13,-0.7,2.5,1.8,0.73,0.03,-0.04,0.68
1697353573.53,-0.14,-0.07,1.14,1.6,1.9,2.8,0.73,0.03,-0.04,0.68
1697353573.54,-0.12,0.09,0.97,3.2,1.4,2.5,0.73,0.03,-0.04,0.68
1697353573.55,-0.11,0.05,0.87,1.6,1.2,3.3,0.73,0.03,-0.04,0.68
1697353573.56,-0.43,-0.06,1.4,0.7,0.1,4.3,0.73,0.03,-0.04,0.68
1697353573.57,-0.23,0,0.58,0.1,0,3.3,0.73,0.03,-0.04,0.68
1697353573.58,-0.23,0,0.58,0.1,0,3.3,0.73,0.03,-0.04,0.68
1697353573.59,-0.21,0.13,1.04,-0.5,0.1,3.2,0.73,0.03,-0.04,0.68
1697353573.6,-0.03,0,0.73,2,-0.2,2.3,0.73,0.03,-0.04,0.68
1697353573.61,-0.12,-0.21,1.23,-0.6,-0.1,1.5,0.73,0.03,-0.04,0.68
1697353573.62,-0.12,-0.21,1.23,-0.6,-0.1,1.5,0.73,0.03,-0.04,0.68
1697353573.63,-0.12,-0.21,1.23,-0.6,-0.1,1.5,0.73,0.03,-0.04,0.68
1697353573.64,-0.12,-0.21,1.23,-0.6,-0.1,1.5,0.73,0.03,-0.04,0.68
1697353573.65,-0.12,-0.21,1.23,-0.6,-0.1,1.5,0.73,0.03,-0.04,0.68
1697353573.66,-0.12,-0.21,1.23,-0.6,-0.1,1.5,0.73,0.03,-0.04,0.68
1697353573.67,-0.12,-0.21,1.23,-0.6,-0.1,1.5,0.73,0.03,-0.04,0.68
1697353573.68,-0.12,-0.21,1.23,-0.6,-0.1,1.5,0.73,0.03,-0.04,0.68
1697353573.69,-0.12,-0.21,1.23,-0.6,-0.1,1.5,0.73,0.03,-0.04,0.68
1697353573.7,-0.12,-0.21,1.23,-0.6,-0.1,1.5,0.73,0.03,-0.04,0.68
1697353573.71,-0.12,-0.21,1.23,-0.6,-0.1,1.5,0.73,0.03,-0.04,0.68
1697353573.72,-0.12,-0.21,1.23,-0.6,-0.1,1.5,0.73,0.03,-0.04,0.68
1697353573.73,-0.12,-0.21,1.23,-0.6,-0.1,1.5,0.73,0.03,-0.04,0.68
1697353573.74,-0.02,0.01,1.09,-1.8,2.7,1.7,0.73,0.03,-0.04,0.68
1697353573.75,-0.11,0.2,0.97,-5,2.4,2.2,0.73,0.03,-0.04,0.68
1697353573.76,0.01,0.34,1.03,-4.3,1.7,2.4,0.73,0.03,-0.04,0.68
1697353573.77,-0.03,0.22,0.94,-2,0.2,3.1,0.73,0.03,-0.04,0.68
1697353573.78,-0.25,0.07,1.44,0,-1.1,3.1,0.73,0.03,-0.04,0.68
1697353573.79,-0.2,-0.05,1.01,2.5,-1.3,3.4,0.73,0.03,-0.04,0.68
1697353573.8,-0.33,-0.06,0.61,1.4,-0.8,3.5,0.73,0.03,-0.04,0.68
1697353573.81,-0.28,-0.05,1.01,-1,-0.1,2.2,0.73,0.03,-0.04,0.68
1697353573.82,-0.15,0.11,0.71,-1.6,0,2.5,0.73,0.03,-0.04,0.68
1697353573.83,-0.05,0.16,0.99,0,0.9,2.9,0.73,0.03,-0.04,0.68
1697353573.84,-0.09,0.04,1.21,0.6,1.7,3,0.73,0.03,-0.04,0.68
1697353573.85,0.04,0.09,0.93,-0.5,0.9,3.6,0.73,0.03,-0.04,0.68
1697353573.86,-0.07,0.15,1.08,-0.5,0.9,3.6,0.73,0.03,-0.04,0.68
1697353573.87,0.01,0.17,0.99,-1,0.2,4.5,0.73,0.03,-0.04,0.68
1697353573.88,0.01,0.17,0.99,-1.7,-0.5,5.1,0.73,0.03,-0.04,0.69
1697353573.89,-0.04,0.14,1.09,-1.6,-0.9,5.2,0.73,0.03,-0.04,0.69
1697353573.9,0.09,0.2,0.98,-0.9,-2.2,5.4,0.73,0.03,-0.04,0.69
1697353573.91,-0.08,0.19,0.79,-0.1,-2.9,5.4,0.73,0.03,-0.04,0.69
1697353573.92,-0.18,0.04,1.27,1.6,-1.7,4.9,0.73,0.03,-0.04,0.69
1697353573.93,-0.01,0.04,0.69,0.3,-0.4,4.1,0.73,0.03,-0.04,0.69
1697353573.94,-0.01,0.15,0.82,0.2,0,3.8,0.72,0.03,-0.04,0.69
1697353573.95,-0.16,0.1,0.83,-0.1,1.1,3.3,0.72,0.03,-0.04,0.69
1697353573.96,-0.1,0.07,0.71,-0.2,2.4,2.9,0.72,0.03,-0.04,0.69
1697353573.97,-0.18,0.23,1.11,-1.6,3.5,2.7,0.72,0.03,-0.04,0.69
1697353573.98,-0.24,0.12,0.99,-1.7,3.7,2.8,0.72,0.03,-0.04,0.69
1697353573.99,-0.14,0.08,1.02,-0.3,3.4,2.8,0.72,0.03,-0.04,0.69
1697353574,-0,0.19,0.77,-0.2,2.9,3,0.72,0.03,-0.04,0.69
1697353574.01,-0.08,-0,1.04,0.6,1.5,3.2,0.72,0.03,-0.04,0.69
1697353574.02,0,0.15,0.98,-0.2,0.4,3,0.72,0.03,-0.04,0.69
1697353574.03,-0.12,0.08,0.88,1.7,-0.7,3.9,0.72,0.03,-0.04,0.69
1697353574.04,-0.09,0,0.71,2.4,0,3.6,0.72,0.03,-0.04,0.69
1697353574.05,-0.14,0.01,1.08,2.7,0.4,3.6,0.72,0.03,-0.04,0.69
1697353574.06,-0.01,-0.1,1.02,-0.1,1,3.6,0.72,0.03,-0.04,0.69
1697353574.07,-0.05,0.01,1.02,-3.1,0.7,3.6,0.72,0.03,-0.04,0.69
1697353574.08,-0.13,0.27,1.06,-3.1,0.7,3.6,0.72,0.03,-0.04,0.69
1697353574.09,-0.14,0.27,1.31,-2.7,0.5,4.3,0.72,0.03,-0.04,0.69
1697353574.1,-0.11,0.15,1.18,1.4,-0.1,5.2,0.72,0.03,-0.04,0.69
1697353574.11,-0.02,0.17,1.13,1.2,-1.6,5.6,0.72,0.03,-0.04,0.69
1697353574.12,-0.15,0.13,1.03,0,-2.1,6.1,0.72,0.03,-0.04,0.69
1697353574.13,-0.15,0.13,1.03,0,-2.1,6.1,0.72,0.03,-0.04,0.69
1697353574.14,-0.21,0.15,1.13,-0.2,-1.9,6.1,0.72,0.03,-0.04,0.69
1697353574.15,-0.21,0.15,1.13,-0.2,-1.9,6.1,0.72,0.03,-0.04,0.69
1697353574.16,-0.21,0.15,1.13,-0.2,-1.9,6.1,0.72,0.03,-0.04,0.69
1697353574.17,-0.21,0.15,1.13,-0.2,-1.9,6.1,0.72,0.03,-0.04,0.69
1697353574.18,-0.21,0.15,1.13,-0.2,-1.9,6.1,0.72,0.03,-0.04,0.69
1697353574.19,-0.21,0.15,1.13,-0.2,-1.9,6.1,0.72,0.03,-0.04,0.69
1697353574.2,-0.21,0.15,1.13,-0.2,-1.9,6.1,0.72,0.03,-0.04,0.69
1697353574.21,-0.21,0.15,1.13,-0.2,-1.9,6.1,0.72,0.03,-0.04,0.69
1697353574.22,-0.21,0.15,1.13,-0.2,-1.9,6.1,0.72,0.03,-0.04,0.69
1697353574.23,-0.21,0.15,1.13,-0.2,-1.9,6.1,0.72,0.03,-0.04,0.69
1697353574.24,-0.21,0.15,1.13,-0.2,-1.9,6.1,0.72,0.03,-0.04,0.69
1697353574.25,-0.21,0.15,1.13,-0.2,-1.9,6.1,0.72,0.03,-0.04,0.69
1697353574.26,-0.21,0.15,1.13,-0.2,-1.9,6.1,0.72,0.03,-0.04,0.69
1697353574.27,-0.08,-0.03,0.99,1,0.4,4.3,0.72,0.03,-0.04,0.7
1697353574.28,-0.13,0.07,1.04,-0.2,0.7,4,0.72,0.03,-0.04,0.7
1697353574.29,-0.21,0.11,0.9,-0.6,1.9,4,0.72,0.03,-0.04,0.7
1697353574.3,-0.24,0.21,0.94,0.4,3.1,4.4,0.72,0.03,-0.04,0.7
1697353574.31,-0.15,0.14,1.02,0.8,3.6,4.9,0.72,0.03,-0.04,0.7
1697353574.32,-0.08,0.12,1.08,-0.5,3,5.7,0.72,0.03,-0.04,0.7
1697353574.33,-0.07,0.17,1.05,-1.1,2.1,6,0.71,0.03,-0.04,0.7
1697353574.34,-0.02,0.14,0.85,-1.9,0.6,6.4,0.71,0.03,-0.04,0.7
1697353574.35,-0.03,0.26,1.01,0.3,-0.8,7,0.71,0.03,-0.04,0.7
1697353574.36,-0.06,0.25,1.22,3.2,-2.3,7.6,0.71,0.03,-0.04,0.7
1697353574.37,-0.21,0.03,1.09,4.3,-3,7.2,0.71,0.03,-0.04,0.7
1697353574.38,-0.19,-0.04,1.09,2.9,-2.8,6.4,0.71,0.03,-0.04,0.7
1697353574.39,-0.06,-0.05,0.78,0.1,-2.1,6.1,0.71,0.03,-0.04,0.7
1697353574.4,-0.33,-0.03,1.11,0.1,-2.1,6.1,0.71,0.03,-0.04,0.7
1697353574.41,-0.33,0.18,0.88,-1.1,1.2,4.9,0.71,0.03,-0.03,0.7
1697353574.42,-0.15,0.11,1.09,-0.7,2.2,4.2,0.71,0.03,-0.03,0.7
1697353574.43,-0.13,0.18,0.92,-0.7,2.2,4.2,0.71,0.03,-0.03,0.7
1697353574.44,-0.09,0.24,1.18,0.2,2.7,4.2,0.71,0.03,-0.03,0.7
1697353574.45,-0.12,0.08,1.09,0,1.5,3.8,0.71,0.03,-0.03,0.7
1697353574.46,-0,0.07,0.89,0,1.5,3.8,0.71,0.03,-0.03,0.7
1697353574.47,-0,0.07,0.89,-1.7,-0.3,3.7,0.71,0.03,-0.03,0.7
1697353574.48,-0.13,0.21,1.15,-1.9,-1.4,4.8,0.71,0.03,-0.03,0.7
1697353574.49,-0.23,0.15,1.02,0.7,-1.6,4.9,0.71,0.03,-0.03,0.7
1697353574.5,-0.11,0.11,0.99,2.8,-1.4,4.7,0.71,0.03,-0.03,0.7
1697353574.51,-0.1,-0.02,0.98,2.8,-1.2,4.5,0.71,0.03,-0.03,0.7
1697353574.52,-0.21,-0.03,0.99,1.5,-0.9,4.3,0.71,0.03,-0.03,0.7
1697353574.53,-0.16,-0.05,0.98,-0.6,0.5,4,0.71,0.03,-0.03,0.7
1697353574.54,-0.19,0.08,0.83,-1.2,1.9,3.8,0.71,0.02,-0.03,0.7
1697353574.55,-0.16,0.23,0.92,-1.6,2.8,4.4,0.71,0.02,-0.03,0.7
1697353574.56,-0.07,0.43,0.93,-0.1,3.1,5.8,0.71,0.02,-0.03,0.71
1697353574.57,0,0.4,0.94,0.4,2.9,6.1,0.71,0.02,-0.03,0.71
1697353574.58,0.05,0.32,0.98,1.5,2.2,7.7,0.71,0.02,-0.03,0.71
1697353574.59,-0.06,0.44,0.84,0.4,1.2,9.5,0.71,0.02,-0.03,0.71
1697353574.6,-0.05,0.44,0.83,0,-0.5,11.4,0.71,0.02,-0.03,0.71
1697353574.61,-0.06,0.49,0.91,0.9,-1.5,13,0.71,0.02,-0.03,0.71
1697353574.62,-0.15,0.42,0.87,2.7,-2,14.4,0.7,0.02,-0.03,0.71
1697353574.63,-0.12,0.38,1.07,3.3,-2.1,15.4,0.7,0.02,-0.03,0.71
1697353574.64,-0.13,0.37,1.14,3.3,-1.6,16.3,0.7,0.03,-0.03,0.71
1697353574.65,-0.06,0.55,0.94,3.4,-0.8,16.8,0.7,0.03,-0.03,0.71
1697353574.66,-0.06,0.55,0.94,3.4,-0.8,16.8,0.7,0.03,-0.03,0.71
1697353574.67,-0.06,0.55,0.94,3.4,-0.8,16.8,0.7,0.03,-0.03,0.71
1697353574.68,-0.06,0.55,0.94,3.4,-0.8,16.8,0.7,0.03,-0.03,0.71
1697353574.69,-0.06,0.55,0.94,3.4,-0.8,16.8,0.7,0.03,-0.03,0.71
1697353574.7,-0.06,0.55,0.94,3.4,-0.8,16.8,0.7,0.03,-0.03,0.71
1697353574.71,-0.06,0.55,0.94,3.4,-0.8,16.8,0.7,0.03,-0.03,0.71
1697353574.72,-0.06,0.55,0.94,3.4,-0.8,16.8,0.7,0.03,-0.03,0.71
1697353574.73,-0.06,0.55,0.94,3.4,-0.8,16.8,0.7,0.03,-0.03,0.71
1697353574.74,-0.06,0.55,0.94,3.4,-0.8,16.8,0.7,0.03,-0.03,0.71
1697353574.75,-0.06,0.55,0.94,3.4,-0.8,16.8,0.7,0.03,-0.03,0.71
1697353574.76,-0.06,0.55,0.94,3.4,-0.8,16.8,0.7,0.03,-0.03,0.71
1697353574.77,-0.06,0.55,0.94,3.4,-0.8,16.8,0.7,0.03,-0.03,0.71
1697353574.78,-0.06,0.55,0.94,3.4,-0.8,16.8,0.7,0.03,-0.03,0.71
1697353574.79,-0.01,0.77,1.1,0,0.9,26.4,0.68,0.03,-0.03,0.73
1697353574.8,-0.01,0.77,1.1,0,0.9,26.4,0.68,0.03,-0.03,0.74
1697353574.81,-0.13,0.7,1.1,-1.2,-0.9,27.6,0.67,0.03,-0.03,0.74
1697353574.82,-0.13,0.7,1.1,-1.2,-0.9,27.6,0.67,0.03,-0.03,0.74
1697353574.83,-0.14,0.76,0.99,-2,-2,28.1,0.67,0.03,-0.03,0.74
1697353574.84,-0.07,0.63,1,-1.2,-2.9,29.2,0.67,0.03,-0.03,0.74
1697353574.85,-0.17,0.71,1.01,-0.2,-3.3,29.6,0.67,0.03,-0.03,0.74
1697353574.86,-0.2,0.64,1.02,-0.3,-2.8,29.6,0.67,0.03,-0.03,0.75
1697353574.87,-0.18,0.65,1.11,0.2,-1.7,29.4,0.66,0.03,-0.03,0.75
1697353574.88,-0.2,0.66,1.06,1,-1.4,29.3,0.66,0.03,-0.03,0.75
1697353574.89,-0.11,0.49,0.96,-0.2,-1.1,28.8,0.66,0.03,-0.03,0.75
1697353574.9,-0.28,0.59,1.01,0.1,0,28.3,0.66,0.03,-0.03,0.75
1697353574.91,-0.16,0.7,1.03,0.5,1.5,27.9,0.66,0.03,-0.03,0.75
1697353574.92,-0.23,0.5,1.05,0.5,2.7,27.6,0.65,0.03,-0.03,0.76
1697353574.93,-0.15,0.58,1.24,-0.6,3.1,27.7,0.65,0.03,-0.03,0.76
1697353574.94,-0.1,0.7,1.12,-0.5,3,27.9,0.65,0.02,-0.03,0.76
1697353574.95,-0.12,0.68,0.96,0.6,1.8,27.5,0.65,0.02,-0.03,0.76
1697353574.96,-0.1,0.61,1.23,0.4,0.3,27.1,0.65,0.02,-0.03,0.76
1697353574.97,-0.08,0.51,1.01,-0.8,-0.9,26.5,0.64,0.02,-0.03,0.76
1697353574.98,0.04,0.53,0.84,-0.9,-1.9,25,0.64,0.02,-0.03,0.77
1697353574.99,-0.07,0.38,1.09,-1.2,-3.5,23.4,0.64,0.02,-0.03,0.77
1697353575,-0.01,0.44,0.86,-1.5,-4.7,22.3,0.64,0.02,-0.03,0.77
1697353575.01,0.01,0.46,0.82,-0.3,-4.5,21.2,0.64,0.02,-0.03,0.77
1697353575.02,0.05,0.25,0.72,-0.1,-4.2,20.9,0.64,0.03,-0.03,0.77
1697353575.03,-0.11,0.34,1.1,0.1,-3.6,18.7,0.64,0.03,-0.03,0.77
1697353575.04,-0.07,0.37,1.03,-0.4,-3.6,17.6,0.63,0.03,-0.03,0.77
1697353575.05,-0.08,0.43,0.92,-0.3,-2.6,17.9,0.63,0.03,-0.03,0.77
1697353575.06,-0.09,0.34,0.94,0.2,-1.8,18.1,0.63,0.03,-0.03,0.77
1697353575.07,-0.13,0.26,1.12,1.3,-1.1,17.4,0.63,0.03,-0.03,0.78
1697353575.08,-0.17,0.31,1.05,-0.7,-0.1,17.7,0.63,0.03,-0.03,0.78
1697353575.09,-0.12,0.58,1.05,-2.7,1,19,0.63,0.03,-0.03,0.78
1697353575.1,-0.07,0.53,0.87,-2.7,1,19,0.63,0.03,-0.03,0.78
1697353575.11,-0.1,0.32,1.1,3.9,0.6,19.8,0.62,0.03,-0.03,0.78
1697353575.12,-0.1,0.2,1.23,3.9,0.6,19.8,0.62,0.03,-0.03,0.78
1697353575.13,-0.06,0.28,0.85,2.4,-0.1,19.7,0.62,0.03,-0.03,0.78
1697353575.14,-0.14,0.07,1.23,-2.3,-0.6,18,0.62,0.03,-0.03,0.78
1697353575.15,-0.04,0.32,0.97,-4,-0.2,17.1,0.62,0.03,-0.03,0.78
1697353575.16,-0.21,0.46,1.2,-1.1,0,16.2,0.62,0.03,-0.03,0.78
1697353575.17,-0.15,0.55,0.8,-1.1,0,16.2,0.62,0.03,-0.03,0.78
1697353575.18,-0.15,0.55,0.8,0.8,0.6,15.9,0.62,0.03,-0.03,0.79
1697353575.19,-0.15,0.55,0.8,0.8,0.6,15.9,0.62,0.03,-0.03,0.79
1697353575.2,-0.15,0.55,0.8,0.8,0.6,15.9,0.62,0.03,-0.03,0.79
1697353575.21,-0.15,0.55,0.8,0.8,0.6,15.9,0.62,0.03,-0.03,0.79
1697353575.22,-0.15,0.55,0.8,0.8,0.6,15.9,0.62,0.03,-0.03,0.79
1697353575.23,-0.15,0.55,0.8,0.8,0.6,15.9,0.62,0.03,-0.03,0.79
1697353575.24,-0.15,0.55,0.8,0.8,0.6,15.9,0.62,0.03,-0.03,0.79
1697353575.25,-0.15,0.55,0.8,0.8,0.6,15.9,0.62,0.03,-0.03,0.79
1697353575.26,-0.15,0.55,0.8,0.8,0.6,15.9,0.62,0.03,-0.03,0.79
1697353575.27,-0.15,0.55,0.8,0.8,0.6,15.9,0.62,0.03,-0.03,0.79
1697353575.28,-0.15,0.55,0.8,0.8,0.6,15.9,0.62,0.03,-0.03,0.79
1697353575.29,-0.15,0.55,0.8,0.8,0.6,15.9,0.62,0.03,-0.03,0.79
1697353575.3,-0.15,0.55,0.8,0.8,0.6,15.9,0.62,0.03,-0.03,0.79
1697353575.31,-0.15,0.55,0.8,0.8,0.6,15.9,0.62,0.03,-0.03,0.79
1697353575.32,-0.22,-0.62,1.15,-4.7,0.7,-6.2,0.61,0.02,-0.03,0.79
1697353575.33,0.05,-0.6,0.8,-7.7,0,-9.5,0.61,0.02,-0.03,0.79
1697353575.34,-0.15,-0.55,1.1,-9.3,-0.6,-12.6,0.61,0.02,-0.04,0.79
1697353575.35,-0.08,-0.57,1.22,-8.6,-1.2,-16.2,0.61,0.02,-0.04,0.79
1697353575.36,-0.15,-0.66,1.16,-7.6,-1.8,-19.1,0.61,0.02,-0.04,0.79
1697353575.37,-0.02,-0.64,0.79,-5.6,-2.8,-22.2,0.61,0.02,-0.04,0.79
1697353575.38,-0.19,-0.83,1.42,-5.6,-2.8,-22.2,0.62,0.02,-0.04,0.79
1697353575.39,-0.21,-1.11,1.15,-5.3,-3.2,-24.6,0.62,0.02,-0.04,0.78
1697353575.4,-0.17,-1.07,1.13,-7.9,-2.6,-28,0.62,0.02,-0.04,0.78
1697353575.41,-0.23,-0.98,1.19,-11.3,-2,-30.9,0.62,0.02,-0.04,0.78
1697353575.42,-0.2,-0.91,1.38,-13.1,-1.5,-32.9,0.62,0.02,-0.04,0.78
1697353575.43,0.1,-0.72,0.93,-10.7,-0.9,-34.7,0.63,0.02,-0.04,0.78
1697353575.44,-0.26,-1.02,1.05,-6.7,-0.4,-35.9,0.63,0.02,-0.04,0.78
1697353575.45,0.05,-1.11,0.47,-4.2,0,-37.4,0.63,0.02,-0.04,0.77
1697353575.46,0.03,-1.19,0.87,-4.2,0.3,-39.2,0.64,0.02,-0.04,0.77
1697353575.47,0.04,-1.1,1.04,-5.5,0.2,-41,0.64,0.02,-0.04,0.77
1697353575.48,0.14,-1.06,0.83,-6.6,0.2,-41.7,0.64,0.02,-0.04,0.77
1697353575.49,0.15,-0.88,1.01,-5,0.4,-42.6,0.64,0.02,-0.04,0.76
1697353575.5,0.17,-0.92,0.73,-1.2,0.1,-43.3,0.64,0.02,-0.04,0.76
1697353575.51,-0.15,-0.97,1.3,2.6,0.1,-43.7,0.65,0.02,-0.04,0.76
1697353575.52,-0.19,-1.34,1.01,3.2,0.5,-43.9,0.65,0.02,-0.04,0.76
1697353575.53,-0.29,-1.03,1.11,0.7,1.8,-45.1,0.65,0.02,-0.04,0.76
1697353575.54,-0.18,-1.39,0.88,-3.5,2.7,-45.8,0.66,0.02,-0.04,0.75
1697353575.55,-0.09,-1.13,0.92,-3.5,2.7,-45.8,0.66,0.02,-0.04,0.75
1697353575.56,0.03,-1.08,0.86,-6.7,4.5,-47.8,0.67,0.02,-0.04,0.74
1697353575.57,0.15,-1.02,0.46,-7.1,3.9,-48.1,0.67,0.02,-0.04,0.74
1697353575.58,0.19,-0.88,0.77,-7.1,3.9,-48.1,0.67,0.02,-0.04,0.74
1697353575.59,0.19,-1.15,0.75,-4,3.7,-48.9,0.67,0.02,-0.04,0.74
1697353575.6,0.19,-1.15,0.75,-0.3,2,-49.2,0.68,0.02,-0.04,0.74
1697353575.61,0.06,-1.25,0.87,0.8,0.4,-50.2,0.68,0.02,-0.04,0.73
1697353575.62,-0.2,-1.1,1.21,0.4,-0.6,-50.6,0.68,0.02,-0.04,0.73
1697353575.63,-0.2,-1.1,1.21,-0.7,-0.6,-51.1,0.69,0.02,-0.04,0.73
1697353575.64,-0.14,-1.1,0.92,-1.8,0.6,-50.9,0.69,0.02,-0.04,0.72
1697353575.65,-0.23,-1.13,1.14,-1.3,1.6,-50.7,0.69,0.02,-0.04,0.72
1697353575.66,-0.16,-1.07,1.01,-0.8,2.7,-50.4,0.7,0.02,-0.04,0.72
1697353575.67,-0.24,-1.16,0.94,0.2,3.4,-50.7,0.7,0.02,-0.04,0.71
1697353575.68,-0.2,-1.25,1.28,-0.3,3.3,-50.9,0.7,0.02,-0.04,0.71
1697353575.69,-0.09,-1.38,0.91,-2.5,2.9,-51.4,0.71,0.02,-0.04,0.71
1697353575.7,-0.32,-1.31,1.52,-4.4,2.1,-52.4,0.71,0.02,-0.04,0.7
1697353575.71,-0.14,-1.13,1.15,-3.4,1.9,-52.7,0.71,0.02,-0.04,0.7
1697353575.72,-0.14,-1.13,1.15,-3.4,1.9,-52.7,0.71,0.02,-0.04,0.7
1697353575.73,-0.14,-1.13,1.15,-3.4,1.9,-52.7,0.71,0.02,-0.04,0.7
1697353575.74,-0.14,-1.13,1.15,-3.4,1.9,-52.7,0.71,0.02,-0.04,0.7
1697353575.75,-0.14,-1.13,1.15,-3.4,1.9,-52.7,0.71,0.02,-0.04,0.7
1697353575.76,-0.14,-1.13,1.15,-3.4,1.9,-52.7,0.71,0.02,-0.04,0.7
1697353575.77,-0.14,-1.13,1.15,-3.4,1.9,-52.7,0.71,0.02,-0.04,0.7
1697353575.78,-0.14,-1.13,1.15,-3.4,1.9,-52.7,0.71,0.02,-0.04,0.7
1697353575.79,-0.14,-1.13,1.15,-3.4,1.9,-52.7,0.71,0.02,-0.04,0.7
1697353575.8,-0.14,-1.13,1.15,-3.4,1.9,-52.7,0.71,0.02,-0.04,0.7
1697353575.81,-0.14,-1.13,1.15,-3.4,1.9,-52.7,0.71,0.02,-0.04,0.7
1697353575.82,-0.14,-1.13,1.15,-3.4,1.9,-52.7,0.71,0.02,-0.04,0.7
1697353575.83,-0.14,-1.13,1.15,-3.4,1.9,-52.7,0.71,0.02,-0.04,0.7
1697353575.84,0.14,-1.15,0.65,-0.8,5.3,-50.2,0.75,0.02,-0.04,0.66
1697353575.85,0.04,-1.17,0.75,-0.4,4.7,-50.2,0.75,0.02,-0.04,0.66
1697353575.86,0.02,-1.16,1.15,0.6,4.2,-50.5,0.76,0.02,-0.04,0.65
1697353575.87,0.03,-1.11,0.63,0.6,4.2,-50.5,0.76,0.02,-0.04,0.65
1697353575.88,0.07,-1.19,0.73,1.2,2.9,-50.5,0.76,0.02,-0.04,0.65
1697353575.89,-0.22,-1.08,1.34,2.5,2.5,-51.2,0.77,0.02,-0.04,0.64
1697353575.9,-0.2,-1.31,0.96,0.1,2.7,-51.6,0.77,0.02,-0.04,0.64
1697353575.91,-0.16,-1.15,0.98,-1.7,3,-51.9,0.77,0.02,-0.04,0.64
1697353575.92,-0.14,-0.93,1.04,-1,3.5,-51.8,0.77,0.02,-0.04,0.63
1697353575.93,-0.14,-0.93,1.04,-1,3.5,-51.8,0.78,0.02,-0.04,0.63
1697353575.94,-0.21,-1.1,1.33,0.5,3,-51.5,0.78,0.02,-0.04,0.62
1697353575.95,0.02,-1.13,0.7,0.5,3,-51.5,0.78,0.02,-0.03,0.62
1697353575.96,0.01,-1.19,0.77,2.3,2.2,-51.9,0.79,0.02,-0.03,0.62
1697353575.97,0.01,-1.19,0.77,2.3,2.2,-51.9,0.79,0.02,-0.03,0.61
1697353575.98,-0.04,-1.19,0.97,2.2,1.4,-52,0.79,0.02,-0.03,0.61
1697353575.99,0.09,-1.12,0.57,1.5,0,-52,0.79,0.02,-0.03,0.61
1697353576,-0.06,-0.99,0.94,0.8,0,-51.7,0.8,0.02,-0.03,0.6
1697353576.01,0.07,-0.97,0.56,0.8,-0.2,-50.8,0.8,0.02,-0.03,0.6
1697353576.02,-0.04,-0.86,0.73,1.5,0,-49.4,0.8,0.02,-0.03,0.6
1697353576.03,-0.16,-0.9,0.92,3.2,0.5,-47.8,0.8,0.02,-0.03,0.59
1697353576.04,0.04,-0.94,0.72,4.7,1.6,-46.3,0.81,0.02,-0.03,0.59
1697353576.05,-0.04,-1.01,0.93,4.7,2.4,-45.2,0.81,0.02,-0.03,0.59
1697353576.06,0.02,-0.73,0.58,2.8,3,-43.8,0.81,0.02,-0.03,0.58
1697353576.07,-0.01,-0.52,0.74,3.5,3.7,-41.5,0.81,0.02,-0.03,0.58
1697353576.08,-0.14,-0.73,1.11,8.3,3.8,-36.9,0.82,0.02,-0.03,0.58
1697353576.09,-0.09,-0.63,0.98,7.6,3.2,-34.2,0.82,0.02,-0.03,0.57
1697353576.1,-0.07,-0.54,1.27,7,2.9,-33.5,0.82,0.02,-0.03,0.57
1697353576.11,0.06,-0.58,1.09,1.9,0.9,-29.1,0.82,0.02,-0.03,0.57
1697353576.12,-0.06,-0.11,1.42,0.9,-0.6,-26.2,0.82,0.02,-0.03,0.57
1697353576.13,-0.17,-0.02,1.17,3.8,-1.9,-22.5,0.82,0.02,-0.03,0.57
1697353576.14,-0.02,0.11,0.69,8.8,-2.1,-18.9,0.82,0.02,-0.03,0.56
1697353576.15,-0.11,-0.1,0.81,11.2,-1.5,-15.8,0.82,0.02,-0.03,0.56
1697353576.16,-0.17,-0.07,1.41,11.4,-0.6,-13,0.83,0.03,-0.03,0.56
1697353576.17,-0.13,0.07,0.87,8.7,0,-9.9,0.83,0.03,-0.03,0.56
1697353576.18,-0.17,0.19,1.28,6.7,0,-8,0.83,0.03,-0.03,0.56
1697353576.19,0.06,0.38,0.77,4.8,0,-4.2,0.83,0.03,-0.03,0.56
1697353576.2,-0.39,0.43,1.48,6,-0.1,-0.5,0.83,0.03,-0.03,0.56
1697353576.21,-0.38,0.48,1,7.6,-0.5,2.9,0.83,0.03,-0.03,0.56
1697353576.22,-0.32,0.38,0.62,8.9,0,6.2,0.83,0.03,-0.02,0.56
1697353576.23,-0.32,0.38,0.62,8.9,0,6.2,0.83,0.03,-0.02,0.56
1697353576.24,-0.32,0.38,0.62,8.9,0,6.2,0.83,0.03,-0.02,0.56
1697353576.25,-0.32,0.38,0.62,8.9,0,6.2,0.83,0.03,-0.02,0.56
1697353576.26,-0.32,0.38,0.62,8.9,0,6.2,0.83,0.03,-0.02,0.56
1697353576.27,-0.32,0.38,0.62,8.9,0,6.2,0.83,0.03,-0.02,0.56
1697353576.28,-0.32,0.38,0.62,8.9,0,6.2,0.83,0.03,-0.02,0.56
1697353576.29,-0.32,0.38,0.62,8.9,0,6.2,0.83,0.03,-0.02,0.56
1697353576.3,-0.32,0.38,0.62,8.9,0,6.2,0.83,0.03,-0.02,0.56
1697353576.31,-0.32,0.38,0.62,8.9,0,6.2,0.83,0.03,-0.02,0.56
1697353576.32,-0.32,0.38,0.62,8.9,0,6.2,0.83,0.03,-0.02,0.56
1697353576.33,-0.32,0.38,0.62,8.9,0,6.2,0.83,0.03,-0.02,0.56
1697353576.34,-0.32,0.38,0.62,8.9,0,6.2,0.83,0.03,-0.02,0.56
1697353576.35,-0.1,0.63,1.1,3,-1.7,28.7,0.81,0.03,-0.02,0.58
1697353576.36,-0.2,0.77,1.32,-0.3,-2.2,30,0.81,0.03,-0.02,0.58
1697353576.37,-0.01,0.8,0.93,-3.2,-2.1,30.9,0.81,0.03,-0.02,0.58
1697353576.38,-0.09,0.84,1.07,-3.2,-2.1,30.9,0.81,0.03,-0.02,0.59
1697353576.39,-0.09,0.84,1.07,-2.5,-1.5,31.2,0.81,0.03,-0.02,0.59
1697353576.4,-0.15,0.84,1.06,0,-1,31.5,0.81,0.03,-0.02,0.59
1697353576.41,-0.18,0.69,0.95,1.9,0.3,32,0.8,0.03,-0.02,0.59
1697353576.42,-0.18,0.71,1.05,1.6,0.9,32.1,0.8,0.03,-0.02,0.59
1697353576.43,-0.12,0.63,1.03,1,1.2,31.8,0.8,0.03,-0.02,0.6
1697353576.44,-0.18,0.71,0.85,0.6,1.2,32.1,0.8,0.03,-0.02,0.6
1697353576.45,-0.19,0.79,0.76,0.6,1.5,32.8,0.8,0.03,-0.02,0.6
1697353576.46,-0.31,0.85,1.31,2.2,2.3,33.2,0.8,0.03,-0.02,0.6
1697353576.47,-0.34,0.92,0.78,4.7,3.3,33.7,0.79,0.03,-0.02,0.61
1697353576.48,-0.38,0.68,1.03,5.1,3.7,33.8,0.79,0.03,-0.02,0.61
1697353576.49,-0.36,0.59,1.06,3.8,4.5,33.7,0.79,0.03,-0.02,0.61
1697353576.5,-0.23,0.86,0.7,-0.2,4.7,33.9,0.79,0.03,-0.02,0.61
1697353576.51,-0.15,1.1,0.9,-3.2,4.3,35.7,0.79,0.03,-0.02,0.62
1697353576.52,-0.05,1.15,1.29,-2,2.5,37.9,0.78,0.03,-0.02,0.62
1697353576.53,0.04,1.02,1.16,1.5,0.9,40.1,0.78,0.03,-0.02,0.62
1697353576.54,-0.02,0.94,1.04,3.7,-0.4,42.2,0.78,0.03,-0.02,0.62
1697353576.55,-0.08,0.84,1.05,1.3,-1.9,44.3,0.78,0.03,-0.02,0.62
1697353576.56,-0.12,0.84,0.93,0.5,-3,44.6,0.77,0.03,-0.02,0.63
1697353576.57,-0.2,0.66,1.01,-0.2,-2.2,43.8,0.77,0.03,-0.02,0.63
1697353576.58,-0.06,0.88,0.38,0,-0.8,43.5,0.77,0.03,-0.02,0.64
1697353576.59,-0.24,0.91,1.18,1.1,0.5,43.5,0.77,0.03,-0.02,0.64
1697353576.6,-0.06,1.19,0.57,1.1,0.5,43.5,0.77,0.03,-0.02,0.64
1697353576.61,-0.13,0.93,0.96,5,1.7,43.5,0.76,0.03,-0.02,0.64
1697353576.62,-0.17,0.9,1.15,3.9,1.7,43.8,0.76,0.03,-0.02,0.65
1697353576.63,-0.27,1.01,1.29,-0.1,1,44.7,0.76,0.03,-0.02,0.65
1697353576.64,-0.07,1.18,0.76,-2.8,0.5,46.1,0.76,0.03,-0.02,0.65
1697353576.65,-0.07,1.18,0.76,-2.8,0.5,46.1,0.76,0.03,-0.02,0.65
1697353576.66,-0.03,1.31,0.9,1.8,0,49.9,0.75,0.03,-0.02,0.66
1697353576.67,-0.03,1.31,0.9,1.8,0,49.9,0.75,0.03,-0.02,0.66
1697353576.68,-0.2,1.1,1.11,3.5,1.1,50.7,0.75,0.03,-0.02,0.67
1697353576.69,-0.2,1.1,1.11,3.5,1.1,50.7,0.74,0.03,-0.02,0.67
1697353576.7,-0.31,0.82,0.83,4.9,1.1,50.3,0.74,0.03,-0.02,0.67
1697353576.71,-0.31,0.82,0.83,3.4,1.8,49.6,0.74,0.03,-0.02,0.68
1697353576.72,-0.31,0.85,0.94,0.1,2.5,48.8,0.73,0.03,-0.02,0.68
1697353576.73,-0.29,0.98,0.76,-2.3,3.4,48.2,0.73,0.03,-0.02,0.68
1697353576.74,-0.32,1.06,0.99,-2.5,3.1,47.9,0.73,0.03,-0.02,0.68
1697353576.75,-0.32,1.06,0.99,-2.5,3.1,47.9,0.73,0.03,-0.02,0.68
1697353576.76,-0.32,1.06,0.99,-2.5,3.1,47.9,0.73,0.03,-0.02,0.68
1697353576.77,-0.32,1.06,0.99,-2.5,3.1,47.9,0.73,0.03,-0.02,0.68
1697353576.78,-0.32,1.06,0.99,-2.5,3.1,47.9,0.73,0.03,-0.02,0.68
1697353576.79,-0.32,1.06,0.99,-2.5,3.1,47.9,0.73,0.03,-0.02,0.68
1697353576.8,-0.32,1.06,0.99,-2.5,3.1,47.9,0.73,0.03,-0.02,0.68
1697353576.81,-0.32,1.06,0.99,-2.5,3.1,47.9,0.73,0.03,-0.02,0.68
1697353576.82,-0.32,1.06,0.99,-2.5,3.1,47.9,0.73,0.03,-0.02,0.68
1697353576.83,-0.32,1.06,0.99,-2.5,3.1,47.9,0.73,0.03,-0.02,0.68
1697353576.84,-0.32,1.06,0.99,-2.5,3.1,47.9,0.73,0.03,-0.02,0.68
1697353576.85,-0.32,1.06,0.99,-2.5,3.1,47.9,0.73,0.03,-0.02,0.68
1697353576.86,-0.32,1.06,0.99,-2.5,3.1,47.9,0.73,0.03,-0.02,0.68
1697353576.87,-0.2,0.79,0.93,-1,1.1,48.2,0.69,0.03,-0.03,0.73
1697353576.88,-0.26,0.8,1.21,-4.3,1.8,47.1,0.68,0.03,-0.03,0.73
1697353576.89,-0.05,0.86,0.8,-5.8,2.1,46.2,0.68,0.03,-0.03,0.73
1697353576.9,-0.2,0.9,1.01,-4.5,2.2,44.9,0.68,0.03,-0.03,0.74
1697353576.91,-0.18,0.84,0.77,-2.9,2.7,43.8,0.68,0.03,-0.03,0.74
1697353576.92,-0.19,0.68,0.9,-0.8,1.8,40.7,0.67,0.03,-0.03,0.74
1697353576.93,-0.18,0.56,1,-2.3,1.5,39.1,0.67,0.03,-0.03,0.74
1697353576.94,-0.21,0.75,1.1,-2.8,1.4,37.8,0.67,0.03,-0.03,0.74
1697353576.95,-0.2,0.77,0.91,-1.1,1.4,37.3,0.66,0.03,-0.03,0.75
1697353576.96,-0.17,0.9,1.13,1.8,1.8,36.8,0.66,0.03,-0.03,0.75
1697353576.97,-0.13,0.7,1.08,2.7,1.8,37,0.66,0.03,-0.03,0.75
1697353576.98,-0.22,0.61,1.35,1.8,2.2,37.2,0.66,0.03,-0.03,0.75
1697353576.99,0.02,0.69,0.69,0.6,2.7,37.5,0.65,0.03,-0.03,0.76
1697353577,0.02,0.69,0.69,0.6,2.7,37.5,0.65,0.03,-0.03,0.76
1697353577.01,-0.19,0.77,1.02,-2.1,2,38.5,0.65,0.03,-0.03,0.76
1697353577.02,-0.4,0.79,1.73,-2.1,2,38.5,0.65,0.02,-0.03,0.76
1697353577.03,-0.4,0.79,1.73,-2.8,1.9,39.3,0.65,0.02,-0.03,0.76
1697353577.04,-0.11,0.78,0.75,-1.5,1.5,39.6,0.64,0.02,-0.03,0.77
1697353577.05,-0.06,0.75,0.89,0,0.2,39.8,0.64,0.02,-0.03,0.77
1697353577.06,-0.21,0.68,1.19,0.5,-0.6,39.5,0.64,0.02,-0.03,0.77
1697353577.07,0.03,0.56,0.8,-0.1,-1.1,38.4,0.63,0.02,-0.03,0.77
1697353577.08,-0.06,0.45,1.01,-2,-1.9,36.5,0.63,0.02,-0.03,0.77
1697353577.09,-0.13,0.42,0.89,-3,-2.1,34,0.63,0.02,-0.03,0.78
1697353577.1,-0.15,0.4,0.72,-1.8,-2.1,30.7,0.63,0.02,-0.03,0.78
1697353577.11,-0.26,0.28,1.15,-1.1,-1.7,27.3,0.63,0.02,-0.03,0.78
1697353577.12,-0.18,0.16,0.94,-1,-0.5,22.5,0.62,0.02,-0.03,0.78
1697353577.13,-0.2,0.04,1.04,-2.8,0.7,18.5,0.62,0.02,-0.03,0.78
1697353577.14,-0.04,-0.26,0.47,-5.4,2.2,13.7,0.62,0.02,-0.03,0.78
1697353577.15,-0.28,-0.37,1.28,-9.6,3.4,8,0.62,0.02,-0.03,0.78
1697353577.16,-0.3,-0.62,1.24,-12.2,2.7,1.7,0.62,0.02,-0.03,0.78
1697353577.17,0.23,-0.48,0.46,-14,2.6,-4.1,0.62,0.02,-0.03,0.78
1697353577.18,-0.07,-0.59,1.1,-13.6,2.2,-10,0.62,0.02,-0.03,0.78
1697353577.19,0.05,-0.77,0.71,-13.1,1.6,-16.2,0.62,0.02,-0.03,0.78
1697353577.2,-0.11,-1.04,1.28,-13.6,0.2,-21.3,0.62,0.02,-0.03,0.78
1697353577.21,-0.09,-1.16,0.92,-13.7,-1,-26.8,0.63,0.02,-0.03,0.78
1697353577.22,-0.01,-0.97,0.91,-13,-2.1,-30.8,0.63,0.02,-0.04,0.78
1697353577.23,-0.31,-0.96,1.34,-10.8,-2.5,-33.5,0.63,0.02,-0.04,0.78
1697353577.24,-0.09,-0.9,0.9,-7.8,-3.1,-35.4,0.63,0.02,-0.04,0.77
1697353577.25,-0.06,-0.97,0.78,-5.8,-3.7,-37.2,0.63,0.02,-0.04,0.77
1697353577.26,-0.18,-0.98,1.19,-4.6,-3.6,-37.9,0.64,0.02,-0.04,0.77
1697353577.27,-0.18,-0.98,1.19,-4.6,-3.6,-37.9,0.64,0.02,-0.04,0.77
1697353577.28,-0.18,-0.98,1.19,-4.6,-3.6,-37.9,0.64,0.02,-0.04,0.77
1697353577.29,-0.18,-0.98,1.19,-4.6,-3.6,-37.9,0.64,0.02,-0.04,0.77
1697353577.3,-0.18,-0.98,1.19,-4.6,-3.6,-37.9,0.64,0.02,-0.04,0.77
1697353577.31,-0.18,-0.98,1.19,-4.6,-3.6,-37.9,0.64,0.02,-0.04,0.77
1697353577.32,-0.18,-0.98,1.19,-4.6,-3.6,-37.9,0.64,0.02,-0.04,0.77
1697353577.33,-0.18,-0.98,1.19,-4.6,-3.6,-37.9,0.64,0.02,-0.04,0.77
1697353577.34,-0.18,-0.98,1.19,-4.6,-3.6,-37.9,0.64,0.02,-0.04,0.77
1697353577.35,-0.18,-0.98,1.19,-4.6,-3.6,-37.9,0.64,0.02,-0.04,0.77
1697353577.36,-0.18,-0.98,1.19,-4.6,-3.6,-37.9,0.64,0.02,-0.04,0.77
1697353577.37,-0.18,-0.98,1.19,-4.6,-3.6,-37.9,0.64,0.02,-0.04,0.77
1697353577.38,-0.18,-0.98,1.19,-4.6,-3.6,-37.9,0.64,0.02,-0.04,0.77
1697353577.39,-0.18,-0.98,1.19,-4.6,-3.6,-37.9,0.64,0.02,-0.04,0.77
1697353577.4,-0.24,-0.93,1.26,2.6,-1.5,-51.7,0.68,0.02,-0.04,0.73
1697353577.41,-0.13,-0.93,0.92,2.8,-1.6,-51.9,0.68,0.02,-0.04,0.73
1697353577.42,-0.21,-1.08,0.83,1.6,-1.3,-51.7,0.68,0.02,-0.04,0.73
1697353577.43,-0.3,-1.03,1.16,-0.9,-0.4,-51.2,0.69,0.02,-0.04,0.73
1697353577.44,-0.38,-1.08,0.95,-4.1,1.1,-50.8,0.69,0.02,-0.04,0.72
1697353577.45,-0.26,-0.98,0.89,-5.7,3.1,-50.2,0.69,0.02,-0.04,0.72
1697353577.46,-0.19,-0.94,0.69,-4.3,4.5,-50.3,0.7,0.02,-0.04,0.72
1697353577.47,-0.26,-0.78,1.08,-1.6,5.5,-49.6,0.7,0.02,-0.04,0.71
1697353577.48,-0.25,-1.06,1.27,1.3,5.2,-50.4,0.7,0.02,-0.04,0.71
1697353577.49,-0.14,-1.1,0.8,0.8,4.4,-51.7,0.71,0.02,-0.04,0.71
1697353577.5,-0.19,-1.22,1.36,-0.2,3.2,-53,0.71,0.02,-0.04,0.7
1697353577.51,-0.1,-1.16,0.81,-1.7,1.9,-54.2,0.71,0.02,-0.04,0.7
1697353577.52,-0.19,-1.07,1.31,-1.6,0.4,-55.1,0.72,0.02,-0.04,0.7
1697353577.53,-0.15,-0.96,0.79,-0.9,0,-55.2,0.72,0.02,-0.04,0.69
1697353577.54,0.05,-1.01,0.86,1.1,-0.1,-55.8,0.72,0.02,-0.04,0.69
1697353577.55,-0.25,-0.92,1.09,2.3,-0.5,-55.4,0.73,0.02,-0.04,0.69
1697353577.56,-0.24,-1.06,0.99,2.6,0,-55,0.73,0.02,-0.04,0.68
1697353577.57,-0.46,-1.12,1.29,0.2,0.7,-54.4,0.73,0.02,-0.04,0.68
1697353577.58,-0.14,-1.07,0.73,-1.5,1.7,-53.8,0.74,0.02,-0.04,0.67
1697353577.59,-0.22,-1.04,1.07,-1.5,1.7,-53.8,0.74,0.02,-0.04,0.67
1697353577.6,-0.33,-0.94,1.21,-2.3,1.8,-53.3,0.74,0.02,-0.04,0.67
1697353577.61,-0.33,-0.96,1.12,-2.2,1.9,-52.6,0.75,0.02,-0.04,0.66
1697353577.62,-0.03,-0.87,0.83,-0.9,2,-52.4,0.75,0.02,-0.04,0.66
1697353577.63,-0.35,-0.93,1.19,0.8,1.3,-52.5,0.75,0.02,-0.04,0.66
1697353577.64,-0.1,-1.08,0.84,2.9,0,-52.3,0.76,0.02,-0.04,0.65
1697353577.65,-0.1,-1.08,0.84,2.9,0,-52.3,0.76,0.02,-0.04,0.65
1697353577.66,-0.17,-1.21,1.06,2.8,-0.6,-53.2,0.76,0.02,-0.04,0.65
1697353577.67,-0.04,-0.94,0.8,-0.7,-1.5,-54.5,0.77,0.02,-0.04,0.64
1697353577.68,-0.39,-0.9,1.4,-0.7,-1.5,-54.5,0.77,0.02,-0.04,0.64
1697353577.69,-0.14,-0.88,0.8,2,-1.2,-54.3,0.77,0.02,-0.04,0.64
1697353577.7,-0.14,-0.88,0.8,2,-1.2,-54.3,0.77,0.02,-0.04,0.63
1697353577.71,-0.31,-1.06,1.12,3.3,0.1,-53.8,0.78,0.02,-0.03,0.63
1697353577.72,-0.31,-1.06,1.12,3.3,0.1,-53.8,0.78,0.02,-0.03,0.63
1697353577.73,-0.14,-1.05,1.09,1.9,1.1,-54,0.78,0.02,-0.03,0.62
1697353577.74,-0.14,-1.05,1.09,-0.4,2,-53.9,0.78,0.02,-0.03,0.62
1697353577.75,-0.05,-1.02,0.97,-1.8,2.5,-54.1,0.79,0.02,-0.03,0.62
1697353577.76,0.04,-0.83,0.59,-1.4,2.8,-54.2,0.79,0.02,-0.03,0.61
1697353577.77,-0.07,-0.97,1.04,-0.3,2.6,-53.9,0.79,0.02,-0.03,0.61
1697353577.78,-0.16,-0.93,0.93,1.1,1.8,-54.1,0.8,0.02,-0.03,0.6
1697353577.79,-0.16,-0.93,0.93,1.1,1.8,-54.1,0.8,0.02,-0.03,0.6
1697353577.8,-0.16,-0.93,0.93,1.1,1.8,-54.1,0.8,0.02,-0.03,0.6
1697353577.81,-0.16,-0.93,0.93,1.1,1.8,-54.1,0.8,0.02,-0.03,0.6
1697353577.82,-0.16,-0.93,0.93,1.1,1.8,-54.1,0.8,0.02,-0.03,0.6
1697353577.83,-0.16,-0.93,0.93,1.1,1.8,-54.1,0.8,0.02,-0.03,0.6
1697353577.84,-0.16,-0.93,0.93,1.1,1.8,-54.1,0.8,0.02,-0.03,0.6
1697353577.85,-0.16,-0.93,0.93,1.1,1.8,-54.1,0.8,0.02,-0.03,0.6
1697353577.86,-0.16,-0.93,0.93,1.1,1.8,-54.1,0.8,0.02,-0.03,0.6
1697353577.87,-0.16,-0.93,0.93,1.1,1.8,-54.1,0.8,0.02,-0.03,0.6
1697353577.88,-0.16,-0.93,0.93,1.1,1.8,-54.1,0.8,0.02,-0.03,0.6
1697353577.89,-0.16,-0.93,0.93,1.1,1.8,-54.1,0.8,0.02,-0.03,0.6
1697353577.9,-0.16,-0.93,0.93,1.1,1.8,-54.1,0.8,0.02,-0.03,0.6
1697353577.91,-0.16,-0.93,0.93,1.1,1.8,-54.1,0.8,0.02,-0.03,0.6
1697353577.92,-0.16,-0.93,0.93,1.1,1.8,-54.1,0.83,0.02,-0.03,0.56
1697353577.93,-0.06,0.12,0.84,7.3,0,-23.4,0.83,0.02,-0.03,0.56
1697353577.94,-0.17,0.54,1.41,9.9,-1,-12.3,0.83,0.03,-0.03,0.55
1697353577.95,-0.17,0.54,1.41,9.9,-1,-12.3,0.83,0.03,-0.03,0.55
1697353577.96,-0.19,0.64,1.44,11.5,-0.9,-5.6,0.83,0.03,-0.03,0.55
1697353577.97,-0.19,0.64,1.44,11.8,-1.2,-3.8,0.83,0.03,-0.03,0.55
1697353577.98,-0.37,0.74,1.7,12.3,-1.1,3,0.83,0.03,-0.03,0.55
1697353577.99,-0.28,0.88,1.45,12.1,-1,9.4,0.83,0.03,-0.03,0.55
1697353578,-0.31,0.94,1.02,11.6,-0.3,15.8,0.83,0.03,-0.03,0.56
1697353578.01,-0.42,0.82,0.92,10.6,-0.9,25.3,0.83,0.03,-0.03,0.56
1697353578.02,-0.44,1,1.06,10.6,-0.9,25.3,0.83,0.03,-0.03,0.56
1697353578.03,-0.4,1.06,0.97,7.7,0.4,30.2,0.82,0.03,-0.03,0.57
1697353578.04,-0.2,1.01,1.01,7.5,0.8,32.7,0.82,0.03,-0.03,0.57
1697353578.05,-0.2,1.01,1.01,7.5,0.8,32.7,0.82,0.03,-0.03,0.57
1697353578.06,-0.1,0.76,1.06,6.9,0.1,34.4,0.82,0.03,-0.03,0.57
1697353578.07,-0.1,0.76,1.06,4.9,-0.4,35.8,0.82,0.03,-0.03,0.57
1697353578.08,-0.1,0.79,1.14,1.7,-1.1,36.9,0.82,0.03,-0.03,0.58
1697353578.09,-0.23,0.83,1.15,-1.5,-2.3,37.6,0.81,0.03,-0.03,0.58
1697353578.1,-0.01,0.96,0.93,-2.9,-2.2,37.9,0.81,0.03,-0.03,0.58
1697353578.11,-0.01,0.84,0.79,-1.1,-1.7,37.8,0.81,0.03,-0.03,0.58
1697353578.12,-0.13,0.82,0.91,0.9,-1.6,37.5,0.81,0.03,-0.03,0.59
1697353578.13,-0.21,0.61,1.21,1.7,-1.3,37.6,0.81,0.03,-0.03,0.59
1697353578.14,-0.08,0.77,0.78,0,-1,37.8,0.8,0.03,-0.03,0.59
1697353578.15,-0.16,0.76,1.19,-1.9,-0.4,37.9,0.8,0.03,-0.03,0.6
1697353578.16,-0.16,0.8,1.18,-2.4,-0.1,38.2,0.8,0.03,-0.03,0.6
1697353578.17,-0.08,0.81,0.57,-2.7,0.2,38.9,0.8,0.03,-0.03,0.6
1697353578.18,-0.01,0.76,0.25,-1.3,0.9,39.7,0.8,0.03,-0.03,0.6
1697353578.19,-0.18,0.66,1.33,-0.5,1.7,40,0.79,0.03,-0.03,0.61
1697353578.2,0.02,0.72,0.34,0.4,2.2,40.1,0.79,0.03,-0.03,0.61
1697353578.21,-0.18,0.67,1.53,1,2.9,40.3,0.79,0.03,-0.03,0.61
1697353578.22,0.07,0.59,0.26,1.3,2.2,40.3,0.79,0.03,-0.03,0.62
1697353578.23,-0.22,0.48,1.32,-0.1,1.9,40.4,0.79,0.03,-0.03,0.62
1697353578.24,-0.23,0.61,0.88,-2.1,1.3,40,0.78,0.03,-0.03,0.62
1697353578.25,-0.25,0.67,1.06,-2.6,1.3,39.3,0.78,0.03,-0.03,0.62
1697353578.26,-0.33,0.63,0.99,-1.7,1.3,38.4,0.78,0.03,-0.03,0.63
1697353578.27,-0.3,0.5,1.12,-0.5,1.3,37.4,0.78,0.03,-0.03,0.63
1697353578.28,-0.14,0.52,1.29,-0.9,1.2,36.3,0.77,0.03,-0.03,0.63
1697353578.29,-0.04,0.54,1.31,-2.1,0.9,35.4,0.77,0.03,-0.03,0.63
1697353578.3,-0.21,0.55,1.27,-2.9,-0.3,34.3,0.77,0.03,-0.03,0.64
1697353578.31,-0.17,0.58,1.52,-1.1,-0.5,33.7,0.77,0.03,-0.03,0.64
1697353578.32,-0.17,0.58,1.52,-1.1,-0.5,33.7,0.77,0.03,-0.03,0.64
1697353578.33,-0.17,0.58,1.52,-1.1,-0.5,33.7,0.77,0.03,-0.03,0.64
1697353578.34,-0.17,0.58,1.52,-1.1,-0.5,33.7,0.77,0.03,-0.03,0.64
1697353578.35,-0.17,0.58,1.52,-1.1,-0.5,33.7,0.77,0.03,-0.03,0.64
1697353578.36,-0.17,0.58,1.52,-1.1,-0.5,33.7,0.77,0.03,-0.03,0.64
1697353578.37,-0.17,0.58,1.52,-1.1,-0.5,33.7,0.77,0.03,-0.03,0.64
1697353578.38,-0.17,0.58,1.52,-1.1,-0.5,33.7,0.77,0.03,-0.03,0.64
1697353578.39,-0.17,0.58,1.52,-1.1,-0.5,33.7,0.77,0.03,-0.03,0.64
1697353578.4,-0.17,0.58,1.52,-1.1,-0.5,33.7,0.77,0.03,-0.03,0.64
1697353578.41,-0.17,0.58,1.52,-1.1,-0.5,33.7,0.77,0.03,-0.03,0.64
1697353578.42,-0.17,0.58,1.52,-1.1,-0.5,33.7,0.77,0.03,-0.03,0.64
1697353578.43,-0.17,0.58,1.52,-1.1,-0.5,33.7,0.77,0.03,-0.03,0.64
1697353578.44,-0.17,0.58,1.52,-1.1,-0.5,33.7,0.77,0.03,-0.03,0.64
1697353578.45,-0.17,0.58,1.52,-1.1,-0.5,33.7,0.77,0.03,-0.03,0.64
1697353578.46,-0.17,0.58,1.52,-1.1,-0.5,33.7,0.77,0.03,-0.03,0.64
1697353578.47,-0.17,0.58,1.52,-1.1,-0.5,33.7,0.77,0.03,-0.03,0.64
1697353578.48,-0.17,0.58,1.52,-1.1,-0.5,33.7,0.77,0.03,-0.03,0.64
1697353578.49,-0.17,0.58,1.52,-1.1,-0.5,33.7,0.77,0.03,-0.03,0.64
1697353578.5,-0.17,0.58,1.52,-1.1,-0.5,33.7,0.77,0.03,-0.03,0.64
1697353578.51,-0.17,0.58,1.52,-1.1,-0.5,33.7,0.77,0.03,-0.03,0.64
1697353578.52,0.04,0.21,0.95,-3,1.5,12.4,0.74,0.03,-0.03,0.67
1697353578.53,-0.09,0.21,0.98,-0.7,2.6,12.4,0.74,0.03,-0.03,0.67
1697353578.54,-0.04,0.28,1.08,1.1,3.4,13.4,0.74,0.03,-0.03,0.68
1697353578.55,-0.07,-0.01,1.04,1,3.6,13,0.74,0.03,-0.03,0.68
1697353578.56,0.37,0,0.63,-1,3.2,12.5,0.73,0.03,-0.03,0.68
1697353578.57,0.39,0.02,1.15,-3.5,2,12.2,0.73,0.03,-0.03,0.68
1697353578.58,0.44,0.18,1.34,-3.9,0.3,11.6,0.73,0.03,-0.03,0.68
1697353578.59,0.64,0.39,0.85,-1.6,-1.8,11.3,0.73,0.03,-0.03,0.68
1697353578.6,0.35,0.29,1.3,1.1,-3.1,10.8,0.73,0.03,-0.03,0.68
1697353578.61,0.25,0.18,0.9,2.5,-3,10.1,0.73,0.03,-0.03,0.68
1697353578.62,0.09,0.08,0.79,0.8,-1.7,9.9,0.73,0.03,-0.03,0.68
1697353578.63,-0.03,0.14,0.75,0,-0.4,9.9,0.73,0.03,-0.03,0.68
1697353578.64,-0.01,0.14,0.97,0,1.2,9.9,0.73,0.03,-0.03,0.68
1697353578.65,-0,0.1,1.09,0,2.6,9.8,0.73,0.03,-0.03,0.68
1697353578.66,0.23,0.14,0.8,-0.4,3.2,10.1,0.73,0.03,-0.03,0.68
1697353578.67,0.16,0.2,1.12,-0.4,3.3,10.3,0.73,0.03,-0.03,0.68
1697353578.68,0.31,0.26,0.93,0.4,2.9,10.5,0.73,0.03,-0.03,0.69
1697353578.69,0.43,0.1,0.86,2.6,2.4,10.4,0.73,0.03,-0.03,0.69
1697353578.7,0.43,0.1,0.86,2.6,2.4,10.4,0.73,0.03,-0.03,0.69
1697353578.71,0.28,0.12,0.99,2.3,1.2,9.1,0.73,0.03,-0.03,0.69
1697353578.72,0.27,0.16,0.79,-0.7,0.5,8.7,0.72,0.03,-0.03,0.69
1697353578.73,0.07,0.43,1.11,-3.1,-0.5,8.7,0.72,0.03,-0.03,0.69
1697353578.74,0.07,0.44,0.94,-3.1,-0.5,8.7,0.72,0.03,-0.03,0.69
1697353578.75,0.07,0.44,0.94,-2.6,-0.6,9.7,0.72,0.03,-0.03,0.69
1697353578.76,0.05,0.34,1.09,1.7,0.3,10.8,0.72,0.03,-0.03,0.69
1697353578.77,0.09,0.09,0.99,3,0.5,12.2,0.72,0.03,-0.03,0.69
1697353578.78,0.15,0.27,1.01,1.6,0.5,12.6,0.72,0.03,-0.03,0.69
1697353578.79,0.35,0.22,0.83,0.6,0.3,13.2,0.72,0.03,-0.03,0.69
1697353578.8,0.18,0.2,1.54,2.3,-0.2,13.2,0.72,0.03,-0.03,0.69
1697353578.81,0.3,0.18,1.14,2.2,-0.8,12.9,0.72,0.03,-0.03,0.69
1697353578.82,0.24,0.12,0.97,1.2,-1.1,12.3,0.72,0.03,-0.03,0.69
1697353578.83,0.17,0.26,1.03,1,-0.9,12.1,0.72,0.03,-0.03,0.7
1697353578.84,0.09,0.16,0.94,0.7,-0.9,12.3,0.72,0.03,-0.03,0.7
1697353578.85,0.07,0.32,0.96,0.7,-0.2,12.5,0.72,0.03,-0.03,0.7
1697353578.86,-0.14,0.2,1.24,-0.1,0.3,12.7,0.71,0.03,-0.03,0.7
1697353578.87,-0.06,0.25,1.09,-1.5,1.1,12.9,0.71,0.03,-0.03,0.7
1697353578.88,0.21,0.37,0.83,-2.3,2,12.8,0.71,0.03,-0.03,0.7
1697353578.89,0.28,0.36,0.91,-2.2,1.8,13.2,0.71,0.03,-0.03,0.7
1697353578.9,0.2,0.36,1.4,-0.7,0.6,13.2,0.71,0.03,-0.03,0.7
1697353578.91,0.26,0.32,0.86,1.1,-0.4,13.2,0.71,0.03,-0.03,0.7
1697353578.92,0.26,0.32,0.86,1.1,-0.4,13.2,0.71,0.03,-0.03,0.7
1697353578.93,0.26,0.32,0.86,1.1,-0.4,13.2,0.71,0.03,-0.03,0.7
1697353578.94,0.26,0.32,0.86,1.1,-0.4,13.2,0.71,0.03,-0.03,0.7
1697353578.95,0.26,0.32,0.86,1.1,-0.4,13.2,0.71,0.03,-0.03,0.7
1697353578.96,0.26,0.32,0.86,1.1,-0.4,13.2,0.71,0.03,-0.03,0.7
1697353578.97,0.26,0.32,0.86,1.1,-0.4,13.2,0.71,0.03,-0.03,0.7
1697353578.98,0.26,0.32,0.86,1.1,-0.4,13.2,0.71,0.03,-0.03,0.7
1697353578.99,0.26,0.32,0.86,1.1,-0.4,13.2,0.71,0.03,-0.03,0.7
1697353579,0.26,0.32,0.86,1.1,-0.4,13.2,0.71,0.03,-0.03,0.7
1697353579.01,0.26,0.32,0.86,1.1,-0.4,13.2,0.71,0.03,-0.03,0.7
1697353579.02,0.26,0.32,0.86,1.1,-0.4,13.2,0.71,0.03,-0.03,0.7
1697353579.03,0.26,0.32,0.86,1.1,-0.4,13.2,0.71,0.03,-0.03,0.7
1697353579.04,0.2,0.36,0.97,-1.1,-1.4,13.3,0.7,0.02,-0.03,0.71
1697353579.05,0.02,0.43,1.01,-0.7,-2.9,13.3,0.7,0.02,-0.03,0.71
1697353579.06,-0.04,0.3,0.87,-0.2,-3.6,13.3,0.7,0.02,-0.03,0.71
1697353579.07,-0.12,0.29,1.08,-1.4,-2.9,14.4,0.7,0.03,-0.03,0.72
1697353579.08,-0.14,0.31,1.05,-0.9,-1.8,14.8,0.7,0.03,-0.03,0.72
1697353579.09,-0.12,0.24,0.99,0.3,-1.1,14.9,0.7,0.03,-0.03,0.72
1697353579.1,-0.12,0.24,0.99,0.3,-1.1,14.9,0.69,0.03,-0.03,0.72
1697353579.11,-0.11,0.18,1.11,0.8,-0.3,15.3,0.69,0.03,-0.03,0.72
1697353579.12,-0.07,0.3,1.08,0.5,0.9,15.6,0.69,0.03,-0.03,0.72
1697353579.13,-0.01,0.31,0.97,1.5,1.4,15.9,0.69,0.03,-0.03,0.72
1697353579.14,0.08,0.33,1.23,2.6,1.7,16.3,0.69,0.03,-0.03,0.72
1697353579.15,0.18,0.38,0.73,1.8,1.3,16.8,0.69,0.03,-0.03,0.72
1697353579.16,0.02,0.39,1.33,-0.2,0.6,17.6,0.69,0.03,-0.03,0.72
1697353579.17,0.09,0.52,0.81,-0.5,0.2,19.1,0.69,0.02,-0.03,0.73
1697353579.18,0.09,0.71,0.84,-0.2,0,19.6,0.69,0.02,-0.03,0.73
1697353579.19,-0.21,0.66,1.26,1,-0.8,21.5,0.69,0.02,-0.03,0.73
1697353579.2,-0.09,0.58,0.96,2.9,-1.3,23.2,0.68,0.03,-0.03,0.73
1697353579.21,0.07,0.66,0.74,2.6,-1.8,25.5,0.68,0.03,-0.03,0.73
1697353579.22,-0.12,0.82,1.42,1.5,-2,27.4,0.68,0.03,-0.03,0.73
1697353579.23,0,0.76,0.86,2.3,-2.2,29,0.68,0.03,-0.03,0.73
1697353579.24,-0.25,0.68,1.29,2,-1.7,30.9,0.67,0.03,-0.03,0.74
1697353579.25,-0.01,0.88,1.01,2.5,-1.3,32.1,0.67,0.03,-0.03,0.74
1697353579.26,-0.06,0.61,1.07,3.4,-1.1,33.8,0.67,0.03,-0.03,0.74
1697353579.27,0.15,0.68,0.82,2.7,-1.6,34.3,0.67,0.03,-0.03,0.74
1697353579.28,0.09,0.66,1.01,1,-1.8,34.1,0.67,0.03,-0.03,0.75
1697353579.29,0.1,0.59,1.15,-0.3,-1.1,33.7,0.66,0.03,-0.03,0.75
1697353579.3,0,0.76,0.94,-0.4,-0.6,33.3,0.66,0.03,-0.03,0.75
1697353579.31,-0.11,0.72,1.1,-0.5,-0.2,33.3,0.66,0.03,-0.03,0.75
1697353579.32,-0.11,0.72,1.1,-0.5,-0.2,33.3,0.66,0.03,-0.03,0.75
1697353579.33,-0.04,0.71,1,-0.1,0.4,33.3,0.66,0.03,-0.03,0.75
1697353579.34,-0.03,0.72,1.02,0.5,1.1,33.5,0.65,0.03,-0.03,0.76
1697353579.35,0.15,0.6,0.89,0.5,1.1,33.5,0.65,0.03,-0.03,0.76
1697353579.36,0.09,0.52,1,1.4,0.4,32.3,0.65,0.03,-0.03,0.76
1697353579.37,-0.01,0.43,0.79,0.6,0.2,31.3,0.65,0.03,-0.03,0.76
1697353579.38,0.12,0.36,0.67,-0.1,-0.1,29.9,0.65,0.03,-0.03,0.76
1697353579.39,-0.01,0.42,1.17,-1.2,-0.1,28.2,0.65,0.03,-0.03,0.76
1697353579.4,-0.01,0.42,1.17,-1.2,-0.1,28.2,0.64,0.03,-0.03,0.76
1697353579.41,0.08,0.37,0.78,-0.5,2,23.9,0.64,0.02,-0.03,0.77
1697353579.42,0.08,0.37,0.78,-0.5,2,23.9,0.64,0.02,-0.03,0.77
1697353579.43,0.07,0.33,0.84,-1.2,2.9,23.1,0.64,0.02,-0.03,0.77
1697353579.44,0.07,0.33,0.84,-1.2,2.9,23.1,0.64,0.02,-0.03,0.77
1697353579.45,0.07,0.33,0.84,-1.2,2.9,23.1,0.64,0.02,-0.03,0.77
1697353579.46,0.07,0.33,0.84,-1.2,2.9,23.1,0.64,0.02,-0.03,0.77
1697353579.47,0.07,0.33,0.84,-1.2,2.9,23.1,0.64,0.02,-0.03,0.77
