time,accel_x,accel_y,accel_z,gyro_x,gyro_y,gyro_z,quat_w,quat_x,quat_y,quat_z
1697353236.45,-0.17,0.41,0.86,-0.4,3.3,50.7,0.96,0.03,-0.04,-0.27
1697353236.46,-0.09,0.43,0.89,-0.4,3.1,51.2,0.96,0.03,-0.04,-0.26
1697353236.47,-0.15,0.41,0.94,-0.7,3.2,51.5,0.97,0.03,-0.04,-0.25
1697353236.48,-0.15,0.45,0.95,-0.7,3.1,51.9,0.97,0.03,-0.04,-0.25
1697353236.49,-0.1,0.46,0.91,-0.6,2.8,52.4,0.97,0.03,-0.04,-0.25
1697353236.5,-0.13,0.45,0.85,-0.7,2.6,52.9,0.97,0.03,-0.04,-0.24
1697353236.51,-0.19,0.45,1,-0.7,2.6,52.9,0.97,0.03,-0.04,-0.24
1697353236.52,-0.17,0.46,0.88,-2,2.5,54,0.97,0.03,-0.04,-0.23
1697353236.53,-0.18,0.58,0.88,-2,2.5,54,0.97,0.03,-0.04,-0.23
1697353236.54,-0.17,0.58,0.89,-0.5,3.1,55.4,0.97,0.03,-0.04,-0.22
1697353236.55,-0.18,0.52,0.96,1.2,3.3,56,0.97,0.03,-0.04,-0.22
1697353236.56,-0.18,0.47,0.98,2,3.5,56.2,0.98,0.03,-0.04,-0.21
1697353236.57,-0.17,0.37,1.05,2,3.5,56.2,0.98,0.03,-0.04,-0.21
1697353236.58,-0.15,0.43,0.8,-0.7,3.5,56.7,0.98,0.03,-0.04,-0.2
1697353236.59,-0.21,0.48,1,-0.7,3.5,56.7,0.98,0.03,-0.04,-0.2
1697353236.6,-0.23,0.47,1.11,-2,3.6,57.5,0.98,0.03,-0.04,-0.19
1697353236.61,-0.16,0.49,0.87,-2,3.6,57.5,0.98,0.03,-0.04,-0.19
1697353236.62,-0.19,0.42,1.02,-1,3.6,57.3,0.98,0.03,-0.04,-0.18
1697353236.63,-0.13,0.29,0.94,0.1,3.9,57.3,0.98,0.03,-0.04,-0.18
1697353236.64,-0.13,0.29,0.94,0.3,4,57,0.98,0.03,-0.04,-0.18
1697353236.65,-0.12,0.29,1,-0.8,4,56.1,0.98,0.03,-0.04,-0.17
1697353236.66,-0.14,0.33,0.95,-2.4,3.8,55.5,0.98,0.03,-0.04,-0.17
1697353236.67,-0.18,0.4,1.06,-2.8,3.7,55.1,0.99,0.03,-0.04,-0.16
1697353236.68,-0.18,0.4,1.06,-2.8,3.7,55.1,0.99,0.03,-0.04,-0.16
1697353236.69,-0.18,0.4,1.06,-2.8,3.7,55.1,0.99,0.03,-0.04,-0.16
1697353236.7,-0.18,0.4,1.06,-2.8,3.7,55.1,0.99,0.03,-0.04,-0.16
1697353236.71,-0.18,0.4,1.06,-2.8,3.7,55.1,0.99,0.03,-0.04,-0.16
1697353236.72,-0.18,0.4,1.06,-2.8,3.7,55.1,0.99,0.03,-0.04,-0.16
1697353236.73,-0.18,0.4,1.06,-2.8,3.7,55.1,0.99,0.03,-0.04,-0.16
1697353236.74,-0.18,0.4,1.06,-2.8,3.7,55.1,0.99,0.03,-0.04,-0.16
1697353236.75,-0.18,0.4,1.06,-2.8,3.7,55.1,0.99,0.03,-0.04,-0.16
1697353236.76,-0.18,0.4,1.06,-2.8,3.7,55.1,0.99,0.03,-0.04,-0.16
1697353236.77,-0.18,0.4,1.06,-2.8,3.7,55.1,0.99,0.03,-0.04,-0.16
1697353236.78,-0.18,0.4,1.06,-2.8,3.7,55.1,0.99,0.03,-0.04,-0.16
1697353236.79,-0.18,0.4,1.06,-2.8,3.7,55.1,0.99,0.03,-0.04,-0.16
1697353236.8,-0.18,0.4,1.06,-2.8,3.7,55.1,0.99,0.03,-0.04,-0.16
1697353236.81,-0.18,0.4,1.06,-2.8,3.7,55.1,0.99,0.03,-0.04,-0.16
1697353236.82,-0.15,0.3,1.02,-0.8,4.3,52.5,0.99,0.03,-0.04,-0.09
1697353236.83,-0.19,0.33,1.1,-0.8,4.3,52.3,0.99,0.03,-0.04,-0.09
1697353236.84,-0.13,0.31,0.98,-1.2,4.5,52.1,1,0.03,-0.03,-0.08
1697353236.85,-0.15,0.29,0.97,-1,4.7,51.8,1,0.03,-0.03,-0.08
1697353236.86,-0.09,0.33,0.74,-0.9,4.4,51.7,1,0.03,-0.03,-0.08
1697353236.87,-0.18,0.3,1.04,-0.9,4.1,51.6,1,0.03,-0.03,-0.07
1697353236.88,-0.16,0.32,1,-0.5,3.8,51.2,1,0.03,-0.03,-0.07
1697353236.89,-0.14,0.3,1.04,-0.5,3.6,51,1,0.03,-0.03,-0.06
1697353236.9,-0.12,0.3,0.9,-0.7,3.2,50.9,1,0.03,-0.03,-0.06
1697353236.91,-0.15,0.32,1.07,-0.6,2.8,50.9,1,0.03,-0.03,-0.05
1697353236.92,-0.15,0.29,0.93,-0.8,2.1,50.9,1,0.04,-0.03,-0.04
1697353236.93,-0.12,0.33,1.02,-0.8,2.1,50.9,1,0.04,-0.03,-0.04
1697353236.94,-0.09,0.31,0.91,-0.8,1.6,50.7,1,0.04,-0.02,-0.04
1697353236.95,-0.13,0.3,1.09,-1,1.2,50.8,1,0.04,-0.02,-0.03
1697353236.96,-0.13,0.29,1,-0.8,1.3,50.6,1,0.04,-0.02,-0.03
1697353236.97,-0.15,0.3,1.1,-0.6,1.4,50.5,1,0.04,-0.02,-0.03
1697353236.98,-0.14,0.3,0.97,-0.4,1.4,50.5,1,0.04,-0.02,-0.02
1697353236.99,-0.1,0.28,0.89,0,1.7,50.2,1,0.04,-0.02,-0.02
1697353237,-0.16,0.27,0.94,0,1.8,50.1,1,0.04,-0.02,-0.01
1697353237.01,-0.15,0.27,1.06,0,1.8,50,1,0.04,-0.02,-0.01
1697353237.02,-0.14,0.25,1.01,0,1.8,50,1,0.04,-0.02,0
1697353237.03,-0.13,0.29,0.95,-0.1,1.9,49.7,1,0.04,-0.02,0
1697353237.04,-0.16,0.26,1,-0.1,2.2,49.5,1,0.04,-0.02,0
1697353237.05,-0.16,0.25,1.04,0.3,2.4,49.3,1,0.04,-0.02,0.01
1697353237.06,-0.16,0.25,1.04,0.6,2.6,49.2,1,0.04,-0.02,0.01
1697353237.07,-0.11,0.25,0.91,0.4,2.5,49,1,0.05,-0.02,0.01
1697353237.08,-0.15,0.28,0.97,-0.2,2.3,48.7,1,0.05,-0.02,0.02
1697353237.09,-0.15,0.28,0.97,-0.5,1.9,48.7,1,0.05,-0.02,0.02
1697353237.1,-0.14,0.28,1.16,-0.6,1.4,48.6,1,0.05,-0.01,0.03
1697353237.11,-0.17,0.28,1.12,-0.9,1.1,48.5,1,0.05,-0.01,0.03
1697353237.12,-0.09,0.3,0.89,-0.9,0.8,48.4,1,0.05,-0.01,0.04
1697353237.13,-0.15,0.29,1.12,-0.9,0,48.3,1,0.05,-0.01,0.04
1697353237.14,-0.12,0.28,0.98,-1.4,-0.2,48.1,1,0.05,-0.01,0.05
1697353237.15,-0.11,0.25,1.02,-1.5,-0.7,47.9,1,0.05,-0.01,0.05
1697353237.16,-0.13,0.29,1.07,-1.2,-1.2,47.6,1,0.05,-0.02,0.06
1697353237.17,-0.21,0.25,1.15,-1.3,-1.6,47.6,1,0.05,-0.02,0.06
1697353237.18,-0.09,0.26,0.91,-0.8,-1.7,47.3,1,0.05,-0.02,0.07
1697353237.19,-0.14,0.25,0.98,-0.7,-1.1,47.1,1,0.05,-0.02,0.07
1697353237.2,-0.16,0.23,0.97,-0.5,-1.1,46.9,1,0.05,-0.02,0.07
1697353237.21,-0.16,0.23,0.97,-0.5,-1.1,46.9,1,0.05,-0.02,0.07
1697353237.22,-0.16,0.23,0.97,-0.5,-1.1,46.9,1,0.05,-0.02,0.07
1697353237.23,-0.16,0.23,0.97,-0.5,-1.1,46.9,1,0.05,-0.02,0.07
1697353237.24,-0.16,0.23,0.97,-0.5,-1.1,46.9,1,0.05,-0.02,0.07
1697353237.25,-0.16,0.23,0.97,-0.5,-1.1,46.9,1,0.05,-0.02,0.07
1697353237.26,-0.16,0.23,0.97,-0.5,-1.1,46.9,1,0.05,-0.02,0.07
1697353237.27,-0.16,0.23,0.97,-0.5,-1.1,46.9,1,0.05,-0.02,0.07
1697353237.28,-0.16,0.23,0.97,-0.5,-1.1,46.9,1,0.05,-0.02,0.07
1697353237.29,-0.16,0.23,0.97,-0.5,-1.1,46.9,1,0.05,-0.02,0.07
1697353237.3,-0.16,0.23,0.97,-0.5,-1.1,46.9,1,0.05,-0.02,0.07
1697353237.31,-0.16,0.23,0.97,-0.5,-1.1,46.9,1,0.05,-0.02,0.07
1697353237.32,-0.16,0.23,0.97,-0.5,-1.1,46.9,1,0.05,-0.02,0.07
1697353237.33,-0.16,0.23,0.97,0,-1.1,45.8,0.99,0.05,-0.01,0.12
1697353237.34,-0.14,0.2,0.99,-0.4,-0.6,45.6,0.99,0.05,-0.01,0.13
1697353237.35,-0.14,0.2,0.99,-0.6,-0.6,45.6,0.99,0.05,-0.01,0.13
1697353237.36,-0.09,0.26,0.96,-1.1,-0.4,44.9,0.99,0.05,-0.01,0.13
1697353237.37,-0.09,0.26,0.96,-1.1,-0.4,44.9,0.99,0.05,-0.01,0.14
1697353237.38,-0.09,0.24,0.88,-0.6,-0.3,44.6,0.99,0.05,-0.01,0.14
1697353237.39,-0.14,0.21,0.99,-0.6,-0.3,44.6,0.99,0.05,-0.01,0.15
1697353237.4,-0.13,0.2,0.99,-0.6,0,44.5,0.99,0.05,-0.01,0.15
1697353237.41,-0.15,0.2,1.09,-0.6,-0.2,44.4,0.99,0.05,-0.01,0.16
1697353237.42,-0.15,0.2,1.09,-0.6,-0.3,44.3,0.99,0.05,-0.01,0.16
1697353237.43,-0.13,0.19,1.14,-0.3,-0.6,44.3,0.99,0.05,-0.01,0.16
1697353237.44,-0.12,0.18,1.09,-0.2,-0.8,44.3,0.98,0.05,-0.01,0.17
1697353237.45,-0.1,0.19,1.06,-0.2,-0.9,44.2,0.98,0.05,-0.01,0.17
1697353237.46,-0.08,0.19,0.99,-0.1,-0.9,44.2,0.98,0.05,-0.01,0.17
1697353237.47,-0.12,0.17,1.03,0,-0.9,44,0.98,0.05,-0.01,0.18
1697353237.48,-0.09,0.19,0.83,0.2,-0.6,43.8,0.98,0.05,-0.01,0.18
1697353237.49,-0.09,0.2,0.9,0.4,-0.2,43.4,0.98,0.05,-0.01,0.19
1697353237.5,-0.11,0.18,1,0.3,-0.2,43.2,0.98,0.05,-0.01,0.19
1697353237.51,-0.08,0.19,0.92,0,0,43,0.98,0.05,-0.01,0.19
1697353237.52,-0.12,0.21,0.97,-0.2,0.1,42.8,0.98,0.05,-0.01,0.2
1697353237.53,-0.06,0.24,0.9,0.2,0,42.6,0.98,0.05,-0.01,0.2
1697353237.54,-0.15,0.2,1.09,0.2,0,42.5,0.98,0.05,-0.01,0.2
1697353237.55,-0.11,0.22,0.96,0,0.5,42.5,0.98,0.05,-0.01,0.21
1697353237.56,-0.08,0.21,1.1,0,0.5,42.5,0.98,0.05,-0.01,0.21
1697353237.57,-0.14,0.19,1.09,-0.3,0.3,42.1,0.98,0.05,-0.01,0.21
1697353237.58,-0.11,0.17,1.02,-0.7,0.3,42.1,0.97,0.05,-0.01,0.22
1697353237.59,-0.12,0.17,1.14,-1,0.5,42,0.97,0.05,-0.01,0.22
1697353237.6,-0.1,0.19,0.95,-1,0.4,41.8,0.97,0.05,-0.01,0.23
1697353237.61,-0.14,0.19,1.06,-0.9,0.7,41.7,0.97,0.05,-0.01,0.23
1697353237.62,-0.11,0.19,0.98,-0.8,0.7,41.5,0.97,0.05,-0.01,0.23
1697353237.63,-0.08,0.15,0.99,-0.8,0.5,41.3,0.97,0.05,-0.01,0.24
1697353237.64,-0.05,0.16,1,-0.8,0.5,41.3,0.97,0.05,-0.01,0.24
1697353237.65,-0.09,0.13,0.94,-1,0,40.9,0.97,0.05,-0.01,0.24
1697353237.66,-0.13,0.17,0.97,-0.9,-0.2,40.8,0.97,0.05,-0.01,0.25
1697353237.67,-0.12,0.21,1.08,-0.7,-0.4,40.7,0.97,0.05,-0.01,0.25
1697353237.68,-0.09,0.13,0.97,-0.2,-0.9,40.3,0.97,0.05,-0.01,0.26
1697353237.69,-0.08,0.18,0.96,-0.2,-0.9,40.3,0.97,0.05,-0.01,0.26
1697353237.7,-0.1,0.15,1.05,0.6,-0.8,40,0.96,0.05,-0.01,0.26
1697353237.71,-0.09,0.13,0.91,1,-0.6,39.7,0.96,0.05,-0.01,0.27
1697353237.72,-0.14,0.14,0.93,0.6,-0.2,39.6,0.96,0.05,-0.01,0.27
1697353237.73,-0.14,0.14,0.93,0.6,-0.2,39.6,0.96,0.05,-0.01,0.27
1697353237.74,-0.14,0.14,0.93,0.6,-0.2,39.6,0.96,0.05,-0.01,0.27
1697353237.75,-0.14,0.14,0.93,0.6,-0.2,39.6,0.96,0.05,-0.01,0.27
1697353237.76,-0.14,0.14,0.93,0.6,-0.2,39.6,0.96,0.05,-0.01,0.27
1697353237.77,-0.14,0.14,0.93,0.6,-0.2,39.6,0.96,0.05,-0.01,0.27
1697353237.78,-0.14,0.14,0.93,0.6,-0.2,39.6,0.96,0.05,-0.01,0.27
1697353237.79,-0.14,0.14,0.93,0.6,-0.2,39.6,0.96,0.05,-0.01,0.27
1697353237.8,-0.14,0.14,0.93,0.6,-0.2,39.6,0.96,0.05,-0.01,0.27
1697353237.81,-0.14,0.14,0.93,0.6,-0.2,39.6,0.96,0.05,-0.01,0.27
1697353237.82,-0.14,0.14,0.93,0.6,-0.2,39.6,0.96,0.05,-0.01,0.27
1697353237.83,-0.14,0.14,0.93,0.6,-0.2,39.6,0.96,0.05,-0.01,0.27
1697353237.84,-0.14,0.14,0.93,0.6,-0.2,39.6,0.96,0.05,-0.01,0.27
1697353237.85,-0.14,0.14,0.93,0.6,-0.2,39.6,0.96,0.05,-0.01,0.27
1697353237.86,-0.11,0.12,1.13,-0.4,1.1,38.2,0.95,0.05,-0,0.31
1697353237.87,-0.07,0.11,0.99,-0.7,1.2,37.8,0.95,0.05,0,0.32
1697353237.88,-0.1,0.15,1.04,-0.7,1.2,37.8,0.95,0.05,0,0.32
1697353237.89,-0.09,0.17,1,-0.4,0.9,37.5,0.95,0.05,0,0.32
1697353237.9,-0.06,0.14,0.95,-0.1,0.6,37.5,0.94,0.05,0,0.33
1697353237.91,-0.1,0.12,1.12,0.2,0.3,37.5,0.94,0.05,0,0.33
1697353237.92,-0.08,0.12,1,0.1,0.3,37.6,0.94,0.05,0,0.33
1697353237.93,-0.07,0.11,0.93,0.3,0,37.4,0.94,0.05,0,0.33
1697353237.94,-0.07,0.15,1.02,0.3,0,37.4,0.94,0.05,0,0.33
1697353237.95,-0.1,0.11,1.02,0.1,-0.1,37.4,0.94,0.05,0.01,0.34
1697353237.96,-0.07,0.15,1,0.2,-0.2,37.2,0.94,0.05,0.01,0.34
1697353237.97,-0.09,0.11,0.99,0.3,-0.1,37.1,0.94,0.05,0.01,0.35
1697353237.98,-0.09,0.13,0.99,0.3,-0.1,37.1,0.94,0.05,0.01,0.35
1697353237.99,-0.1,0.13,0.97,0.2,0,36.9,0.94,0.05,0.01,0.35
1697353238,-0.09,0.1,0.99,-0.2,0.3,36.4,0.93,0.05,0.01,0.36
1697353238.01,-0.09,0.16,1.08,-0.1,0.5,36.1,0.93,0.05,0.01,0.36
1697353238.02,-0.09,0.13,0.95,0.5,0.7,35.9,0.93,0.05,0.01,0.36
1697353238.03,-0.12,0.11,1.03,1,1,35.6,0.93,0.05,0.01,0.37
1697353238.04,-0.12,0.11,1.03,1,1,35.6,0.93,0.05,0.01,0.37
1697353238.05,-0.06,0.08,0.89,0.7,1.2,35.2,0.93,0.05,0.01,0.37
1697353238.06,-0.06,0.13,0.97,0.2,1.1,35.2,0.93,0.05,0.01,0.37
1697353238.07,-0.06,0.13,0.97,0.2,1.1,35.2,0.93,0.05,0.01,0.37
1697353238.08,-0.12,0.1,1.07,0.1,1.2,35.1,0.92,0.05,0.02,0.38
1697353238.09,-0.18,0.13,0.93,-0.3,1.4,34.9,0.92,0.05,0.02,0.38
1697353238.1,-0.37,0.07,1.26,-1,1.3,34.4,0.92,0.05,0.02,0.38
1697353238.11,-0.23,0.04,0.93,-1,1.8,33.7,0.92,0.05,0.02,0.39
1697353238.12,-0.28,0.07,1.06,-0.8,1.4,33.2,0.92,0.05,0.02,0.39
1697353238.13,-0.22,0.02,0.93,-0.6,1.4,32.6,0.92,0.05,0.02,0.39
1697353238.14,-0.32,0.02,1.17,-0.6,1.2,31.7,0.92,0.05,0.02,0.39
1697353238.15,-0.26,-0.02,0.89,-0.6,1.1,31,0.92,0.05,0.02,0.4
1697353238.16,-0.28,-0.01,1.03,-0.9,0.7,29.9,0.92,0.05,0.02,0.4
1697353238.17,-0.3,-0.01,1.02,-0.8,0.4,28.9,0.91,0.05,0.02,0.4
1697353238.18,-0.34,-0.01,1.03,-0.9,0.5,28.1,0.91,0.05,0.01,0.4
1697353238.19,-0.32,-0.01,1,-0.7,0.7,27.3,0.91,0.05,0.02,0.41
1697353238.2,-0.36,-0.04,1,-0.5,0.6,26.5,0.91,0.05,0.02,0.41
1697353238.21,-0.37,-0.02,1.03,-0.8,0.9,25.9,0.91,0.05,0.02,0.41
1697353238.22,-0.44,-0.06,1.06,-0.9,1,25.2,0.91,0.05,0.02,0.41
1697353238.23,-0.39,-0.03,1,-0.9,1.1,24.5,0.91,0.05,0.02,0.41
1697353238.24,-0.39,-0.03,1,-0.9,1.1,24.5,0.91,0.05,0.02,0.41
1697353238.25,-0.39,-0.03,1,-0.9,1.1,24.5,0.91,0.05,0.02,0.41
1697353238.26,-0.39,-0.03,1,-0.9,1.1,24.5,0.91,0.05,0.02,0.41
1697353238.27,-0.39,-0.03,1,-0.9,1.1,24.5,0.91,0.05,0.02,0.41
1697353238.28,-0.39,-0.03,1,-0.9,1.1,24.5,0.91,0.05,0.02,0.41
1697353238.29,-0.39,-0.03,1,-0.9,1.1,24.5,0.91,0.05,0.02,0.41
1697353238.3,-0.39,-0.03,1,-0.9,1.1,24.5,0.91,0.05,0.02,0.41
1697353238.31,-0.39,-0.03,1,-0.9,1.1,24.5,0.91,0.05,0.02,0.41
1697353238.32,-0.39,-0.03,1,-0.9,1.1,24.5,0.91,0.05,0.02,0.41
1697353238.33,-0.39,-0.03,1,-0.9,1.1,24.5,0.91,0.05,0.02,0.41
1697353238.34,-0.39,-0.03,1,-0.9,1.1,24.5,0.91,0.05,0.02,0.41
1697353238.35,-0.39,-0.03,1,-0.9,1.1,24.5,0.91,0.05,0.02,0.41
1697353238.36,-0.39,-0.03,1,-0.9,1.1,24.5,0.91,0.05,0.02,0.41
1697353238.37,-0.48,-0.06,0.97,0.8,1.3,15.7,0.9,0.05,0.02,0.43
1697353238.38,-0.45,-0.09,0.93,1,1,15.4,0.9,0.05,0.02,0.44
1697353238.39,-0.47,-0.11,1,1.4,0.8,14.7,0.9,0.05,0.02,0.44
1697353238.4,-0.47,-0.11,1,1.4,0.8,14.7,0.9,0.05,0.02,0.44
1697353238.41,-0.48,-0.09,1.09,0.6,0.3,13.2,0.9,0.05,0.02,0.44
1697353238.42,-0.44,-0.07,0.89,0,0.2,12.5,0.9,0.05,0.02,0.44
1697353238.43,-0.49,-0.07,1.02,0,0.1,11.8,0.9,0.05,0.02,0.44
1697353238.44,-0.49,-0.07,1.02,0,0.1,11.8,0.9,0.05,0.02,0.44
1697353238.45,-0.46,-0.05,0.98,0.2,0.2,10.3,0.89,0.05,0.02,0.44
1697353238.46,-0.47,-0.06,0.95,0.2,0.2,10.3,0.89,0.05,0.02,0.44
1697353238.47,-0.47,-0.06,0.95,0.2,0.4,9.8,0.89,0.05,0.02,0.45
1697353238.48,-0.5,-0.09,1.08,0.1,0.4,9.2,0.89,0.05,0.02,0.45
1697353238.49,-0.48,-0.1,1.07,-0.1,0.6,8.6,0.89,0.05,0.02,0.45
1697353238.5,-0.48,-0.1,1.07,-0.5,0.8,8,0.89,0.05,0.02,0.45
1697353238.51,-0.47,-0.1,1.02,-0.5,1,7.3,0.89,0.05,0.02,0.45
1697353238.52,-0.47,-0.1,1.02,-0.3,1.1,6.9,0.89,0.05,0.02,0.45
1697353238.53,-0.47,-0.09,1.04,0,0.7,6.5,0.89,0.05,0.02,0.45
1697353238.54,-0.41,-0.11,1.02,0.1,0.5,6.1,0.89,0.05,0.02,0.45
1697353238.55,-0.44,-0.14,0.97,0.2,0.2,5.6,0.89,0.05,0.02,0.45
1697353238.56,-0.44,-0.13,1.09,0,0,5,0.89,0.05,0.02,0.45
1697353238.57,-0.39,-0.09,0.94,0.1,-0.3,4.4,0.89,0.05,0.02,0.45
1697353238.58,-0.37,-0.06,1.04,0.3,-0.6,4,0.89,0.05,0.02,0.45
1697353238.59,-0.36,-0.07,0.98,0.1,-0.8,3.7,0.89,0.05,0.02,0.45
1697353238.6,-0.37,0.1,1.01,0.1,-0.5,3.3,0.89,0.05,0.02,0.45
1697353238.61,-0.29,-0.14,0.9,0.1,-0.5,3.3,0.89,0.05,0.02,0.45
1697353238.62,-0.37,-0.08,1.05,-0.1,-0.1,2.3,0.89,0.05,0.02,0.45
1697353238.63,-0.36,-0.07,0.96,0,0.1,1.6,0.89,0.05,0.02,0.45
1697353238.64,-0.33,-0.05,1.01,0.2,0.1,1.2,0.89,0.05,0.02,0.45
1697353238.65,-0.3,-0.05,1,0.6,0,0.7,0.89,0.05,0.02,0.45
1697353238.66,-0.26,-0.06,1.06,0.5,-0.2,0.5,0.89,0.05,0.02,0.45
1697353238.67,-0.16,-0.05,1.03,0.6,-0.6,0.4,0.89,0.05,0.02,0.45
1697353238.68,-0.08,-0.13,0.85,0.2,-1.4,0.3,0.89,0.05,0.02,0.45
1697353238.69,-0.1,0,1.1,0.1,-1.6,0.2,0.89,0.05,0.02,0.45
1697353238.7,-0.07,-0.03,1.02,-0.2,-1.5,0.4,0.89,0.05,0.02,0.45
1697353238.71,-0.09,-0.02,0.97,-0.3,-1.3,0.5,0.89,0.05,0.02,0.45
1697353238.72,-0.05,0.01,0.95,-0.2,-1.3,0.4,0.89,0.05,0.02,0.45
1697353238.73,0.04,-0.03,0.99,-0.2,-0.8,0.4,0.89,0.05,0.02,0.45
1697353238.74,0.04,-0.03,0.99,-0.2,-0.8,0.4,0.89,0.05,0.02,0.45
1697353238.75,-0.01,-0.03,1.02,0,-0.4,-0.1,0.89,0.05,0.02,0.45
1697353238.76,-0.01,-0.03,1.02,0,-0.4,-0.1,0.89,0.05,0.02,0.45
1697353238.77,-0.01,-0.03,1.02,0,-0.4,-0.1,0.89,0.05,0.02,0.45
1697353238.78,-0.01,-0.03,1.02,0,-0.4,-0.1,0.89,0.05,0.02,0.45
1697353238.79,-0.01,-0.03,1.02,0,-0.4,-0.1,0.89,0.05,0.02,0.45
1697353238.8,-0.01,-0.03,1.02,0,-0.4,-0.1,0.89,0.05,0.02,0.45
1697353238.81,-0.01,-0.03,1.02,0,-0.4,-0.1,0.89,0.05,0.02,0.45
1697353238.82,-0.01,-0.03,1.02,0,-0.4,-0.1,0.89,0.05,0.02,0.45
1697353238.83,-0.01,-0.03,1.02,0,-0.4,-0.1,0.89,0.05,0.02,0.45
1697353238.84,-0.01,-0.03,1.02,0,-0.4,-0.1,0.89,0.05,0.02,0.45
1697353238.85,-0.01,-0.03,1.02,0,-0.4,-0.1,0.89,0.05,0.02,0.45
1697353238.86,-0.01,-0.03,1.02,0,-0.4,-0.1,0.89,0.05,0.02,0.45
1697353238.87,-0.01,-0.03,1.02,0,-0.4,-0.1,0.89,0.05,0.02,0.45
1697353238.88,-0.01,-0.03,1.02,0,-0.4,-0.1,0.89,0.05,0.02,0.45
1697353238.89,-0.01,-0.03,1.02,0,-0.4,-0.1,0.89,0.05,0.02,0.45
1697353238.9,0.01,-0.01,1.01,0,0,-0.2,0.89,0.04,0.01,0.45
1697353238.91,0.01,-0,1.02,0,-0.1,-0.2,0.89,0.04,0.01,0.45
1697353238.92,0.02,-0.01,1,0,0,-0.2,0.89,0.04,0.01,0.45
1697353238.93,0.03,-0.03,0.99,0,0,-0.2,0.89,0.04,0.01,0.45
1697353238.94,0.02,-0.01,0.98,0,0,-0.2,0.89,0.04,0.01,0.45
1697353238.95,0,-0.06,1.02,0,0,-0.1,0.89,0.03,0.01,0.45
1697353238.96,0.01,-0.03,0.97,0,0,-0.2,0.89,0.03,0.01,0.45
1697353238.97,0,-0.01,1.02,0,0.1,-0.2,0.89,0.03,0.01,0.45
1697353238.98,0.02,-0.01,0.97,0,0,-0.2,0.89,0.03,0.01,0.45
1697353238.99,0.02,0.01,1.02,0,0.1,0,0.89,0.03,0.01,0.45
1697353239,0.03,-0.01,1.03,-0.1,-0.1,0,0.89,0.03,0.01,0.45
1697353239.01,0.03,-0.02,1.01,0,-0.1,0,0.89,0.03,0.01,0.45
1697353239.02,0.02,-0.01,0.98,0,-0.1,0,0.89,0.03,0.01,0.45
1697353239.03,0.01,-0.01,1.01,0,-0.1,0,0.89,0.03,0.01,0.45
1697353239.04,0.02,-0,0.98,0,-0.1,0,0.89,0.03,0,0.45
1697353239.05,0.03,-0.02,0.99,-0.1,0,0,0.89,0.03,0,0.45
1697353239.06,0.03,-0.04,1,0,-0.1,-0.1,0.89,0.03,0,0.45
1697353239.07,0.01,-0.04,1.01,0,0,-0.1,0.89,0.03,0,0.45
1697353239.08,0.01,-0.02,0.99,0,0.1,-0.1,0.89,0.02,0,0.45
1697353239.09,0.01,-0.01,1.01,0,0,-0.1,0.89,0.02,0,0.45
1697353239.1,0,-0.02,0.99,0,0,0,0.89,0.02,0,0.45
1697353239.11,0.01,-0.01,1.02,0,0,0,0.89,0.02,0,0.45
1697353239.12,0.03,-0.02,0.99,0,0,0,0.89,0.02,0,0.45
1697353239.13,0.01,-0.02,1.01,0.1,-0.1,0.1,0.89,0.02,0,0.45
1697353239.14,0.01,-0.02,1.01,0.1,-0.1,0.1,0.89,0.02,0,0.45
1697353239.15,0.02,-0.01,0.99,0,0,0.1,0.89,0.02,0,0.45
1697353239.16,0.01,-0.02,1.01,0,0,0,0.89,0.02,0,0.45
1697353239.17,0.02,-0.03,1.01,-0.2,0.1,-0.1,0.89,0.02,0,0.45
1697353239.18,0.01,-0.03,1.01,0,0.1,-0.1,0.89,0.02,0,0.45
1697353239.19,0.01,-0.03,1.01,0,0,-0.1,0.89,0.02,0,0.45
1697353239.2,0,-0.03,1.01,0,0.1,-0.2,0.89,0.02,0,0.45
1697353239.21,0.03,-0.03,0.95,-0.1,0,-0.1,0.89,0.02,-0,0.45
1697353239.22,0.03,-0.03,0.95,-0.1,0,-0.1,0.89,0.02,-0,0.45
1697353239.23,0.03,-0.03,0.99,0,0,0,0.89,0.02,-0,0.45
1697353239.24,0.01,-0.02,1.01,0,0,0,0.89,0.02,-0,0.45
1697353239.25,0.01,-0.02,0.98,0,-0.1,0.1,0.89,0.02,-0,0.45
1697353239.26,0.01,-0.02,0.98,0,0,0.1,0.89,0.02,-0,0.45
1697353239.27,0.01,-0.01,1.01,0,0,0,0.89,0.02,-0,0.45
1697353239.28,0.01,-0.03,1.01,0,0,0,0.89,0.02,-0,0.45
1697353239.29,0.01,-0.01,1.03,0.1,-0.1,0,0.89,0.02,-0,0.45
1697353239.3,0.01,-0.01,1.03,0.1,-0.1,0,0.89,0.02,-0,0.45
1697353239.31,0.01,-0.01,1.03,0.1,-0.1,0,0.89,0.02,-0,0.45
1697353239.32,0.01,-0.01,1.03,0.1,-0.1,0,0.89,0.02,-0,0.45
1697353239.33,0.01,-0.01,1.03,0.1,-0.1,0,0.89,0.02,-0,0.45
1697353239.34,0.01,-0.01,1.03,0.1,-0.1,0,0.89,0.02,-0,0.45
1697353239.35,0.01,-0.01,1.03,0.1,-0.1,0,0.89,0.02,-0,0.45
1697353239.36,0.01,-0.01,1.03,0.1,-0.1,0,0.89,0.02,-0,0.45
1697353239.37,0.01,-0.01,1.03,0.1,-0.1,0,0.89,0.02,-0,0.45
1697353239.38,0.01,-0.01,1.03,0.1,-0.1,0,0.89,0.02,-0,0.45
1697353239.39,0.01,-0.01,1.03,0.1,-0.1,0,0.89,0.02,-0,0.45
1697353239.4,0.01,-0.01,1.03,0.1,-0.1,0,0.89,0.02,-0,0.45
1697353239.41,0.01,-0.01,1.03,0.1,-0.1,0,0.89,0.02,-0,0.45
1697353239.42,0.01,-0.01,1.03,0.1,-0.1,0,0.89,0.02,-0,0.45
1697353239.43,0.01,-0.01,1.03,0.1,-0.1,0,0.89,0.02,-0,0.45
1697353239.44,0.01,-0.01,1.03,0.1,-0.1,0,0.89,0.02,-0,0.45
1697353239.45,0.01,-0.01,1.03,0.1,-0.1,0,0.89,0.02,-0,0.45
1697353239.46,0.01,-0.01,1.03,0.1,-0.1,0,0.89,0.02,-0,0.45
1697353239.47,0.01,-0.01,0.92,0,0.1,-0.1,0.89,0.01,-0,0.45
1697353239.48,0.03,-0.01,0.93,0,0,-0.2,0.89,0.01,-0,0.45
1697353239.49,0.01,-0.03,1.05,0,0,-0.2,0.89,0.01,-0,0.45
1697353239.5,0.02,-0.04,0.96,0,0,-0.2,0.89,0.01,-0,0.45
1697353239.51,0.01,-0.04,1.01,-0.2,0,-0.1,0.89,0.01,-0,0.45
1697353239.52,0.01,-0.03,1.01,-0.2,0,0,0.89,0.01,-0,0.45
1697353239.53,0.01,-0.02,0.99,-0.1,-0.2,0,0.89,0.01,-0,0.45
1697353239.54,-0,-0.02,1.01,0,-0.1,0,0.89,0.01,-0,0.45
1697353239.55,0,-0.02,0.99,-0.1,-0.1,0,0.89,0.01,-0,0.45
1697353239.56,0,-0.02,0.99,-0.1,-0.1,0,0.89,0.01,-0,0.45
1697353239.57,0.02,-0.05,1.01,-0.1,0.1,-0.2,0.89,0.01,-0,0.45
1697353239.58,0.02,-0.05,1.01,-0.1,0.1,-0.2,0.89,0.01,-0,0.45
1697353239.59,0.03,-0.05,1,-0.1,0.1,-0.3,0.89,0.01,-0,0.45
1697353239.6,0.01,-0.03,0.98,0,0.2,-0.6,0.89,0.01,-0,0.45
1697353239.61,0.01,-0.03,0.98,0,0.2,-0.6,0.89,0.01,-0,0.45
1697353239.62,0.02,-0.03,1.01,0,0.1,-0.7,0.89,0.01,-0,0.45
1697353239.63,0.01,-0.03,1,0,0,-0.7,0.89,0.01,-0,0.45
1697353239.64,0.02,-0.04,1.03,0.1,0,-0.7,0.89,0.01,-0,0.45
1697353239.65,0.03,-0.03,0.97,0.2,0,-0.8,0.89,0.01,-0,0.45
1697353239.66,-0.01,-0.03,1.02,0,0,-0.6,0.89,0.01,-0,0.45
1697353239.67,0.01,-0.02,0.96,-0.2,0,-0.6,0.89,0.01,-0,0.45
1697353239.68,0.01,-0.01,1,0,0,-0.5,0.89,0.01,-0,0.45
1697353239.69,0.01,-0.03,0.99,-0.1,0.2,-0.5,0.89,0.01,-0,0.45
1697353239.7,0.03,-0.03,1.01,0,0.2,-0.5,0.89,0.01,-0,0.45
1697353239.71,0.03,-0.02,0.99,0,0.3,-0.6,0.89,0.01,-0,0.45
1697353239.72,0.01,-0.01,1.04,0,0.1,-0.8,0.89,0.01,-0,0.45
1697353239.73,0.02,-0.01,0.95,0,0,-0.9,0.89,0.01,-0,0.45
1697353239.74,0,0,1.05,0,0,-0.9,0.89,0.01,-0,0.45
1697353239.75,-0,0.01,1,-0.1,0,-0.8,0.89,0.01,-0,0.45
1697353239.76,0.01,0.03,0.99,0,-0.1,-0.5,0.89,0.01,-0,0.45
1697353239.77,-0,0.03,1.02,0.1,0,-0.2,0.89,0.01,-0,0.45
1697353239.78,0,0.04,0.99,0,0,0.1,0.89,0.01,-0,0.45
1697353239.79,0,0,0.98,0,0,0.1,0.89,0.01,-0,0.45
1697353239.8,-0,-0.02,1,-0.3,0.2,0.4,0.89,0.01,-0,0.45
1697353239.81,-0,-0.02,1,-0.3,0.2,0.4,0.89,0.01,-0,0.45
1697353239.82,0.01,-0.06,1.01,-0.1,0,0.4,0.89,0.01,-0,0.45
1697353239.83,0.02,-0.06,1.01,-0.1,0,0.4,0.89,0.01,-0,0.45
1697353239.84,0.03,-0.04,0.99,0.1,0,0,0.89,0.01,-0,0.45
1697353239.85,0.02,-0.07,1,0,0.1,-0.2,0.89,0.01,-0,0.45
1697353239.86,0.01,-0.01,1.02,0.1,0,-0.3,0.89,0.01,-0,0.45
1697353239.87,0.01,-0.01,1.02,0.1,0,-0.3,0.89,0.01,-0,0.45
1697353239.88,0.01,-0.01,1.02,0.1,0,-0.3,0.89,0.01,-0,0.45
1697353239.89,0.01,-0.01,1.02,0.1,0,-0.3,0.89,0.01,-0,0.45
1697353239.9,0.01,-0.01,1.02,0.1,0,-0.3,0.89,0.01,-0,0.45
1697353239.91,0.01,-0.01,1.02,0.1,0,-0.3,0.89,0.01,-0,0.45
1697353239.92,0.01,-0.01,1.02,0.1,0,-0.3,0.89,0.01,-0,0.45
1697353239.93,0.01,-0.01,1.02,0.1,0,-0.3,0.89,0.01,-0,0.45
1697353239.94,0.01,-0.01,1.02,0.1,0,-0.3,0.89,0.01,-0,0.45
1697353239.95,0.01,-0.01,1.02,0.1,0,-0.3,0.89,0.01,-0,0.45
1697353239.96,0.01,-0.01,1.02,0.1,0,-0.3,0.89,0.01,-0,0.45
1697353239.97,0.01,-0.01,1.02,0.1,0,-0.3,0.89,0.01,-0,0.45
1697353239.98,0.01,-0.01,1.02,0.1,0,-0.3,0.89,0.01,-0,0.45
1697353239.99,0.04,-0.05,0.95,0,0,-0.1,0.89,0.01,-0,0.45
1697353240,0.01,-0.04,1.01,-0.1,-0.1,0,0.89,0.01,-0.01,0.45
1697353240.01,0.01,-0.04,1.01,0,0,0,0.89,0.01,-0.01,0.45
1697353240.02,0,-0.01,1.04,-0.1,0.1,0,0.89,0.01,-0.01,0.45
1697353240.03,0.01,-0.03,1.01,-0.1,0.1,0,0.89,0.01,-0.01,0.45
1697353240.04,0.02,-0.04,1.01,0,0,0.1,0.89,0.01,-0.01,0.45
1697353240.05,0.02,-0.04,0.99,0.1,0,0.1,0.89,0.01,-0.01,0.45
1697353240.06,0.02,-0.03,0.99,-0.1,0,0.1,0.89,0.01,-0.01,0.45
1697353240.07,0.01,-0.02,0.98,0.1,0,0,0.89,0.01,-0.01,0.45
1697353240.08,0.01,-0.01,0.98,0.1,0,0,0.89,0,-0.01,0.45
1697353240.09,0,0.01,1,0,0,0,0.89,0,-0.01,0.45
1697353240.1,0,0,1,0,0,-0.1,0.89,0,-0.01,0.45
1697353240.11,0.03,-0.03,0.99,0,0,-0.1,0.89,0,-0.01,0.45
1697353240.12,0.02,-0.03,1,-0.1,0,0,0.89,0,-0.01,0.45
1697353240.13,0.01,-0.02,0.99,0,0,0,0.89,0,-0.01,0.45
1697353240.14,0,-0.01,0.98,0,0,0,0.89,0,-0.01,0.45
1697353240.15,0,-0.02,0.99,0,0,0,0.89,0,-0.01,0.45
1697353240.16,0.01,-0.03,0.99,-0.1,0,0.1,0.89,0,-0.01,0.45
1697353240.17,0.01,-0.04,1.01,0,0,0,0.89,0,-0.01,0.45
1697353240.18,0.02,-0.04,1.02,0,0,0,0.89,0,-0.01,0.45
1697353240.19,0.01,-0.02,0.99,0.1,0,0,0.89,0,-0.01,0.45
1697353240.2,0.01,-0.01,1,0.1,0,0,0.89,0,-0.01,0.45
1697353240.21,0,-0.01,1,0,0,0,0.89,0,-0.01,0.45
1697353240.22,0,-0.02,0.99,0,0,0,0.89,0,-0.01,0.45
1697353240.23,0,-0.02,1.02,0.1,0,0,0.89,0,-0.01,0.45
1697353240.24,0.01,-0.02,1.03,0.1,0,0,0.89,0,-0.01,0.45
1697353240.25,0.01,-0.02,1.02,0.2,0,0,0.89,0,-0.01,0.45
1697353240.26,0,-0.01,1,0,-0.1,0,0.89,0,-0.01,0.45
1697353240.27,0,-0.01,1,0,-0.1,0,0.89,0,-0.01,0.45
1697353240.28,0.01,-0.01,0.98,0,-0.1,0,0.89,0,-0.01,0.45
1697353240.29,0.01,-0.01,0.98,0,-0.2,0,0.89,0,-0.01,0.45
1697353240.3,0.03,-0.03,1.01,0,-0.1,-0.1,0.89,0,-0.01,0.45
1697353240.31,0.03,-0.03,1.01,0,-0.1,-0.1,0.89,0,-0.01,0.45
1697353240.32,0.03,-0.02,1,0,-0.1,0,0.89,0,-0.01,0.45
1697353240.33,0.03,-0.02,0.97,0,0,0,0.89,0,-0.01,0.45
1697353240.34,0.03,-0.02,0.97,0,0,0,0.89,0,-0.01,0.45
1697353240.35,-0,-0.02,0.98,0,0.1,0,0.89,0,-0.01,0.45
1697353240.36,-0,-0.02,0.98,0.1,-0.1,0.1,0.89,0,-0.01,0.45
1697353240.37,0,-0.02,1.03,0,0,0.1,0.89,0,-0.01,0.45
1697353240.38,0,-0.02,1.01,0,0,0,0.89,0,-0.01,0.45
1697353240.39,0,-0.02,1.01,0,0,0,0.89,0,-0.01,0.45
1697353240.4,0,-0.02,1.01,0,0,0,0.89,0,-0.01,0.45
1697353240.41,0,-0.02,1.01,0,0,0,0.89,0,-0.01,0.45
1697353240.42,0,-0.02,1.01,0,0,0,0.89,0,-0.01,0.45
1697353240.43,0,-0.02,1.01,0,0,0,0.89,0,-0.01,0.45
1697353240.44,0,-0.02,1.01,0,0,0,0.89,0,-0.01,0.45
1697353240.45,0,-0.02,1.01,0,0,0,0.89,0,-0.01,0.45
1697353240.46,0,-0.02,1.01,0,0,0,0.89,0,-0.01,0.45
1697353240.47,0,-0.02,1.01,0,0,0,0.89,0,-0.01,0.45
1697353240.48,0,-0.02,1.01,0,0,0,0.89,0,-0.01,0.45
1697353240.49,0,-0.02,1.01,0,0,0,0.89,0,-0.01,0.45
1697353240.5,0,-0.02,1.01,0,0,0,0.89,0,-0.01,0.45
1697353240.51,0,-0.02,1.01,0,0,0,0.89,0,-0.01,0.45
1697353240.52,0.01,-0.02,1.01,0,0,0,0.89,0,-0.01,0.45
1697353240.53,0.02,-0.03,0.99,0,0,0,0.89,0,-0.01,0.45
1697353240.54,0.02,-0.03,0.97,0,0,0,0.89,0,-0.01,0.45
1697353240.55,0.01,-0.01,1,0,0,0,0.89,0,-0.01,0.45
1697353240.56,0.01,-0.02,1.01,0,0,0,0.89,0,-0.01,0.45
1697353240.57,0.01,-0.02,1.02,0,0,0,0.89,0,-0.01,0.45
1697353240.58,0.02,-0.02,1.01,0,0,0,0.89,0,-0.01,0.45
1697353240.59,0.02,-0.03,0.99,0,0,0,0.89,-0,-0.01,0.45
1697353240.6,0.01,-0.03,0.98,-0.1,0,0,0.89,-0,-0.01,0.45
1697353240.61,0,-0.02,0.99,0.1,0,0,0.89,-0,-0.01,0.45
1697353240.62,0,-0.02,1,0.1,0,0,0.89,-0,-0.01,0.45
1697353240.63,0,-0.01,1.01,0,-0.1,0,0.89,-0,-0.01,0.45
1697353240.64,0,-0.02,1.03,0,-0.1,0,0.89,-0,-0.01,0.45
1697353240.65,0.03,-0.04,1,0,0.1,0,0.89,-0,-0.01,0.45
1697353240.66,0.02,-0.03,0.99,-0.1,0,0,0.89,-0,-0.01,0.45
1697353240.67,0.02,-0.03,0.99,-0.1,0,0,0.89,-0,-0.01,0.45
1697353240.68,0.01,-0.01,0.99,0,0,0,0.89,-0,-0.01,0.45
1697353240.69,0.01,-0.01,0.99,0,0,0,0.89,-0,-0.01,0.45
1697353240.7,0,-0.01,1,0.1,0,0,0.89,-0,-0.01,0.45
1697353240.71,-0,-0.01,1.02,0,0,0,0.89,-0,-0.01,0.45
1697353240.72,0.01,-0.03,0.99,0,-0.1,0,0.89,-0,-0.01,0.45
1697353240.73,0.01,-0.03,0.99,0.1,-0.1,0,0.89,-0,-0.01,0.45
1697353240.74,0.01,-0.02,0.99,0.1,-0.1,0,0.89,-0,-0.01,0.45
1697353240.75,0.01,-0.01,0.99,0,-0.1,0,0.89,-0,-0.01,0.45
1697353240.76,0,-0.01,1,0,0,0,0.89,-0,-0.01,0.45
1697353240.77,0,-0.02,1.02,0,0,0,0.89,-0,-0.01,0.45
1697353240.78,0.01,-0.03,1.01,0,0,0,0.89,-0,-0.01,0.45
1697353240.79,0.02,-0.03,1,0,0,0,0.89,-0,-0.01,0.45
1697353240.8,0.03,-0.04,1,0,0,-0.1,0.89,-0,-0.01,0.45
1697353240.81,0,-0.01,1,0.1,-0.1,0,0.89,-0,-0.01,0.45
1697353240.82,0,-0.01,1,-0.1,0,0,0.89,-0,-0.01,0.45
1697353240.83,0,-0.01,1.01,0,0.2,0,0.89,-0,-0.01,0.45
1697353240.84,0.02,-0.03,1.01,0,0,0,0.89,-0,-0.01,0.45
1697353240.85,0.02,-0.04,1,0,0,0,0.89,-0,-0.01,0.45
1697353240.86,0.02,-0.04,1,0,0,0,0.89,-0,-0.01,0.45
1697353240.87,0,-0.01,0.99,0.1,-0.1,0.1,0.89,-0,-0.01,0.45
1697353240.88,0,-0.01,0.99,0.1,-0.1,0.1,0.89,-0,-0.01,0.45
1697353240.89,0.01,-0.01,1,0,0,0,0.89,-0,-0.01,0.45
1697353240.9,0,-0.02,1,0,0,0,0.89,-0,-0.01,0.45
1697353240.91,0,-0.02,1,0,0,0,0.89,-0,-0.01,0.45
1697353240.92,0,-0.02,1,0,0,0,0.89,-0,-0.01,0.45
1697353240.93,0,-0.02,1,0,0,0,0.89,-0,-0.01,0.45
1697353240.94,0,-0.02,1,0,0,0,0.89,-0,-0.01,0.45
1697353240.95,0,-0.02,1,0,0,0,0.89,-0,-0.01,0.45
1697353240.96,0,-0.02,1,0,0,0,0.89,-0,-0.01,0.45
1697353240.97,0,-0.02,1,0,0,0,0.89,-0,-0.01,0.45
1697353240.98,0,-0.02,1,0,0,0,0.89,-0,-0.01,0.45
1697353240.99,0,-0.02,1,0,0,0,0.89,-0,-0.01,0.45
1697353241,0,-0.02,1,0,0,0,0.89,-0,-0.01,0.45
1697353241.01,0,-0.02,1,0,0,0,0.89,-0,-0.01,0.45
1697353241.02,0,-0.02,1,0,0,0,0.89,-0,-0.01,0.45
1697353241.03,0,-0.02,1,0,0,0,0.89,-0,-0.01,0.45
1697353241.04,0.01,-0.03,1.01,0.1,0,0,0.89,-0,-0.01,0.45
1697353241.05,0.02,-0.02,1,0,0,0,0.89,-0,-0.01,0.45
1697353241.06,0.01,-0.02,1,0,0,0,0.89,-0,-0.01,0.45
1697353241.07,0.01,-0.01,0.99,0,0,0,0.89,-0,-0.01,0.45
1697353241.08,0.01,-0,0.99,0,0,0,0.89,-0,-0.01,0.45
1697353241.09,0.01,-0.01,0.99,0,0,0,0.89,-0,-0.01,0.45
1697353241.1,0.01,-0.03,1.01,0,0,0,0.89,-0,-0.01,0.45
1697353241.11,0.01,-0.03,1.01,-0.1,0,0,0.89,-0,-0.01,0.45
1697353241.12,0.01,-0.03,1.01,0,0.1,0,0.89,-0,-0.01,0.45
1697353241.13,0.01,-0.01,0.99,0,0.1,0,0.89,-0,-0.01,0.45
1697353241.14,0.01,-0.02,0.98,0,0,0,0.89,-0,-0.01,0.45
1697353241.15,0.01,-0.03,1,0,0,0,0.89,-0,-0.01,0.45
1697353241.16,0,-0.03,1.01,0,0,0,0.89,-0,-0.01,0.45
1697353241.17,0.02,-0.03,1,0,0,0,0.89,-0,-0.01,0.45
1697353241.18,0.02,-0.02,1,0,0,0,0.89,-0,-0.01,0.45
1697353241.19,0.02,-0.02,1,0,0.1,0,0.89,-0,-0.01,0.45
1697353241.2,0.02,-0.01,0.98,0.1,0,0,0.89,-0,-0.01,0.45
1697353241.21,0.01,-0.03,1.02,0,0,0,0.89,-0,-0.01,0.45
1697353241.22,0,-0.03,1.01,0,0,0,0.89,-0,-0.01,0.45
1697353241.23,0.01,-0.02,1.02,0,0,0,0.89,-0,-0.01,0.45
1697353241.24,0,-0.02,1.03,0,0,0,0.89,-0,-0.01,0.45
1697353241.25,0,-0.01,1.01,0,0,0,0.89,-0,-0.01,0.45
1697353241.26,0,-0.01,1.01,0,0,0,0.89,-0,-0.01,0.45
1697353241.27,0.01,-0.02,0.99,0,-0.1,0,0.89,-0,-0.01,0.45
1697353241.28,0.01,-0.02,0.99,-0.1,-0.1,0,0.89,-0,-0.01,0.45
1697353241.29,0.03,-0.02,0.99,0,-0.1,0,0.89,-0,-0.01,0.45
1697353241.3,0.03,-0.02,1,0.1,0,-0.1,0.89,-0,-0.01,0.45
1697353241.31,0.02,-0.02,1,0.1,0,-0.1,0.89,-0,-0.01,0.45
1697353241.32,0.01,-0.02,0.99,0,0,0,0.89,-0,-0.01,0.45
1697353241.33,0.01,-0.02,0.98,0,0.1,0,0.89,-0,-0.01,0.45
1697353241.34,0.01,-0.03,0.99,0,0,0,0.89,-0,-0.01,0.45
1697353241.35,0.01,-0.02,1.01,0,-0.1,0,0.89,-0,-0.01,0.45
1697353241.36,0.01,-0.02,1.01,0.1,0,0,0.89,-0,-0.01,0.45
1697353241.37,0.01,-0.02,1,0,0,0,0.89,-0,-0.01,0.45
1697353241.38,0.01,-0.01,1,0,0,0,0.89,-0,-0.01,0.45
1697353241.39,0.01,-0.01,0.99,0,0,0,0.89,-0,-0.01,0.45
1697353241.4,0.01,-0.01,0.99,0,0,0,0.89,-0,-0.01,0.45
1697353241.41,0.02,-0.02,1,0,0,0,0.89,-0,-0.01,0.45
1697353241.42,0.01,-0.02,1.01,0,0,0,0.89,-0,-0.01,0.45
1697353241.43,0.01,-0.02,1.01,0,0,0,0.89,-0,-0.01,0.45
1697353241.44,0.01,-0.02,1.01,0,0,0,0.89,-0,-0.01,0.45
1697353241.45,0.01,-0.02,1.01,0,0,0,0.89,-0,-0.01,0.45
1697353241.46,0.01,-0.02,1.01,0,0,0,0.89,-0,-0.01,0.45
1697353241.47,0.01,-0.02,1.01,0,0,0,0.89,-0,-0.01,0.45
1697353241.48,0.01,-0.02,1.01,0,0,0,0.89,-0,-0.01,0.45
1697353241.49,0.01,-0.02,1.01,0,0,0,0.89,-0,-0.01,0.45
1697353241.5,0.01,-0.02,1.01,0,0,0,0.89,-0,-0.01,0.45
1697353241.51,0.01,-0.02,1.01,0,0,0,0.89,-0,-0.01,0.45
1697353241.52,0.01,-0.02,1.01,0,0,0,0.89,-0,-0.01,0.45
1697353241.53,0.01,-0.02,1.01,0,0,0,0.89,-0,-0.01,0.45
1697353241.54,0.01,-0.02,1.01,0,0,0,0.89,-0,-0.01,0.45
1697353241.55,0.01,-0.02,1.01,0,0,0,0.89,-0,-0.01,0.45
1697353241.56,0.01,-0.02,1.01,0,0,0,0.89,-0,-0.01,0.45
1697353241.57,0.01,-0.02,1,0,0,0,0.89,-0,-0.01,0.45
1697353241.58,0.01,-0.02,1,0,0,0,0.89,-0,-0.01,0.45
1697353241.59,0.01,-0.02,1.01,0,0,0.1,0.89,-0,-0.01,0.45
1697353241.6,0.01,-0.03,1,0,-0.1,0,0.89,-0,-0.01,0.45
1697353241.61,0.01,-0.03,1,-0.1,0,0,0.89,-0,-0.01,0.45
1697353241.62,0.01,-0.03,1.01,0.1,0,0,0.89,-0,-0.01,0.45
1697353241.63,0.01,-0.02,1.01,0,0.1,0,0.89,-0,-0.01,0.45
1697353241.64,0.01,-0.01,1.01,0,0.1,0,0.89,-0,-0.01,0.45
1697353241.65,0.01,-0.01,1.01,0,0,0,0.89,-0,-0.01,0.45
1697353241.66,0.01,-0.01,0.98,0,0,-0.1,0.89,-0,-0.01,0.45
1697353241.67,0.01,-0.02,1.01,0,0,0,0.89,-0,-0.01,0.45
1697353241.68,0.01,-0.02,1.01,0,0,0,0.89,-0,-0.01,0.45
1697353241.69,0.01,-0.02,1.01,0,0,0,0.89,-0,-0.01,0.45
1697353241.7,0.01,-0.02,1.01,0,0,0,0.89,-0,-0.01,0.45
1697353241.71,0.01,-0.01,1,0,0,0,0.89,-0,-0.01,0.45
1697353241.72,0.01,-0.01,1,0,0,0,0.89,-0,-0.01,0.45
1697353241.73,0.02,-0.04,1.01,0,0.1,0,0.89,-0,-0.01,0.45
1697353241.74,0.01,-0.03,1,-0.1,0.1,0,0.89,-0,-0.01,0.45
1697353241.75,0.02,-0.03,0.99,0,0.1,0,0.89,-0,-0.01,0.45
1697353241.76,0.01,-0.02,0.98,0,0.1,0,0.89,-0,-0.01,0.45
1697353241.77,0,-0.01,1,0,0,0,0.89,-0,-0.01,0.45
1697353241.78,0,-0.01,1,0,0,0,0.89,-0,-0.01,0.45
1697353241.79,0,-0.01,1.01,0,0,0,0.89,-0,-0.01,0.45
1697353241.8,0.03,-0.02,0.98,0,0,0,0.89,-0,-0.01,0.45
1697353241.81,0.02,-0.01,0.98,0,0,-0.1,0.89,-0,-0.01,0.45
1697353241.82,0.01,-0.01,0.97,0,0.1,0,0.89,-0,-0.01,0.45
1697353241.83,0,-0.01,0.98,0,0.1,0,0.89,-0,-0.01,0.45
1697353241.84,0,-0.01,1,0,0.1,0,0.89,-0,-0.01,0.45
1697353241.85,0.01,-0.01,0.99,0,0,0,0.89,-0,-0.01,0.45
1697353241.86,0.01,-0.02,1,0,0.1,0,0.89,-0,-0.01,0.45
1697353241.87,0.02,-0.03,1,0,0,0,0.89,-0,-0.01,0.45
1697353241.88,0.01,-0.03,1.02,0,0,0,0.89,-0,-0.01,0.45
1697353241.89,0.01,-0.03,1.01,0,-0.1,0,0.89,-0,-0.01,0.45
1697353241.9,0.01,-0.03,0.99,0,-0.1,0,0.89,-0,-0.01,0.45
1697353241.91,0.01,-0.03,0.99,0,-0.1,0,0.89,-0,-0.01,0.45
1697353241.92,0.01,-0.01,1,0,-0.1,0,0.89,-0,-0.01,0.45
1697353241.93,0.01,-0.01,1.02,0,-0.1,0,0.89,-0,-0.01,0.45
1697353241.94,0.02,-0.03,1.02,0,0,0,0.89,-0,-0.01,0.45
1697353241.95,0.02,-0.03,1.02,0,0,0,0.89,-0,-0.01,0.45
1697353241.96,0.02,-0.03,1,0,0,0,0.89,-0,-0.01,0.45
1697353241.97,0.02,-0.03,1,0,0,0,0.89,-0,-0.01,0.45
1697353241.98,0.02,-0.03,1,0,0,0,0.89,-0,-0.01,0.45
1697353241.99,0.02,-0.03,1,0,0,0,0.89,-0,-0.01,0.45
1697353242,0.02,-0.03,1,0,0,0,0.89,-0,-0.01,0.45
1697353242.01,0.02,-0.03,1,0,0,0,0.89,-0,-0.01,0.45
1697353242.02,0.02,-0.03,1,0,0,0,0.89,-0,-0.01,0.45
1697353242.03,0.02,-0.03,1,0,0,0,0.89,-0,-0.01,0.45
1697353242.04,0.02,-0.03,1,0,0,0,0.89,-0,-0.01,0.45
1697353242.05,0.02,-0.03,1,0,0,0,0.89,-0,-0.01,0.45
1697353242.06,0.02,-0.03,1,0,0,0,0.89,-0,-0.01,0.45
1697353242.07,0.02,-0.03,1,0,0,0,0.89,-0,-0.01,0.45
1697353242.08,0.02,-0.03,1,0,0,0,0.89,-0,-0.01,0.45
1697353242.09,0.01,-0.03,1,0,0,0,0.89,-0.01,-0.01,0.45
1697353242.1,0.01,-0.03,0.98,0,-0.1,0,0.89,-0.01,-0.01,0.45
1697353242.11,0.01,-0.02,0.97,0,0,0,0.89,-0.01,-0.01,0.45
1697353242.12,0.01,-0.02,0.99,0,0,0,0.89,-0.01,-0.01,0.45
1697353242.13,0.02,-0.03,1.01,0,0,0,0.89,-0.01,-0.01,0.45
1697353242.14,0.02,-0.03,1.01,0,0,0,0.89,-0.01,-0.01,0.45
1697353242.15,0.02,-0.03,1,0,0.1,0,0.89,-0.01,-0.01,0.45
1697353242.16,0.02,-0.02,0.98,0,0,0,0.89,-0.01,-0.01,0.45
1697353242.17,0.01,-0.01,0.97,0.1,0.1,0,0.89,-0.01,-0.01,0.45
1697353242.18,-0,-0.02,0.98,0.1,0.1,0,0.89,-0.01,-0.01,0.45
1697353242.19,-0,-0.02,1.01,0,0,0,0.89,-0.01,-0.01,0.45
1697353242.2,-0,-0.02,1.02,0.1,0,0,0.89,-0.01,-0.01,0.45
1697353242.21,0.02,-0.03,1,0,-0.1,0,0.89,-0.01,-0.01,0.45
1697353242.22,0.02,-0.02,0.99,0,0,-0.1,0.89,-0.01,-0.01,0.45
1697353242.23,0.02,-0.01,0.98,0,0,0,0.89,-0.01,-0.01,0.45
1697353242.24,0.02,-0.01,0.96,0,0,0,0.89,-0.01,-0.01,0.45
1697353242.25,0.01,-0.01,0.98,0,0,0,0.89,-0.01,-0.01,0.45
1697353242.26,0,-0.02,1.01,0,0.1,0.1,0.89,-0.01,-0.01,0.45
1697353242.27,0.01,-0.03,1.02,0,0.1,0.1,0.89,-0.01,-0.01,0.45
1697353242.28,0.02,-0.02,1.02,0,0.1,0.1,0.89,-0.01,-0.01,0.45
1697353242.29,0.01,-0.03,1.04,0,0,0,0.89,-0.01,-0.01,0.45
1697353242.3,0.01,-0.01,0.95,0,0,0,0.89,-0.01,-0.01,0.45
1697353242.31,0.01,-0.01,0.95,0,0,0,0.89,-0.01,-0.01,0.45
1697353242.32,0,-0.02,1.01,-0.1,0,0,0.89,-0.01,-0.01,0.45
1697353242.33,0,-0.02,1.01,0,-0.1,-0.1,0.89,-0.01,-0.01,0.45
1697353242.34,0.02,-0.03,1,0,0,0,0.89,-0.01,-0.01,0.45
1697353242.35,0.02,-0.04,1.01,0,-0.1,-0.1,0.89,-0.01,-0.01,0.45
1697353242.36,0.03,-0.04,0.99,0,0,0,0.89,-0.01,-0.01,0.45
1697353242.37,0.03,-0.03,0.98,0,0.1,0,0.89,-0.01,-0.01,0.45
1697353242.38,0.01,-0,1,0,0.1,0,0.89,-0.01,-0.01,0.45
1697353242.39,0.01,-0,1,0,0.2,0.1,0.89,-0.01,-0.01,0.45
1697353242.4,0.01,-0.02,1,0,0.2,0.1,0.89,-0.01,-0.01,0.45
1697353242.41,0.01,-0.02,0.99,0,0,0.1,0.89,-0.01,-0.01,0.45
1697353242.42,0.01,-0.04,1.01,0,0,0,0.89,-0.01,-0.01,0.45
1697353242.43,0.01,-0.04,1.01,0,0,0,0.89,-0.01,-0.01,0.45
1697353242.44,0,-0.03,1,0,0,0,0.89,-0.01,-0.01,0.45
1697353242.45,0.01,-0.01,0.99,0,-0.2,-0.1,0.89,-0.01,-0.01,0.45
1697353242.46,0.01,-0,0.99,0,0,0,0.89,-0.01,-0.01,0.45
1697353242.47,0.03,-0.01,0.99,0,0,0,0.89,-0.01,-0.01,0.45
1697353242.48,0.03,-0.02,0.98,0,0,0,0.89,-0.01,-0.01,0.45
1697353242.49,0.03,-0.02,0.98,0,0.1,0,0.89,-0.01,-0.01,0.45
1697353242.5,0.03,-0.02,0.98,0,0.1,0,0.89,-0.01,-0.01,0.45
1697353242.51,0.03,-0.02,0.98,0,0.1,0,0.89,-0.01,-0.01,0.45
1697353242.52,0.03,-0.02,0.98,0,0.1,0,0.89,-0.01,-0.01,0.45
1697353242.53,0.03,-0.02,0.98,0,0.1,0,0.89,-0.01,-0.01,0.45
1697353242.54,0.03,-0.02,0.98,0,0.1,0,0.89,-0.01,-0.01,0.45
1697353242.55,0.03,-0.02,0.98,0,0.1,0,0.89,-0.01,-0.01,0.45
1697353242.56,0.03,-0.02,0.98,0,0.1,0,0.89,-0.01,-0.01,0.45
1697353242.57,0.03,-0.02,0.98,0,0.1,0,0.89,-0.01,-0.01,0.45
1697353242.58,0.03,-0.02,0.98,0,0.1,0,0.89,-0.01,-0.01,0.45
1697353242.59,0.03,-0.02,0.98,0,0.1,0,0.89,-0.01,-0.01,0.45
1697353242.6,0.03,-0.02,0.98,0,0.1,0,0.89,-0.01,-0.01,0.45
1697353242.61,0.03,-0.02,0.98,0,0.1,0,0.89,-0.01,-0.01,0.45
1697353242.62,0.03,-0.02,0.98,0,0.1,0,0.89,-0.01,-0.01,0.45
1697353242.63,0.03,-0.02,0.98,0,0.1,0,0.89,-0.01,-0.01,0.45
1697353242.64,0,-0.02,0.99,0,0.1,0,0.89,-0.01,-0.01,0.45
1697353242.65,0,-0.02,0.99,0,0.1,0,0.89,-0.01,-0.01,0.45
1697353242.66,0,-0.02,1.1,0,0.1,0,0.89,-0.01,-0.01,0.45
1697353242.67,0.05,0.01,0.84,0,0,-0.1,0.89,-0.01,-0.01,0.45
1697353242.68,0.01,-0.01,1.08,0,0.1,0,0.89,-0.01,-0.01,0.45
1697353242.69,0.03,0.11,1.01,-0.2,0,0,0.89,-0.01,-0.01,0.45
1697353242.7,-0.04,-0.04,0.97,0,-0.1,0.1,0.89,-0.01,-0.01,0.45
1697353242.71,-0.01,-0.03,1.13,0,-0.1,0.2,0.89,-0.01,-0.01,0.45
1697353242.72,0.01,-0.01,0.92,0,-0.1,0,0.89,-0.01,-0.01,0.45
1697353242.73,0.02,-0.03,0.93,0,-0.1,0.1,0.89,-0.01,-0.01,0.45
1697353242.74,0.02,-0.03,0.93,0,0,0,0.89,-0.01,-0.01,0.45
1697353242.75,0.03,-0.03,0.94,0,0,0.1,0.89,-0.01,-0.01,0.45
1697353242.76,0.01,-0.03,0.99,-0.1,0,0,0.89,-0.01,-0.01,0.45
1697353242.77,0.01,-0.03,1.03,0,0,0,0.89,-0.01,-0.01,0.45
1697353242.78,0.01,-0.02,1,-0.1,0,0,0.89,-0.01,-0.01,0.45
1697353242.79,0.02,-0.01,0.99,0,0,0,0.89,-0.01,-0.01,0.45
1697353242.8,0.03,0.01,1,0.1,0,-0.1,0.89,-0.01,-0.01,0.45
1697353242.81,-0.07,-0.02,1.05,0,-0.1,0,0.89,-0.01,-0.01,0.45
1697353242.82,-0.01,-0.02,1.05,0,-0.1,0,0.89,-0.01,-0.01,0.45
1697353242.83,0.01,-0.02,1.05,0,0,0,0.89,-0.01,-0.01,0.45
1697353242.84,0.02,-0.03,1.02,0,0,0,0.89,-0.01,-0.01,0.45
1697353242.85,0.04,-0.02,0.99,0.1,0,0.1,0.89,-0.01,-0.01,0.45
1697353242.86,0.02,-0.03,1.01,0,0.1,0.1,0.89,-0.01,-0.01,0.45
1697353242.87,0.03,-0.03,0.96,-0.1,0,0,0.89,-0.01,-0.01,0.45
1697353242.88,0.04,-0.01,0.96,0.1,0,0.1,0.89,-0.01,-0.01,0.45
1697353242.89,0.01,-0.14,0.94,0,0,0,0.89,-0.01,-0.01,0.45
1697353242.9,0.06,0.01,0.92,0,0,-0.1,0.89,-0.01,-0.01,0.45
1697353242.91,0.06,0.01,0.92,0,0,-0.1,0.89,-0.01,-0.01,0.45
1697353242.92,0.03,-0.03,0.98,0,0,0,0.89,-0.01,-0.01,0.45
1697353242.93,0.04,-0.02,0.95,0,0,0,0.89,-0.01,-0.01,0.45
1697353242.94,0.01,-0.01,0.97,-0.2,0.1,0.1,0.89,-0.01,-0.01,0.45
1697353242.95,0.01,-0.02,1.02,0,0,0,0.89,-0.01,-0.01,0.45
1697353242.96,0.01,-0.02,1.02,0,0,0,0.89,-0.01,-0.01,0.45
1697353242.97,0,-0.02,1,0,-0.1,0,0.89,-0.01,-0.01,0.45
1697353242.98,0,-0.02,1,0,-0.1,0,0.89,-0.01,-0.01,0.45
1697353242.99,0.01,-0.03,0.99,0,0,0,0.89,-0.01,-0.01,0.45
1697353243,0.01,-0.03,0.99,0,0,0,0.89,-0.01,-0.01,0.45
1697353243.01,0.01,-0.02,0.99,0,0,-0.1,0.89,-0.01,-0.01,0.45
1697353243.02,0.05,0.01,0.96,0,0,0,0.89,-0.01,-0.01,0.45
1697353243.03,0.05,0.01,0.96,0,0,0,0.89,-0.01,-0.01,0.45
1697353243.04,0.05,0.01,0.96,0,0,0,0.89,-0.01,-0.01,0.45
1697353243.05,0.05,0.01,0.96,0,0,0,0.89,-0.01,-0.01,0.45
1697353243.06,0.05,0.01,0.96,0,0,0,0.89,-0.01,-0.01,0.45
1697353243.07,0.05,0.01,0.96,0,0,0,0.89,-0.01,-0.01,0.45
1697353243.08,0.05,0.01,0.96,0,0,0,0.89,-0.01,-0.01,0.45
1697353243.09,0.05,0.01,0.96,0,0,0,0.89,-0.01,-0.01,0.45
1697353243.1,0.05,0.01,0.96,0,0,0,0.89,-0.01,-0.01,0.45
1697353243.11,0.05,0.01,0.96,0,0,0,0.89,-0.01,-0.01,0.45
1697353243.12,0.05,0.01,0.96,0,0,0,0.89,-0.01,-0.01,0.45
1697353243.13,0.05,0.01,0.96,0,0,0,0.89,-0.01,-0.01,0.45
1697353243.14,0.05,0.01,0.96,0,0,0,0.89,-0.01,-0.01,0.45
1697353243.15,0.05,0.01,0.96,0,0,0,0.89,-0.01,-0.01,0.45
1697353243.16,0.05,0.01,0.96,0,0,0,0.89,-0.01,-0.01,0.45
1697353243.17,0.05,0.01,0.96,0,0.1,0.1,0.89,-0.01,-0.01,0.45
1697353243.18,0.01,-0.03,1.02,0,0,0,0.89,-0.01,-0.01,0.45
1697353243.19,0.01,-0.03,1.01,0.1,0,0,0.89,-0.01,-0.01,0.45
1697353243.2,0.03,-0.02,0.98,0,0,0,0.89,-0.01,-0.01,0.45
1697353243.21,0.04,-0.02,0.95,0,0,-0.1,0.89,-0.01,-0.01,0.45
1697353243.22,0.01,-0.01,1,0.1,0,0,0.89,-0.01,-0.01,0.45
1697353243.23,0.09,0.01,1.03,0.1,0,0,0.89,-0.01,-0.01,0.45
1697353243.24,0.19,0.01,0.97,0,-0.1,0,0.89,-0.01,-0.01,0.45
1697353243.25,0.2,-0,1.09,-0.1,-0.5,0.1,0.89,-0.01,-0.01,0.45
1697353243.26,0.31,-0.03,1.01,0,-0.8,0.3,0.89,-0.01,-0.01,0.45
1697353243.27,0.34,0.01,1.05,-0.1,-1.2,0.5,0.89,-0.01,-0.01,0.45
1697353243.28,0.33,0.01,0.88,-0.1,-1.7,0.6,0.89,-0.01,-0.01,0.45
1697353243.29,0.23,0.01,0.9,0.1,-1.8,0.6,0.89,-0.01,-0.01,0.45
1697353243.3,0.16,-0.01,0.99,0.2,-1.6,0.8,0.89,-0.01,-0.01,0.45
1697353243.31,0.08,0.01,1.01,0.4,-1.2,0.7,0.89,-0,-0.01,0.45
1697353243.32,0.05,-0.03,1.12,0.3,-0.5,0.7,0.89,-0,-0.01,0.45
1697353243.33,0.09,-0.02,0.99,0,0.2,0.6,0.89,-0,-0.01,0.45
1697353243.34,0.12,0.01,1,0,0.6,0.4,0.89,-0,-0.01,0.45
1697353243.35,0.18,-0.01,0.95,0,0.6,0.4,0.89,-0,-0.01,0.45
1697353243.36,0.18,-0.01,0.95,0,0.6,0.4,0.89,-0,-0.01,0.45
1697353243.37,0.25,-0.01,0.96,0.2,0.3,0.6,0.89,-0,-0.01,0.45
1697353243.38,0.25,-0.01,0.96,0.2,0.3,0.6,0.89,-0,-0.01,0.45
1697353243.39,0.22,-0.02,0.99,0,0,0.7,0.89,-0,-0.01,0.45
1697353243.4,0.2,-0.01,0.95,0.1,-0.4,0.8,0.89,-0,-0.01,0.45
1697353243.41,0.13,-0,0.98,0,-0.5,1,0.89,-0,-0.01,0.45
1697353243.42,0.09,0,1,0,-0.3,1.2,0.89,-0,-0.01,0.45
1697353243.43,0.07,0.01,1.02,0.2,0.2,1.5,0.89,-0,-0.01,0.45
1697353243.44,0.09,-0.01,1.05,0.4,0.5,1.5,0.89,-0,-0.01,0.45
1697353243.45,0.13,-0.01,1.04,0.1,0.7,1.6,0.89,-0,-0.01,0.45
1697353243.46,0.16,-0.02,1.05,0.1,0.6,1.5,0.89,-0,-0.01,0.45
1697353243.47,0.18,-0.01,1.02,0.1,0.4,1.5,0.89,-0,-0.01,0.45
1697353243.48,0.18,-0.02,1.02,0.1,0,1.5,0.89,-0,-0.01,0.45
1697353243.49,0.16,-0.01,1.01,0.1,0,1.5,0.89,-0,-0.01,0.45
1697353243.5,0.14,-0.01,0.97,0.2,0,1.5,0.89,-0,-0.01,0.45
1697353243.51,0.1,-0.01,0.98,0.4,0.1,1.6,0.89,-0,-0.01,0.45
1697353243.52,0.07,0,0.98,0.2,0.4,1.7,0.89,-0,-0.01,0.45
1697353243.53,0.04,0,1,0.1,0.7,1.8,0.89,-0,-0.01,0.45
1697353243.54,0.05,0.01,0.98,0.1,0.8,2.1,0.89,-0,-0.01,0.45
1697353243.55,0.05,0.01,0.98,0.1,0.8,2.1,0.89,-0,-0.01,0.45
1697353243.56,0.05,0.01,0.98,0.1,0.8,2.1,0.89,-0,-0.01,0.45
1697353243.57,0.05,0.01,0.98,0.1,0.8,2.1,0.89,-0,-0.01,0.45
1697353243.58,0.05,0.01,0.98,0.1,0.8,2.1,0.89,-0,-0.01,0.45
1697353243.59,0.05,0.01,0.98,0.1,0.8,2.1,0.89,-0,-0.01,0.45
1697353243.6,0.05,0.01,0.98,0.1,0.8,2.1,0.89,-0,-0.01,0.45
1697353243.61,0.05,0.01,0.98,0.1,0.8,2.1,0.89,-0,-0.01,0.45
1697353243.62,0.05,0.01,0.98,0.1,0.8,2.1,0.89,-0,-0.01,0.45
1697353243.63,0.05,0.01,0.98,0.1,0.8,2.1,0.89,-0,-0.01,0.45
1697353243.64,0.05,0.01,0.98,0.1,0.8,2.1,0.89,-0,-0.01,0.45
1697353243.65,0.05,0.01,0.98,0.1,0.8,2.1,0.89,-0,-0.01,0.45
1697353243.66,0.05,0.01,0.98,0.1,0.8,2.1,0.89,-0,-0.01,0.45
1697353243.67,0.05,0.01,0.98,0.1,0.8,2.1,0.89,-0,-0.01,0.45
1697353243.68,0.05,0.01,0.98,0.1,0.8,2.1,0.89,-0,-0.01,0.45
1697353243.69,0.13,0.01,0.96,0,0.1,3.9,0.89,-0,-0.01,0.46
1697353243.7,0.11,0,0.97,0,-0.2,4,0.89,-0,-0.01,0.46
1697353243.71,0.1,-0,0.95,0.1,-0.4,3.9,0.89,-0,-0.01,0.46
1697353243.72,0.06,0.01,0.96,0.2,-0.4,3.8,0.89,-0,-0.01,0.46
1697353243.73,0.06,-0.03,0.93,0.2,-0.4,3.9,0.89,-0,-0.01,0.46
1697353243.74,0.02,0.06,1.01,0.1,-0.1,4.6,0.89,-0,-0.01,0.46
1697353243.75,0.03,0,1.04,0,0.3,5.4,0.89,-0,-0.01,0.46
1697353243.76,0.04,-0.01,1.04,0.1,0.3,5.5,0.89,-0,-0.01,0.46
1697353243.77,0.07,0.01,1,0.1,0.6,5.4,0.89,-0,-0.01,0.46
1697353243.78,0.07,0.01,1,0.1,0.6,5.4,0.89,-0,-0.01,0.46
1697353243.79,0.09,0,0.96,0.1,0.4,5.2,0.89,-0,-0.01,0.46
1697353243.8,0.09,0,0.96,0.1,0.4,5.2,0.89,-0,-0.01,0.46
1697353243.81,0.03,0.01,0.98,0.4,0,5.2,0.89,-0,-0.01,0.46
1697353243.82,0.03,0.03,0.94,0.2,0,5.5,0.89,-0,-0.01,0.46
1697353243.83,0,0.02,0.96,0.2,0.1,5.6,0.89,-0,-0.01,0.46
1697353243.84,0,0.02,0.96,0.2,0.1,5.6,0.89,-0,-0.01,0.46
1697353243.85,-0.03,0,1,0.1,0.4,6.2,0.89,-0,-0.01,0.46
1697353243.86,-0.03,0,1,0.1,0.4,6.2,0.89,-0,-0.01,0.46
1697353243.87,-0.01,-0.02,1.02,0,0.4,6.5,0.89,-0,-0.01,0.47
1697353243.88,0.01,-0.03,1.03,0,0.3,6.4,0.88,-0,-0.01,0.47
1697353243.89,0.04,-0.04,0.99,0.1,0.1,6.2,0.88,-0,-0.01,0.47
1697353243.9,0.05,-0.02,0.99,0,0,5.8,0.88,-0,-0.01,0.47
1697353243.91,0.06,-0.01,1,0.1,-0.2,5.4,0.88,-0,-0.01,0.47
1697353243.92,0.04,0,1.02,0,-0.3,5,0.88,-0,-0.01,0.47
1697353243.93,0.04,0.01,1.02,0,-0.3,5,0.88,-0,-0.01,0.47
1697353243.94,0.02,0.01,0.99,0.2,-0.3,4.9,0.88,-0,-0.01,0.47
1697353243.95,0.01,0.04,0.99,0,-0.1,5.5,0.88,-0,-0.01,0.47
1697353243.96,0.01,0.04,0.99,0,-0.1,5.5,0.88,-0,-0.01,0.47
1697353243.97,0,0.02,0.98,0.2,0,5.8,0.88,-0,-0.01,0.47
1697353243.98,0,-0.01,1,-0.1,0.2,6.5,0.88,-0,-0.01,0.47
1697353243.99,0.04,-0.01,1.03,0.1,0.4,6.8,0.88,-0,-0.01,0.47
1697353244,0.05,-0.03,1.04,0.1,0.4,7.2,0.88,-0,-0.01,0.47
1697353244.01,0.08,-0.02,1.02,0.2,0.3,7.2,0.88,-0,-0.01,0.47
1697353244.02,0.1,-0.03,1.01,0.3,0,7,0.88,-0,-0.01,0.47
1697353244.03,0.11,-0.03,0.99,0.2,-0.1,6.8,0.88,-0,-0.01,0.47
1697353244.04,0.1,0.07,0.98,0.5,-0.1,6.5,0.88,-0,-0.01,0.47
1697353244.05,0.08,0.02,0.96,0.4,-0.3,6.8,0.88,-0,-0.01,0.47
1697353244.06,0.05,0.04,1,1,-0.3,6.6,0.88,-0,-0.01,0.47
1697353244.07,0.07,-0,1.03,0.3,0,7.2,0.88,-0,-0.01,0.48
1697353244.08,0.07,-0,1.03,0.3,0,7.2,0.88,-0,-0.01,0.48
1697353244.09,0.07,-0,1.03,0.3,0,7.2,0.88,-0,-0.01,0.48
1697353244.1,0.07,-0,1.03,0.3,0,7.2,0.88,-0,-0.01,0.48
1697353244.11,0.07,-0,1.03,0.3,0,7.2,0.88,-0,-0.01,0.48
1697353244.12,0.07,-0,1.03,0.3,0,7.2,0.88,-0,-0.01,0.48
1697353244.13,0.07,-0,1.03,0.3,0,7.2,0.88,-0,-0.01,0.48
1697353244.14,0.07,-0,1.03,0.3,0,7.2,0.88,-0,-0.01,0.48
1697353244.15,0.07,-0,1.03,0.3,0,7.2,0.88,-0,-0.01,0.48
1697353244.16,0.07,-0,1.03,0.3,0,7.2,0.88,-0,-0.01,0.48
1697353244.17,0.07,-0,1.03,0.3,0,7.2,0.88,-0,-0.01,0.48
1697353244.18,0.07,-0,1.03,0.3,0,7.2,0.88,-0,-0.01,0.48
1697353244.19,0.07,-0,1.03,0.3,0,7.2,0.88,-0,-0.01,0.48
1697353244.2,0.07,-0,1.03,0.3,0,7.2,0.88,-0,-0.01,0.48
1697353244.21,0.17,0.06,0.94,0.1,0.1,9.7,0.88,-0,-0.01,0.48
1697353244.22,0.18,-0.06,1.03,0.1,0.1,10,0.87,-0,-0.01,0.48
1697353244.23,0.17,0.09,0.99,0.2,-0.1,10,0.87,-0,-0.01,0.49
1697353244.24,0.19,0.01,0.99,0.2,-0.1,10,0.87,-0,-0.01,0.49
1697353244.25,0.21,-0.02,0.95,0.5,0,10.4,0.87,-0,-0.01,0.49
1697353244.26,0.21,-0.02,0.95,0.5,0,10.4,0.87,-0,-0.01,0.49
1697353244.27,0.14,0.05,1.08,0.2,0,11.4,0.87,-0,-0.01,0.49
1697353244.28,0.14,0.05,1.08,0.2,0,11.4,0.87,-0,-0.01,0.49
1697353244.29,0.17,0.08,0.91,0.6,0.1,10.9,0.87,-0,-0.01,0.49
1697353244.3,0.16,0.08,1.1,-0.2,0.1,12.2,0.87,-0,-0.01,0.49
1697353244.31,0.1,0.13,1.07,0,0.2,12,0.87,-0,-0.01,0.49
1697353244.32,0.2,0.04,0.92,0.2,0.4,12,0.87,-0,-0.01,0.49
1697353244.33,0.14,0.02,0.98,0,0.4,12.6,0.87,-0,-0.01,0.49
1697353244.34,0.18,0.03,0.97,-0.2,0.4,13,0.87,-0,-0.01,0.5
1697353244.35,0.15,0.1,0.98,0.3,0.3,12.9,0.87,-0,-0.01,0.5
1697353244.36,0.2,-0.01,1.01,-0.3,0.2,13.6,0.87,-0,-0.01,0.5
1697353244.37,0.19,0.04,0.88,0.4,0,13.2,0.87,-0,-0.01,0.5
1697353244.38,0.11,0.05,1.13,-0.2,0.1,13.6,0.87,-0,-0.01,0.5
1697353244.39,0.2,0.07,0.83,-0.2,0,13.7,0.87,-0,-0.01,0.5
1697353244.4,0.12,0.07,1.03,-0.1,0,13.8,0.86,-0,-0.01,0.5
1697353244.41,0.12,0,1.06,0,0.2,14.2,0.86,-0,-0.01,0.5
1697353244.42,0.12,0.03,0.99,0.2,0.2,14.4,0.86,-0,-0.01,0.5
1697353244.43,0.15,0.01,0.98,0,0.3,14.5,0.86,-0,-0.01,0.51
1697353244.44,0.12,0.04,1.1,-0.1,0.4,14.7,0.86,-0,-0.01,0.51
1697353244.45,0.13,0.05,0.96,-0.5,0.4,14.8,0.86,-0,-0.01,0.51
1697353244.46,0.15,0.06,0.98,-0.1,0.4,15.1,0.86,0,-0.01,0.51
1697353244.47,0.14,0.07,0.9,0.1,0.5,15.2,0.86,0,-0.01,0.51
1697353244.48,0.15,0.04,0.92,0.1,0.5,15.2,0.86,0,-0.01,0.51
1697353244.49,0.15,0.04,0.92,0,0.4,15.4,0.86,0,-0.01,0.51
1697353244.5,0.11,0.04,1,0,0.4,15.6,0.86,0,-0.01,0.51
1697353244.51,0.07,0.04,0.99,-0.1,0.3,16.3,0.86,0,-0.01,0.51
1697353244.52,0.06,0.04,1,-0.4,0.5,16.4,0.86,0,-0.01,0.51
1697353244.53,0.05,0.03,0.99,-0.1,0.6,16.5,0.86,0,-0.01,0.52
1697353244.54,0.05,0.04,1.02,0,0.7,16.6,0.85,0,-0.01,0.52
1697353244.55,0.03,0.03,1.04,0,0.7,16.7,0.85,0,-0.01,0.52
1697353244.56,0.04,0.03,0.95,0,0.7,16.7,0.85,0,-0.01,0.52
1697353244.57,0.03,0.02,1,-0.1,0.8,16.7,0.85,0,-0.01,0.52
1697353244.58,0.03,0.02,1,0,0.8,16.7,0.85,0,-0.01,0.52
1697353244.59,0.02,0.01,0.96,-0.2,1,16.9,0.85,0,-0.01,0.52
1697353244.6,-0.01,0.01,1.05,-0.1,1,16.8,0.85,0,-0.01,0.52
1697353244.61,-0.01,0.04,1.04,-0.1,0.9,16.8,0.85,0,-0.01,0.53
1697353244.62,-0.01,0.04,1.04,-0.1,0.9,16.8,0.85,0,-0.01,0.53
1697353244.63,-0.01,0.04,1.04,-0.1,0.9,16.8,0.85,0,-0.01,0.53
1697353244.64,-0.01,0.04,1.04,-0.1,0.9,16.8,0.85,0,-0.01,0.53
1697353244.65,-0.01,0.04,1.04,-0.1,0.9,16.8,0.85,0,-0.01,0.53
1697353244.66,-0.01,0.04,1.04,-0.1,0.9,16.8,0.85,0,-0.01,0.53
1697353244.67,-0.01,0.04,1.04,-0.1,0.9,16.8,0.85,0,-0.01,0.53
1697353244.68,-0.01,0.04,1.04,-0.1,0.9,16.8,0.85,0,-0.01,0.53
1697353244.69,-0.01,0.04,1.04,-0.1,0.9,16.8,0.85,0,-0.01,0.53
1697353244.7,-0.01,0.04,1.04,-0.1,0.9,16.8,0.85,0,-0.01,0.53
1697353244.71,-0.01,0.04,1.04,-0.1,0.9,16.8,0.85,0,-0.01,0.53
1697353244.72,-0.01,0.04,1.04,-0.1,0.9,16.8,0.85,0,-0.01,0.53
1697353244.73,-0.01,0.04,1.04,-0.1,0.9,16.8,0.85,0,-0.01,0.53
1697353244.74,-0.01,0.04,1.04,-0.1,0.9,16.8,0.85,0,-0.01,0.53
1697353244.75,-0.01,0.04,1.04,-0.1,0.9,16.8,0.85,0,-0.01,0.53
1697353244.76,-0.01,0.04,1.04,-0.1,0.9,16.8,0.85,0,-0.01,0.53
1697353244.77,-0.01,0.04,1.04,-0.1,0.9,16.8,0.85,0,-0.01,0.53
1697353244.78,-0.01,0.04,1.04,-0.1,0.9,16.8,0.85,0,-0.01,0.53
1697353244.79,-0.01,0.04,1.04,-0.1,0.9,16.8,0.85,0,-0.01,0.53
1697353244.8,-0.01,0.04,1.04,-0.1,0.9,16.8,0.85,0,-0.01,0.53
1697353244.81,-0.01,0.04,1.04,-0.1,0.9,16.8,0.85,0,-0.01,0.53
1697353244.82,-0.05,0.01,0.97,0.3,-0.2,16.2,0.83,-0,-0.01,0.55
1697353244.83,-0.05,0.01,0.97,0.3,-0.2,16.2,0.83,-0,-0.01,0.55
1697353244.84,-0.05,0.03,1.02,0.1,0,16.3,0.83,-0,-0.01,0.55
1697353244.85,-0.1,0.01,1.06,0.1,-0.2,16.5,0.83,-0,-0.01,0.55
1697353244.86,-0.07,-0,0.98,0.2,-0.2,16.4,0.83,-0,-0.01,0.56
1697353244.87,-0.04,0,0.98,0.1,-0.1,16.6,0.83,-0,-0.01,0.56
1697353244.88,-0.07,0.02,1.01,0.1,-0.1,16.6,0.83,-0,-0.01,0.56
1697353244.89,-0.07,0.02,1.01,0,-0.3,16.5,0.83,-0,-0.01,0.56
1697353244.9,-0.07,0.02,1,-0.1,-0.1,16.4,0.83,-0,-0.01,0.56
1697353244.91,-0.07,0.02,1,-0.1,-0.1,16.4,0.83,-0,-0.01,0.56
1697353244.92,-0.06,0,0.99,0.3,0,16,0.83,-0,-0.01,0.56
1697353244.93,-0.07,0,0.95,0.3,-0.1,16,0.83,-0,-0.01,0.56
1697353244.94,-0.07,0.01,1.02,0.3,-0.1,15.9,0.82,-0,-0.01,0.57
1697353244.95,-0.05,-0.01,1.02,0.2,0,15.8,0.82,-0,-0.01,0.57
1697353244.96,-0.05,-0.01,1.02,0.2,0,15.8,0.82,-0,-0.01,0.57
1697353244.97,0.01,0.02,0.99,0.1,-0.1,15.8,0.82,-0,-0.01,0.57
1697353244.98,-0.03,-0.01,0.89,0.2,-0.2,15.8,0.82,-0,-0.01,0.57
1697353244.99,-0.09,0.01,1.06,0.4,-0.3,15.7,0.82,-0,-0.01,0.57
1697353245,-0.06,-0.01,0.93,0.4,-0.3,15.7,0.82,-0,-0.01,0.57
1697353245.01,-0.03,0.02,1.01,0.3,-0.1,15.8,0.82,-0,-0.01,0.57
1697353245.02,-0.03,-0,1.04,0.3,-0.3,15.9,0.82,-0,-0.01,0.58
1697353245.03,0.02,0.03,0.96,0.4,-0.8,15.9,0.82,-0,-0.01,0.58
1697353245.04,0.15,-0.01,1.14,0.5,-1.3,15.9,0.82,-0,-0.01,0.58
1697353245.05,0.26,0.02,1.15,0.8,-1.8,15.6,0.82,-0,-0.01,0.58
1697353245.06,0.25,0.05,0.94,1.2,-2.2,15.3,0.81,-0,-0.01,0.58
1697353245.07,0.12,0.1,1.02,1.6,-1.8,15.2,0.81,-0,-0.01,0.58
1697353245.08,-0.02,0.11,1.01,2,-1.1,15.6,0.81,-0,-0.01,0.58
1697353245.09,-0.1,0.08,1,1.6,-0.1,16.8,0.81,-0,-0.01,0.58
1697353245.1,-0.14,0.08,1.06,1.2,0.6,17.8,0.81,-0,-0.01,0.58
1697353245.11,-0.1,0.06,1.08,0,1.2,18.8,0.81,-0,-0.01,0.59
1697353245.12,-0.09,-0.02,1.03,-0.5,1.7,19.3,0.81,-0,-0.01,0.59
1697353245.13,0.01,0.05,0.99,-0.6,1.5,19.5,0.81,-0,-0.01,0.59
1697353245.14,0.21,-0.04,1.05,0,0.6,19,0.81,-0,-0.01,0.59
1697353245.15,0.27,-0.02,0.95,0.8,-0.6,17.7,0.81,-0,-0.01,0.59
1697353245.16,0.32,-0.02,1.04,1.2,-1.5,16.7,0.81,-0,-0.01,0.59
1697353245.17,0.28,0.02,0.9,1.7,-2.3,15.6,0.8,-0,-0.01,0.59
1697353245.18,0.19,0.06,0.96,2.1,-2.4,15,0.8,-0,-0.01,0.59
1697353245.19,0.04,0.12,0.92,2.4,-1.9,15.1,0.8,0,-0.01,0.6
1697353245.2,-0.06,0.1,0.9,2.2,-1,16.4,0.8,0,-0.01,0.6
1697353245.21,-0.06,0.1,0.9,2.2,-1,16.4,0.8,0,-0.01,0.6
1697353245.22,-0.06,0.1,0.9,2.2,-1,16.4,0.8,0,-0.01,0.6
1697353245.23,-0.06,0.1,0.9,2.2,-1,16.4,0.8,0,-0.01,0.6
1697353245.24,-0.06,0.1,0.9,2.2,-1,16.4,0.8,0,-0.01,0.6
1697353245.25,-0.06,0.1,0.9,2.2,-1,16.4,0.8,0,-0.01,0.6
1697353245.26,-0.06,0.1,0.9,2.2,-1,16.4,0.8,0,-0.01,0.6
1697353245.27,-0.06,0.1,0.9,2.2,-1,16.4,0.8,0,-0.01,0.6
1697353245.28,-0.06,0.1,0.9,2.2,-1,16.4,0.8,0,-0.01,0.6
1697353245.29,-0.06,0.1,0.9,2.2,-1,16.4,0.8,0,-0.01,0.6
1697353245.3,-0.06,0.1,0.9,2.2,-1,16.4,0.8,0,-0.01,0.6
1697353245.31,-0.06,0.1,0.9,2.2,-1,16.4,0.8,0,-0.01,0.6
1697353245.32,-0.06,0.1,0.9,2.2,-1,16.4,0.8,0,-0.01,0.6
1697353245.33,-0.06,0.1,0.9,2.2,-1,16.4,0.8,0,-0.01,0.6
1697353245.34,-0.06,0.1,0.9,2.2,-1,16.4,0.8,0,-0.01,0.6
1697353245.35,-0.03,0.12,0.98,0.4,1,21.5,0.79,0,-0.01,0.62
1697353245.36,0.05,-0.02,1,0,1.1,22.8,0.79,0,-0.01,0.62
1697353245.37,0.12,0.03,1.02,0.1,0.8,22.6,0.78,0,-0.01,0.62
1697353245.38,0.15,-0.02,1.08,0.4,0.3,22,0.78,0,-0.01,0.62
1697353245.39,0.17,0.01,1.05,0.6,-0.5,20.9,0.78,0,-0.01,0.62
1697353245.4,0.12,0.04,1.05,0.7,-1.1,19.8,0.78,0,-0.01,0.62
1697353245.41,0.05,0.06,1.01,1.2,-1.4,19,0.78,0,-0.01,0.63
1697353245.42,-0.04,0.06,1.04,1.3,-1.2,18.7,0.78,0,-0.01,0.63
1697353245.43,-0.09,0.1,1.06,0.9,-0.9,19,0.78,0,-0.01,0.63
1697353245.44,-0.09,0.1,1.06,0.9,-0.9,19,0.78,0,-0.01,0.63
1697353245.45,-0.09,0.1,0.99,-0.1,0.5,21.4,0.78,0,-0.01,0.63
1697353245.46,-0.07,0.07,1.03,-0.1,0.5,21.4,0.78,0,-0.01,0.63
1697353245.47,0.02,0.03,0.96,-0.4,0.6,22.9,0.77,0,-0.01,0.63
1697353245.48,0.02,0.03,0.96,-0.4,0.6,22.9,0.77,0,-0.01,0.63
1697353245.49,0.13,0,1,0,-0.3,21.4,0.77,0,-0.01,0.64
1697353245.5,0.13,0,1,0,-0.3,21.4,0.77,0,-0.01,0.64
1697353245.51,0.17,0.06,0.92,1,-1.1,19.9,0.77,0,-0.01,0.64
1697353245.52,0.06,0.05,0.95,1,-1.1,19.9,0.77,0,-0.01,0.64
1697353245.53,-0.02,0.11,0.96,1.4,-0.4,20.3,0.77,0,-0.01,0.64
1697353245.54,-0.02,0.11,0.96,1.4,-0.4,20.3,0.77,0,-0.01,0.64
1697353245.55,-0.09,0.08,0.96,0.4,0.7,22.1,0.76,0,-0.01,0.65
1697353245.56,-0.09,0.06,1.04,0.4,0.7,22.1,0.76,0,-0.01,0.65
1697353245.57,-0.04,0.07,1.02,-0.6,1.7,23.6,0.76,0,-0.01,0.65
1697353245.58,-0.04,0.07,1.02,-0.6,1.7,23.6,0.76,0,-0.01,0.65
1697353245.59,0.07,0.05,0.99,-0.2,1.8,23.5,0.76,0,-0.01,0.65
1697353245.6,0.12,0,0.96,1.8,1.2,22.3,0.76,0,-0.01,0.65
1697353245.61,0.12,0,0.96,1.8,1.2,22.3,0.76,0,-0.01,0.65
1697353245.62,0.1,-0,0.99,2.5,0.6,21.3,0.76,0,-0.01,0.66
1697353245.63,0.1,-0,0.99,2.7,0.6,20.4,0.75,0,-0.01,0.66
1697353245.64,0.05,-0.03,0.97,2.8,0.6,19.8,0.75,0,-0.01,0.66
1697353245.65,-0.02,0.04,0.97,2.6,1,19.9,0.75,0,-0.01,0.66
1697353245.66,-0.07,-0.02,1.06,2,1.3,20.3,0.75,0,-0.01,0.66
1697353245.67,-0.09,0.1,1.08,1.3,1.5,21.3,0.75,0,-0.01,0.66
1697353245.68,-0.07,0.06,1.08,0.8,1.5,22.1,0.75,0,-0,0.66
1697353245.69,-0.06,0.07,1.05,0.6,1,22.6,0.75,0,-0,0.67
1697353245.7,-0.1,0.09,1.1,0.4,0.9,22.8,0.75,0,-0,0.67
1697353245.71,-0.08,0.09,1.05,-0.2,0.4,23,0.74,0,-0,0.67
1697353245.72,-0.06,0.05,1.06,-0.2,0,22.5,0.74,0,-0,0.67
1697353245.73,-0.05,0.05,1.07,-0.3,-0.6,22,0.74,0,-0,0.67
1697353245.74,-0.05,0.05,1.07,-0.3,-0.6,22,0.74,0,-0,0.67
1697353245.75,-0.05,0.05,1.07,-0.3,-0.6,22,0.74,0,-0,0.67
1697353245.76,-0.05,0.05,1.07,-0.3,-0.6,22,0.74,0,-0,0.67
1697353245.77,-0.05,0.05,1.07,-0.3,-0.6,22,0.74,0,-0,0.67
1697353245.78,-0.05,0.05,1.07,-0.3,-0.6,22,0.74,0,-0,0.67
1697353245.79,-0.05,0.05,1.07,-0.3,-0.6,22,0.74,0,-0,0.67
1697353245.8,-0.05,0.05,1.07,-0.3,-0.6,22,0.74,0,-0,0.67
1697353245.81,-0.05,0.05,1.07,-0.3,-0.6,22,0.74,0,-0,0.67
1697353245.82,-0.05,0.05,1.07,-0.3,-0.6,22,0.74,0,-0,0.67
1697353245.83,-0.05,0.05,1.07,-0.3,-0.6,22,0.74,0,-0,0.67
1697353245.84,-0.05,0.05,1.07,-0.3,-0.6,22,0.74,0,-0,0.67
1697353245.85,-0.05,0.05,1.07,-0.3,-0.6,22,0.74,0,-0,0.67
1697353245.86,-0.05,0.05,1.07,-0.3,-0.6,22,0.74,0,-0,0.67
1697353245.87,0.04,0.05,1.01,0,-1.4,20.1,0.72,0,-0.01,0.69
1697353245.88,0.04,0.05,1.01,0,-1.4,20.1,0.72,0,-0.01,0.69
1697353245.89,-0.04,0.1,0.96,0.9,-0.6,21.1,0.72,0,-0.01,0.69
1697353245.9,-0.07,0.05,0.99,0.7,0.1,21.9,0.72,0,-0.01,0.69
1697353245.91,-0.06,0.03,0.94,0.1,0.5,22.7,0.72,0,-0.01,0.69
1697353245.92,0,0.02,1.02,0.1,0.5,22.7,0.72,0,-0.01,0.7
1697353245.93,0.05,0.02,1.02,-0.2,0.6,22.9,0.72,0,-0.01,0.7
1697353245.94,0.05,0.02,1.02,-0.7,0.6,23,0.71,0,-0.01,0.7
1697353245.95,0.14,0.03,0.96,-0.9,0.2,22.6,0.71,0,-0.01,0.7
1697353245.96,0.15,0.04,1.06,-0.2,-0.2,22,0.71,0,-0.01,0.7
1697353245.97,0.15,0.07,1.03,0.2,-0.8,21.5,0.71,0,-0.01,0.7
1697353245.98,0.12,0.09,0.95,0.9,-1.2,21.2,0.71,0,-0.01,0.71
1697353245.99,0.07,0.11,0.96,1.1,-1.3,21.3,0.71,0,-0.01,0.71
1697353246,0.01,0.12,1.05,0.6,-1.2,21.9,0.71,0,-0.01,0.71
1697353246.01,-0.01,0.11,0.99,0.1,-0.9,22.7,0.71,0,-0.01,0.71
1697353246.02,-0.03,0.12,0.99,-0.4,-0.6,23.5,0.7,0,-0.01,0.71
1697353246.03,-0.03,0.09,1.06,-0.8,-0.5,24.3,0.7,0,-0.01,0.71
1697353246.04,0.01,0.07,1,-0.9,-0.4,24.6,0.7,0,-0.01,0.71
1697353246.05,0.08,0.05,1.04,-0.8,-0.5,24.6,0.7,0,-0.01,0.71
1697353246.06,0.15,0.03,0.88,-0.2,-1,24.2,0.7,0,-0.01,0.72
1697353246.07,0.15,0.04,1.11,0.4,-1.6,23.7,0.7,0,-0.01,0.72
1697353246.08,0.21,0.03,0.99,0.8,-2.1,23.2,0.69,0,-0.01,0.72
1697353246.09,0.19,0.09,0.93,1.5,-2.4,23,0.69,0,-0.01,0.72
1697353246.1,0.07,0.06,0.94,1.8,-2.5,23.1,0.69,0,-0.01,0.72
1697353246.11,0.04,0.07,1.01,2.2,-2.3,23.7,0.69,0.01,-0.01,0.72
1697353246.12,-0.01,0.07,0.96,1.5,-1.7,24.5,0.69,0.01,-0.01,0.73
1697353246.13,-0.05,0.03,0.95,0,-0.9,25.1,0.69,0.01,-0.01,0.73
1697353246.14,-0.09,-0.01,1.18,-2.5,0.1,25.6,0.69,0.01,-0.01,0.73
1697353246.15,-0.04,0.06,1.09,-4.4,1.5,25.6,0.68,0,-0.01,0.73
1697353246.16,-0.03,0.07,1.09,-4.8,2.5,25.3,0.68,0,-0.01,0.73
1697353246.17,-0.01,0.17,1.05,-4.8,2.5,25.3,0.68,0,-0.01,0.73
1697353246.18,0.06,0.12,1.03,-2.5,3.6,24.2,0.68,0,-0.01,0.73
1697353246.19,0.09,0.1,1.04,-1.7,3.5,23.5,0.68,0,-0.01,0.74
1697353246.2,0.09,0.05,1.04,-1.8,3.2,23,0.68,0,-0.01,0.74
1697353246.21,0.14,0.06,0.82,-2.3,2.7,22.9,0.67,0,-0.01,0.74
1697353246.22,0.07,0.06,1.01,-2.8,1.6,23.1,0.67,0,-0.01,0.74
1697353246.23,0.07,0.06,1.01,-2.8,1.6,23.1,0.67,0,-0.01,0.74
1697353246.24,0.04,0.1,0.91,-2.9,-0.1,24.2,0.67,0,-0.01,0.74
1697353246.25,0.03,0.07,0.96,-2.9,-0.1,24.2,0.67,0,-0.01,0.74
1697353246.26,0.07,0.03,0.94,-3,-0.8,24.9,0.67,0,-0.01,0.74
1697353246.27,0.07,0.03,0.94,-3,-0.8,24.9,0.67,0,-0.01,0.74
1697353246.28,0.07,0.03,0.94,-3,-0.8,24.9,0.67,0,-0.01,0.74
1697353246.29,0.07,0.03,0.94,-3,-0.8,24.9,0.67,0,-0.01,0.74
1697353246.3,0.07,0.03,0.94,-3,-0.8,24.9,0.67,0,-0.01,0.74
1697353246.31,0.07,0.03,0.94,-3,-0.8,24.9,0.67,0,-0.01,0.74
1697353246.32,0.07,0.03,0.94,-3,-0.8,24.9,0.67,0,-0.01,0.74
1697353246.33,0.07,0.03,0.94,-3,-0.8,24.9,0.67,0,-0.01,0.74
1697353246.34,0.07,0.03,0.94,-3,-0.8,24.9,0.67,0,-0.01,0.74
1697353246.35,0.07,0.03,0.94,-3,-0.8,24.9,0.67,0,-0.01,0.74
1697353246.36,0.07,0.03,0.94,-3,-0.8,24.9,0.67,0,-0.01,0.74
1697353246.37,0.07,0.03,0.94,-3,-0.8,24.9,0.67,0,-0.01,0.74
1697353246.38,0.07,0.03,0.94,-3,-0.8,24.9,0.67,0,-0.01,0.74
1697353246.39,0.07,0.03,0.94,-3,-0.8,24.9,0.67,0,-0.01,0.74
1697353246.4,0.09,0.07,0.95,-0.4,0.3,26.6,0.64,0,-0.01,0.76
1697353246.41,0.08,0.06,1,-0.3,-0.1,26.7,0.64,0,-0.01,0.77
1697353246.42,0.06,0.11,0.94,0,-0.7,26.5,0.64,0,-0.01,0.77
1697353246.43,0.04,0.1,1.01,0.4,-1,26.4,0.64,0,-0.01,0.77
1697353246.44,0.04,0.12,0.89,1,-1.4,26.4,0.64,0,-0.01,0.77
1697353246.45,0,0.09,1.05,1.4,-1.4,26.6,0.63,0,-0.01,0.77
1697353246.46,0.02,0.1,0.91,1.4,-1.2,26.8,0.63,0,-0.01,0.78
1697353246.47,0.02,0.08,0.87,1.6,-1.2,27.2,0.63,0,-0.01,0.78
1697353246.48,0.01,0.11,1.01,1.7,-1.1,27.4,0.63,0,-0.01,0.78
1697353246.49,0.03,0.1,1.02,2.2,-0.9,27.6,0.63,0,-0.01,0.78
1697353246.5,0.1,0.1,0.85,3.4,-1.1,27.9,0.62,0,-0.01,0.78
1697353246.51,0.1,0.08,0.95,4.6,-1.3,28.1,0.62,0,-0.01,0.78
1697353246.52,0.08,0.04,1.04,6.2,-2.8,28.4,0.62,0,-0.01,0.78
1697353246.53,0.08,0.04,1.04,6.2,-2.8,28.4,0.62,0,-0.01,0.78
1697353246.54,0.09,0.03,0.98,5.1,-3.4,28.5,0.62,0,-0.01,0.79
1697353246.55,0.09,0.03,0.98,5.1,-3.4,28.5,0.62,0,-0.01,0.79
1697353246.56,-0.04,0.07,1.16,3.4,-2.2,29,0.61,0.01,-0.01,0.79
1697353246.57,-0.04,0.07,1.16,3.4,-2.2,29,0.61,0.01,-0.01,0.79
1697353246.58,-0.07,0.03,1.07,3,-2,29.1,0.61,0.01,-0.01,0.79
1697353246.59,-0.11,0.1,1.09,-0.7,0.9,29,0.61,0.01,-0.01,0.79
1697353246.6,-0.04,0.16,1.12,-1.3,2.2,28.9,0.61,0.01,-0.01,0.8
1697353246.61,-0.04,0.16,1.12,-1.3,3.3,28.6,0.6,0.01,-0.01,0.8
1697353246.62,-0.01,0.11,1.09,-1.4,4.1,28.2,0.6,0.01,-0.01,0.8
1697353246.63,-0.01,0.12,1.13,-2.1,4.5,27.7,0.6,0,-0.01,0.8
1697353246.64,-0.01,0.12,1.13,-3,4.5,27.5,0.6,0,-0.01,0.8
1697353246.65,0.02,0.03,1.03,-3.7,4.1,27,0.6,0,-0.01,0.8
1697353246.66,0.03,0.13,1.08,-3.8,3.1,27.1,0.59,0,-0.01,0.8
1697353246.67,0.02,0.13,0.96,-3.4,1.8,27.4,0.59,0,-0.01,0.81
1697353246.68,0.03,0.1,0.97,-2.7,0.6,27.7,0.59,0,-0.01,0.81
1697353246.69,0.04,0.1,1,-2.1,-0.2,28.3,0.59,0,-0.01,0.81
1697353246.7,0.06,0.04,0.85,-2,-0.4,28.4,0.59,0,-0.01,0.81
1697353246.71,0.04,0.03,0.95,-2.2,-1.1,28.7,0.58,0,-0.01,0.81
1697353246.72,0.03,0.03,0.86,-2.7,-1.8,28.9,0.58,0,-0.01,0.81
1697353246.73,0,0.08,0.89,-3.1,-1.7,29,0.58,0,-0.01,0.82
1697353246.74,0.02,0.11,0.93,-2.8,-1.5,29.1,0.58,0,-0.01,0.82
1697353246.75,0,0.12,0.97,-0.9,-0.3,28.8,0.57,0,-0.01,0.82
1697353246.76,-0.01,0.09,0.97,-0.8,-0.2,28.7,0.57,0,-0.01,0.82
1697353246.77,-0.04,0.06,1.06,-0.6,0.7,28.8,0.57,0,-0.01,0.82
1697353246.78,-0.02,0.07,1.05,-1.4,2,28.7,0.57,0,-0.01,0.82
1697353246.79,-0.02,0.07,1.05,-1.4,2,28.7,0.57,0,-0.01,0.82
1697353246.8,-0.02,0.07,1.05,-1.4,2,28.7,0.57,0,-0.01,0.82
1697353246.81,-0.02,0.07,1.05,-1.4,2,28.7,0.57,0,-0.01,0.82
1697353246.82,-0.02,0.07,1.05,-1.4,2,28.7,0.57,0,-0.01,0.82
1697353246.83,-0.02,0.07,1.05,-1.4,2,28.7,0.57,0,-0.01,0.82
1697353246.84,-0.02,0.07,1.05,-1.4,2,28.7,0.57,0,-0.01,0.82
1697353246.85,-0.02,0.07,1.05,-1.4,2,28.7,0.57,0,-0.01,0.82
1697353246.86,-0.02,0.07,1.05,-1.4,2,28.7,0.57,0,-0.01,0.82
1697353246.87,-0.02,0.07,1.05,-1.4,2,28.7,0.57,0,-0.01,0.82
1697353246.88,-0.02,0.07,1.05,-1.4,2,28.7,0.57,0,-0.01,0.82
1697353246.89,-0.02,0.07,1.05,-1.4,2,28.7,0.57,0,-0.01,0.82
1697353246.9,-0.02,0.07,1.05,-1.4,2,28.7,0.57,0,-0.01,0.82
1697353246.91,-0.02,0.07,1.05,-1.4,2,28.7,0.57,0,-0.01,0.82
1697353246.92,0,0.09,1.01,-1.3,0.1,28.9,0.54,-0,-0.01,0.84
1697353246.93,0,0.09,1.01,-1.3,0.1,28.9,0.54,-0,-0.01,0.84
1697353246.94,0.02,0.06,0.97,-1.3,0.3,28.9,0.54,-0,-0.01,0.84
1697353246.95,0.02,0.06,0.97,-1.2,0.3,28.8,0.53,-0,-0.01,0.85
1697353246.96,0.06,0.07,1,-1.4,0.4,28.6,0.53,-0,-0.01,0.85
1697353246.97,0.1,0.1,0.98,-2.1,0.7,28.1,0.53,-0,-0.01,0.85
1697353246.98,0.07,0.11,1.02,-1.7,0.4,28.1,0.53,-0,-0.01,0.85
1697353246.99,0.07,0.11,1.02,-0.7,0.4,28,0.53,-0,-0.01,0.85
1697353247,0.05,0.07,1,-0.2,0.3,28.3,0.52,-0,-0.01,0.85
1697353247.01,0.04,0.09,0.98,0,-0.1,28.4,0.52,-0,-0.01,0.85
1697353247.02,0.04,0.05,0.91,-0.1,-0.1,28.8,0.52,-0,-0.01,0.85
1697353247.03,0.04,0.05,0.91,-0.2,0,28.9,0.52,-0,-0.01,0.86
1697353247.04,0.06,0.05,0.93,-0.1,0.1,28.8,0.51,-0,-0.01,0.86
1697353247.05,0.04,0.04,1.03,-0.3,0.3,29,0.51,-0,-0.01,0.86
1697353247.06,0.06,0.15,0.93,0.3,0.3,28.8,0.51,-0,-0.01,0.86
1697353247.07,0.07,-0.05,1.12,0.7,0.5,28.3,0.51,-0,-0.01,0.86
1697353247.08,0.09,-0.04,0.83,1.1,0.5,27.6,0.51,-0,-0.01,0.86
1697353247.09,0.04,-0.03,1.07,0.6,0.8,27,0.5,-0,-0.01,0.86
1697353247.1,0.05,-0.03,0.96,0,0.8,26.1,0.5,-0,-0.01,0.86
1697353247.11,0.09,0.02,1.01,-1,0.6,24.9,0.5,-0,-0.01,0.87
1697353247.12,0.09,0.02,1.01,-1,0.6,24.9,0.5,-0,-0.01,0.87
1697353247.13,0.04,-0.07,1.09,-0.3,0.6,24.2,0.5,-0,-0.01,0.87
1697353247.14,0.17,0,0.87,0.2,0.5,23.6,0.49,-0,-0.01,0.87
1697353247.15,0.01,-0.03,1.18,-0.3,0.5,23.2,0.49,-0,-0.01,0.87
1697353247.16,0.07,-0.04,0.99,-0.9,0.4,22.7,0.49,-0,-0.01,0.87
1697353247.17,0.1,-0.01,1.02,-1.3,0.6,22.2,0.49,-0,-0.01,0.87
1697353247.18,0.14,-0.06,1.08,-1.5,0.6,21.5,0.49,-0,-0.01,0.87
1697353247.19,0.09,-0.06,1.05,-1.4,0.6,20.8,0.49,-0,-0.01,0.87
1697353247.2,0.15,-0.08,1.08,-1,0.6,20.1,0.49,-0,-0.01,0.87
1697353247.21,0.05,-0.14,1.08,-0.7,0.4,19.2,0.48,-0,-0.01,0.88
1697353247.22,0.12,-0.09,0.93,-0.7,0.4,19.2,0.48,-0,-0.01,0.88
1697353247.23,0.12,-0.09,0.93,-0.8,0.2,17.9,0.48,-0,-0.01,0.88
1697353247.24,0.17,-0.14,1.02,-0.6,0.3,16.2,0.48,-0,-0.01,0.88
1697353247.25,0.05,-0.09,0.95,-0.4,0.3,15.3,0.48,-0,-0.01,0.88
1697353247.26,0.15,-0.1,1.07,-0.2,0,14.4,0.48,-0,-0.01,0.88
1697353247.27,0.17,-0.08,0.98,-0.3,0.2,13.6,0.48,-0,-0.01,0.88
1697353247.28,0.11,-0.13,1.04,0,0,12.6,0.48,-0,-0.01,0.88
1697353247.29,0.11,-0.13,1.06,-0.1,0,11.5,0.47,-0,-0.01,0.88
1697353247.3,0.11,-0.13,1.06,-0.1,0,11.5,0.47,-0,-0.01,0.88
1697353247.31,0.11,-0.13,1.06,-0.1,0,11.5,0.47,-0,-0.01,0.88
1697353247.32,0.11,-0.13,1.06,-0.1,0,11.5,0.47,-0,-0.01,0.88
1697353247.33,0.11,-0.13,1.06,-0.1,0,11.5,0.47,-0,-0.01,0.88
1697353247.34,0.11,-0.13,1.06,-0.1,0,11.5,0.47,-0,-0.01,0.88
1697353247.35,0.11,-0.13,1.06,-0.1,0,11.5,0.47,-0,-0.01,0.88
1697353247.36,0.11,-0.13,1.06,-0.1,0,11.5,0.47,-0,-0.01,0.88
1697353247.37,0.11,-0.13,1.06,-0.1,0,11.5,0.47,-0,-0.01,0.88
1697353247.38,0.11,-0.13,1.06,-0.1,0,11.5,0.47,-0,-0.01,0.88
1697353247.39,0.11,-0.13,1.06,-0.1,0,11.5,0.47,-0,-0.01,0.88
1697353247.4,0.11,-0.13,1.06,-0.1,0,11.5,0.47,-0,-0.01,0.88
1697353247.41,0.11,-0.13,1.06,-0.1,0,11.5,0.47,-0,-0.01,0.88
1697353247.42,0.11,-0.13,1.06,-0.1,0,11.5,0.47,-0,-0.01,0.88
1697353247.43,0.11,-0.13,1.06,-0.1,0,11.5,0.47,-0,-0.01,0.88
1697353247.44,0.11,-0.13,1.06,-0.1,0,11.5,0.47,-0,-0.01,0.88
1697353247.45,0.11,-0.13,1.06,-0.1,0,11.5,0.47,-0,-0.01,0.88
1697353247.46,0.11,-0.13,1.06,-0.1,0,11.5,0.47,-0,-0.01,0.88
1697353247.47,0.11,-0.13,1.06,-0.1,0,11.5,0.47,-0,-0.01,0.88
1697353247.48,0.11,-0.13,1.06,-0.1,0,11.5,0.47,-0,-0.01,0.88
1697353247.49,0.11,-0.13,1.06,-0.1,0,11.5,0.47,-0,-0.01,0.88
1697353247.5,0.11,-0.13,1.06,-0.1,0,11.5,0.47,-0,-0.01,0.88
1697353247.51,0.1,-0.16,0.95,-1,0.7,-5.7,0.47,-0,-0.01,0.88
1697353247.52,0.07,-0.16,1.03,-0.8,0.8,-6.5,0.47,-0,-0.01,0.88
1697353247.53,0.1,-0.13,0.98,-1,0.7,-7.6,0.47,-0,-0.01,0.88
1697353247.54,0.1,-0.13,0.98,-1,0.7,-7.6,0.47,-0,-0.01,0.88
1697353247.55,0.06,-0.13,0.98,-0.7,0.3,-8.5,0.47,-0,-0.02,0.88
1697353247.56,0.06,-0.16,0.88,0.2,0.2,-9.2,0.47,-0,-0.02,0.88
1697353247.57,0.05,-0.15,0.9,0.6,0,-9.6,0.47,-0,-0.02,0.88
1697353247.58,0.07,-0.16,0.94,0.9,-0.1,-10.1,0.47,-0,-0.02,0.88
1697353247.59,0.04,-0.16,1.01,0.8,-0.3,-10.8,0.48,-0,-0.02,0.88
1697353247.6,0.02,-0.14,0.96,0.9,-0.4,-11.2,0.48,-0,-0.02,0.88
1697353247.61,0.05,-0.14,0.86,1.1,-0.4,-11.5,0.48,-0,-0.02,0.88
1697353247.62,0.04,-0.09,1.05,1.1,-0.4,-11.5,0.48,-0,-0.02,0.88
1697353247.63,0.07,-0.13,0.88,1.4,-0.1,-12.6,0.48,-0,-0.02,0.88
1697353247.64,0.01,-0.16,1.01,1.7,0,-13.8,0.48,-0,-0.02,0.88
1697353247.65,-0.04,-0.14,1.05,1.7,0,-13.8,0.48,-0,-0.02,0.88
1697353247.66,0.01,-0.15,1.04,1.1,0.1,-14.5,0.48,-0,-0.02,0.88
1697353247.67,0.02,-0.2,1.01,1.1,0.1,-14.5,0.48,-0,-0.02,0.88
1697353247.68,0.02,-0.13,1.02,0.5,0.1,-15,0.48,-0,-0.02,0.87
1697353247.69,0.04,-0.11,1.01,0.2,0,-15.1,0.49,-0,-0.02,0.87
1697353247.7,0.04,-0.11,1.01,-0.6,-0.6,-15.6,0.49,-0,-0.02,0.87
1697353247.71,0.03,-0.13,1.02,-0.8,-0.9,-16,0.49,-0,-0.02,0.87
1697353247.72,0.03,-0.13,0.95,-0.8,-1.6,-16,0.49,-0,-0.02,0.87
1697353247.73,0.04,-0.09,0.94,-0.9,-1.8,-16.3,0.49,-0,-0.02,0.87
1697353247.74,0,-0.14,0.96,-0.7,-1.6,-16.5,0.49,-0,-0.02,0.87
1697353247.75,0.03,-0.14,0.9,-0.6,-1.4,-16.8,0.49,-0,-0.02,0.87
1697353247.76,-0.01,-0.18,0.99,-0.4,-1,-17.2,0.49,-0,-0.02,0.87
1697353247.77,-0.01,-0.18,1.01,-0.1,-0.8,-17.6,0.5,-0,-0.02,0.87
1697353247.78,-0,-0.17,1.07,-0.3,-0.4,-18.1,0.5,-0,-0.02,0.87
1697353247.79,-0.04,-0.17,1.04,0,-0.2,-18.7,0.5,-0,-0.02,0.87
1697353247.8,-0.05,-0.17,1.16,0,-0.1,-18.8,0.5,-0,-0.02,0.87
1697353247.81,-0.02,-0.19,1.14,0.6,0,-19.1,0.5,-0,-0.02,0.86
1697353247.82,-0.01,-0.15,1.01,0.3,0,-19.2,0.5,-0,-0.02,0.86
1697353247.83,0,-0.18,1.06,0.1,-0.2,-19.4,0.5,-0,-0.02,0.86
1697353247.84,0.02,-0.15,0.94,-0.2,-0.4,-19.6,0.51,-0,-0.02,0.86
1697353247.85,0.01,-0.12,0.93,-0.2,-0.4,-19.6,0.51,-0,-0.02,0.86
1697353247.86,-0.01,-0.16,1.03,-0.5,-0.7,-19.9,0.51,-0,-0.02,0.86
1697353247.87,0.01,-0.07,0.98,-0.7,-0.9,-20.2,0.51,-0,-0.02,0.86
1697353247.88,0.01,-0.2,1.05,-0.4,-1.1,-20.3,0.51,-0,-0.02,0.86
1697353247.89,0.01,-0.2,1.05,-0.4,-1.1,-20.3,0.51,-0,-0.02,0.86
1697353247.9,0.01,-0.2,1.05,-0.4,-1.1,-20.3,0.51,-0,-0.02,0.86
1697353247.91,0.01,-0.2,1.05,-0.4,-1.1,-20.3,0.51,-0,-0.02,0.86
1697353247.92,0.01,-0.2,1.05,-0.4,-1.1,-20.3,0.51,-0,-0.02,0.86
1697353247.93,0.01,-0.2,1.05,-0.4,-1.1,-20.3,0.51,-0,-0.02,0.86
1697353247.94,0.01,-0.2,1.05,-0.4,-1.1,-20.3,0.51,-0,-0.02,0.86
1697353247.95,0.01,-0.2,1.05,-0.4,-1.1,-20.3,0.51,-0,-0.02,0.86
1697353247.96,0.01,-0.2,1.05,-0.4,-1.1,-20.3,0.51,-0,-0.02,0.86
1697353247.97,0.01,-0.2,1.05,-0.4,-1.1,-20.3,0.51,-0,-0.02,0.86
1697353247.98,0.01,-0.2,1.05,-0.4,-1.1,-20.3,0.51,-0,-0.02,0.86
1697353247.99,0.01,-0.2,1.05,-0.4,-1.1,-20.3,0.51,-0,-0.02,0.86
1697353248,0.01,-0.2,1.05,-0.4,-1.1,-20.3,0.51,-0,-0.02,0.86
1697353248.01,0.01,-0.2,1.05,-0.4,-1.1,-20.3,0.51,-0,-0.02,0.86
1697353248.02,0.01,-0.2,1.05,-0.4,-1.1,-20.3,0.51,-0,-0.02,0.86
1697353248.03,0.01,-0.2,1.05,-0.4,-1.1,-20.3,0.51,-0,-0.02,0.86
1697353248.04,0.01,-0.2,1.05,-0.4,-1.1,-20.3,0.51,-0,-0.02,0.86
1697353248.05,0.01,-0.2,1.05,-0.4,-1.1,-20.3,0.51,-0,-0.02,0.86
1697353248.06,0.01,-0.2,1.05,-0.4,-1.1,-20.3,0.51,-0,-0.02,0.86
1697353248.07,0.01,-0.2,1.05,-0.4,-1.1,-20.3,0.51,-0,-0.02,0.86
1697353248.08,0.01,-0.2,1.05,-0.4,-1.1,-20.3,0.51,-0,-0.02,0.86
1697353248.09,0.01,-0.2,1.05,-0.4,-1.1,-20.3,0.51,-0,-0.02,0.86
1697353248.1,-0.03,-0.06,1.13,0.6,0.9,-23.8,0.55,-0,-0.02,0.84
1697353248.11,-0.03,-0.16,1.02,-0.7,0.6,-24.4,0.55,-0,-0.02,0.83
1697353248.12,-0.01,-0.09,1.18,-0.8,-0.1,-25.1,0.55,-0,-0.02,0.83
1697353248.13,-0.11,-0.13,1.09,-0.1,-0.7,-25.7,0.55,-0,-0.02,0.83
1697353248.14,-0.06,-0.17,1.17,0.6,-1.2,-26.3,0.55,-0,-0.02,0.83
1697353248.15,-0.04,-0.18,1.04,0.9,-1.5,-26.5,0.56,-0,-0.02,0.83
1697353248.16,-0.09,-0.2,1.09,0.3,-1.7,-26.9,0.56,-0,-0.02,0.83
1697353248.17,-0.09,-0.2,1.09,0.3,-1.7,-26.9,0.56,-0,-0.02,0.83
1697353248.18,-0.09,-0.14,0.91,-1.3,-1.3,-26.9,0.56,-0,-0.02,0.83
1697353248.19,-0.09,-0.13,1.02,-1.1,0,-26.4,0.57,-0,-0.02,0.82
1697353248.2,-0.06,-0.1,0.96,0.4,0.3,-26.2,0.57,-0,-0.02,0.82
1697353248.21,-0.06,-0.1,0.96,0.4,0.3,-26.2,0.57,-0,-0.02,0.82
1697353248.22,-0.06,-0.18,0.94,1.3,0.9,-25.8,0.57,-0,-0.02,0.82
1697353248.23,-0.06,-0.18,0.94,1.3,0.9,-25.8,0.57,-0,-0.02,0.82
1697353248.24,-0.04,-0.17,0.98,1.1,0.6,-25.8,0.57,-0,-0.02,0.82
1697353248.25,-0.04,-0.17,0.98,0.5,0.1,-25.9,0.58,-0,-0.02,0.82
1697353248.26,-0.04,-0.15,1.01,0.4,-0.1,-26,0.58,-0,-0.02,0.82
1697353248.27,-0.07,-0.14,1.1,0.5,-0.4,-26,0.58,-0,-0.02,0.81
1697353248.28,-0.04,-0.14,0.98,0.7,-0.8,-26.1,0.58,-0,-0.02,0.81
1697353248.29,-0.06,-0.12,1.02,0.7,-1.2,-26.2,0.58,-0,-0.02,0.81
1697353248.3,-0.08,-0.11,0.99,0.7,-1.1,-26.3,0.59,-0,-0.02,0.81
1697353248.31,-0.07,-0.14,0.98,0.5,-0.7,-26.4,0.59,-0,-0.02,0.81
1697353248.32,-0.07,-0.12,1.03,0,-0.4,-26.4,0.59,-0,-0.02,0.81
1697353248.33,-0.06,-0.11,0.99,-0.3,-0.2,-26.6,0.59,-0,-0.02,0.81
1697353248.34,-0.05,-0.09,1.05,-0.1,0,-26.5,0.59,-0,-0.02,0.81
1697353248.35,-0.1,-0.09,1.02,0.3,0.4,-26.5,0.59,-0,-0.02,0.8
1697353248.36,-0.08,-0.13,0.96,0.5,0.4,-26.2,0.6,-0,-0.02,0.8
1697353248.37,-0.03,-0.12,0.85,0.3,0.4,-26.1,0.6,-0,-0.02,0.8
1697353248.38,-0.07,-0.14,1.06,-0.1,0.2,-25.9,0.6,-0,-0.02,0.8
1697353248.39,-0.09,-0.13,1.07,-0.2,0.1,-25.8,0.6,-0,-0.02,0.8
1697353248.4,-0.04,-0.12,1,-0.2,0.1,-25.8,0.6,-0,-0.02,0.8
1697353248.41,-0,-0.1,1.01,-0.6,-0.4,-25.5,0.61,-0,-0.02,0.8
1697353248.42,-0.04,-0.08,0.93,-0.3,-0.6,-25.5,0.61,-0,-0.02,0.79
1697353248.43,-0.07,-0.1,1.09,0.2,-0.8,-25.5,0.61,-0,-0.02,0.79
1697353248.44,-0.07,-0.14,1,0.7,-0.9,-25.2,0.61,-0,-0.02,0.79
1697353248.45,-0.05,-0.17,0.98,0.6,-0.8,-25.3,0.61,-0,-0.02,0.79
1697353248.46,-0.09,-0.18,1.18,0.3,-0.8,-25.1,0.61,-0,-0.02,0.79
1697353248.47,0.01,-0.13,1.09,0,-0.7,-25.2,0.62,-0,-0.02,0.79
1697353248.48,0.2,-0.08,1.09,0,-0.7,-25.2,0.62,-0,-0.02,0.79
1697353248.49,0.2,-0.08,1.09,0,-0.9,-24.7,0.62,-0,-0.02,0.79
1697353248.5,0.2,-0.08,1.09,0,-0.9,-24.7,0.62,-0,-0.02,0.79
1697353248.51,0.2,-0.08,1.09,0,-0.9,-24.7,0.62,-0,-0.02,0.79
1697353248.52,0.2,-0.08,1.09,0,-0.9,-24.7,0.62,-0,-0.02,0.79
1697353248.53,0.2,-0.08,1.09,0,-0.9,-24.7,0.62,-0,-0.02,0.79
1697353248.54,0.2,-0.08,1.09,0,-0.9,-24.7,0.62,-0,-0.02,0.79
1697353248.55,0.2,-0.08,1.09,0,-0.9,-24.7,0.62,-0,-0.02,0.79
1697353248.56,0.2,-0.08,1.09,0,-0.9,-24.7,0.62,-0,-0.02,0.79
1697353248.57,0.2,-0.08,1.09,0,-0.9,-24.7,0.62,-0,-0.02,0.79
1697353248.58,0.2,-0.08,1.09,0,-0.9,-24.7,0.62,-0,-0.02,0.79
1697353248.59,0.2,-0.08,1.09,0,-0.9,-24.7,0.62,-0,-0.02,0.79
1697353248.6,0.2,-0.08,1.09,0,-0.9,-24.7,0.62,-0,-0.02,0.79
1697353248.61,0.2,-0.08,1.09,0,-0.9,-24.7,0.62,-0,-0.02,0.79
1697353248.62,0.01,-0.13,0.91,0.4,-1.4,-26.2,0.64,-0,-0.02,0.77
1697353248.63,-0.01,-0.15,0.9,0,-1.9,-24.7,0.65,-0,-0.02,0.76
1697353248.64,-0.03,-0.13,0.88,0.7,-1.9,-24.3,0.65,-0,-0.02,0.76
1697353248.65,-0.04,-0.23,1.03,-0.2,-1.7,-24.4,0.65,-0,-0.02,0.76
1697353248.66,-0.03,-0.2,0.86,-0.4,-1.5,-24.8,0.65,-0,-0.02,0.76
1697353248.67,-0.09,-0.19,1.01,-0.2,-1,-25.5,0.65,-0,-0.02,0.76
1697353248.68,-0.09,-0.16,1.25,-0.4,-1.1,-26.1,0.65,-0,-0.02,0.76
1697353248.69,0.17,-0.1,1.17,0.3,-1.3,-27,0.66,-0,-0.02,0.75
1697353248.7,0.44,-0.1,0.99,1.4,-2.1,-26.9,0.66,-0,-0.02,0.75
1697353248.71,0.47,-0.13,0.94,1.6,-3,-27,0.66,-0,-0.02,0.75
1697353248.72,0.38,-0.16,0.96,0.5,-3.4,-26.6,0.66,-0,-0.02,0.75
1697353248.73,0.12,-0.26,1.09,-0.9,-2.8,-27,0.66,-0,-0.02,0.75
1697353248.74,-0.1,-0.23,0.95,-1.6,-1.5,-28.6,0.66,-0,-0.02,0.75
1697353248.75,-0.19,-0.26,0.9,-2.1,0,-30,0.67,-0,-0.02,0.75
1697353248.76,-0.24,-0.24,1.08,-0.2,1.4,-32,0.67,-0,-0.02,0.74
1697353248.77,-0.16,-0.17,0.93,1.3,2.3,-32.8,0.67,-0,-0.02,0.74
1697353248.78,-0.08,-0.2,0.92,2.2,2.6,-33.7,0.67,-0,-0.02,0.74
1697353248.79,-0.07,-0.19,1.14,2.2,2.6,-33.7,0.67,-0,-0.02,0.74
1697353248.8,-0.02,-0.19,1.02,1.2,2,-33.6,0.67,-0,-0.02,0.74
1697353248.81,0.09,-0.18,1.13,-0.5,1.7,-32.8,0.68,-0,-0.02,0.74
1697353248.82,0.25,-0.08,1.18,-1,0.5,-32,0.68,-0,-0.02,0.73
1697353248.83,0.34,-0.17,0.95,-1,0.5,-32,0.68,-0,-0.02,0.73
1697353248.84,0.39,-0.1,1,-0.5,-1.9,-29,0.68,-0,-0.02,0.73
1697353248.85,0.33,-0.2,1.08,-0.1,-3.6,-26.7,0.69,-0,-0.02,0.73
1697353248.86,0.33,-0.2,1.08,-0.1,-3.6,-26.7,0.69,0,-0.02,0.73
1697353248.87,-0.09,-0.25,1.13,-2.1,-1.6,-29,0.69,0,-0.02,0.72
1697353248.88,-0.09,-0.25,1.13,-2.1,-1.6,-29,0.69,0,-0.02,0.72
1697353248.89,-0.26,-0.25,0.95,-0.9,2,-35,0.69,0,-0.02,0.72
1697353248.9,-0.26,-0.25,0.95,-0.9,2,-35,0.69,0,-0.02,0.72
1697353248.91,-0.18,-0.24,1.2,0.6,3,-37.2,0.7,0,-0.02,0.72
1697353248.92,-0.06,-0.24,0.98,2,3.2,-39.3,0.7,0,-0.02,0.71
1697353248.93,-0.08,-0.13,1.04,2,3.2,-39.3,0.7,0,-0.02,0.71
1697353248.94,0.23,-0.13,0.89,1.4,2.6,-39.3,0.7,0,-0.02,0.71
1697353248.95,0.27,-0.08,1.24,0.5,1.2,-38.3,0.71,0,-0.02,0.71
1697353248.96,0.39,-0.03,1.19,0.2,-1.1,-36.3,0.71,0,-0.02,0.7
1697353248.97,0.36,-0.25,1.06,-0.2,-3,-33.6,0.71,0,-0.02,0.7
1697353248.98,0.19,-0.21,0.94,-1,-4.9,-31.9,0.71,0,-0.02,0.7
1697353248.99,0.15,-0.31,0.71,-2.1,-5.7,-31,0.72,0,-0.02,0.7
1697353249,-0.2,-0.34,1.2,-3.1,-4.9,-31.4,0.72,0,-0.02,0.7
1697353249.01,-0.18,-0.24,0.82,-2.5,-3.3,-32.9,0.72,0,-0.02,0.7
1697353249.02,-0.18,-0.24,0.82,-2.5,-3.3,-32.9,0.72,0,-0.02,0.7
1697353249.03,-0.18,-0.24,0.82,-2.5,-3.3,-32.9,0.72,0,-0.02,0.7
1697353249.04,-0.18,-0.24,0.82,-2.5,-3.3,-32.9,0.72,0,-0.02,0.7
1697353249.05,-0.18,-0.24,0.82,-2.5,-3.3,-32.9,0.72,0,-0.02,0.7
1697353249.06,-0.18,-0.24,0.82,-2.5,-3.3,-32.9,0.72,0,-0.02,0.7
1697353249.07,-0.18,-0.24,0.82,-2.5,-3.3,-32.9,0.72,0,-0.02,0.7
1697353249.08,-0.18,-0.24,0.82,-2.5,-3.3,-32.9,0.72,0,-0.02,0.7
1697353249.09,-0.18,-0.24,0.82,-2.5,-3.3,-32.9,0.72,0,-0.02,0.7
1697353249.1,-0.18,-0.24,0.82,-2.5,-3.3,-32.9,0.72,0,-0.02,0.7
1697353249.11,-0.18,-0.24,0.82,-2.5,-3.3,-32.9,0.72,0,-0.02,0.7
1697353249.12,-0.18,-0.24,0.82,-2.5,-3.3,-32.9,0.72,0,-0.02,0.7
1697353249.13,-0.18,-0.24,0.82,-2.5,-3.3,-32.9,0.72,0,-0.02,0.7
1697353249.14,-0.04,-0.25,0.95,0.2,1.2,-39.4,0.75,0,-0.02,0.66
1697353249.15,0.09,-0.23,1,-0.3,1.6,-39.5,0.75,0,-0.02,0.66
1697353249.16,0.18,-0.17,0.98,-0.3,1.2,-38.8,0.75,0,-0.02,0.66
1697353249.17,0.24,-0.17,1.03,-0.4,0.4,-37.8,0.76,0,-0.02,0.65
1697353249.18,0.25,-0.06,1.06,-0.4,0.4,-37.8,0.76,0,-0.02,0.65
1697353249.19,0.22,-0.39,1.07,-1.3,-1,-36,0.76,0,-0.02,0.65
1697353249.2,0.08,0.05,1.28,-1.3,-1,-36,0.76,0,-0.02,0.65
1697353249.21,-0.03,-0.32,0.98,-1.4,-0.6,-36.8,0.76,0,-0.02,0.65
1697353249.22,-0.03,-0.32,0.98,-1.4,-0.6,-36.8,0.76,0,-0.02,0.64
1697353249.23,-0.14,-0.25,1.12,-0.4,0,-38,0.77,0,-0.02,0.64
1697353249.24,-0.06,-0.24,1.01,0,1.3,-40.2,0.77,0,-0.02,0.64
1697353249.25,0.02,-0.25,0.97,-0.2,1.8,-40.8,0.77,0,-0.02,0.64
1697353249.26,0.02,-0.25,0.97,-0.2,1.8,-40.8,0.77,0,-0.02,0.63
1697353249.27,0.15,-0.19,1.02,-0.3,1.8,-40.9,0.78,0,-0.02,0.63
1697353249.28,0.16,-0.21,0.98,-0.5,1.6,-40.5,0.78,0,-0.02,0.63
1697353249.29,0.24,-0.23,0.93,-0.7,1,-40,0.78,0,-0.02,0.62
1697353249.3,0.2,-0.31,1.11,-0.8,0.7,-39,0.78,0,-0.02,0.62
1697353249.31,0.17,-0.23,1.01,-0.9,0.4,-38.4,0.78,0,-0.02,0.62
1697353249.32,0.11,-0.28,1.06,-1.4,0,-37.9,0.79,0,-0.02,0.62
1697353249.33,0.01,-0.34,1.05,-1.5,0,-38.1,0.79,0,-0.02,0.61
1697353249.34,-0.02,-0.27,0.97,-1.5,0.6,-39,0.79,0,-0.02,0.61
1697353249.35,-0.03,-0.26,1,0,1.3,-40.8,0.79,0,-0.02,0.61
1697353249.36,-0.02,-0.28,1.05,0.2,1.1,-41.6,0.8,0,-0.02,0.61
1697353249.37,0.07,-0.23,1.04,0.5,0.8,-41.8,0.8,0,-0.02,0.6
1697353249.38,0.16,-0.25,0.96,0.5,0,-41.6,0.8,0,-0.02,0.6
1697353249.39,0.13,-0.22,0.97,-0.2,-0.8,-40.8,0.8,0,-0.02,0.6
1697353249.4,0.24,-0.24,0.99,-0.3,-1.9,-40.2,0.8,0,-0.02,0.59
1697353249.41,0.14,-0.3,1.16,-0.2,-2.5,-39.4,0.81,0,-0.02,0.59
1697353249.42,0.16,-0.27,0.92,0.1,-2.5,-39.3,0.81,0,-0.02,0.59
1697353249.43,0.16,-0.27,0.92,0.1,-2.5,-39.3,0.81,0,-0.02,0.59
1697353249.44,0.16,-0.27,0.92,0.1,-2.5,-39.3,0.81,0,-0.02,0.59
1697353249.45,0.16,-0.27,0.92,0.1,-2.5,-39.3,0.81,0,-0.02,0.59
1697353249.46,0.16,-0.27,0.92,0.1,-2.5,-39.3,0.81,0,-0.02,0.59
1697353249.47,0.16,-0.27,0.92,0.1,-2.5,-39.3,0.81,0,-0.02,0.59
1697353249.48,0.16,-0.27,0.92,0.1,-2.5,-39.3,0.81,0,-0.02,0.59
1697353249.49,0.16,-0.27,0.92,0.1,-2.5,-39.3,0.81,0,-0.02,0.59
1697353249.5,0.16,-0.27,0.92,0.1,-2.5,-39.3,0.81,0,-0.02,0.59
1697353249.51,0.16,-0.27,0.92,0.1,-2.5,-39.3,0.81,0,-0.02,0.59
1697353249.52,0.16,-0.27,0.92,0.1,-2.5,-39.3,0.81,0,-0.02,0.59
1697353249.53,0.16,-0.27,0.92,0.1,-2.5,-39.3,0.81,0,-0.02,0.59
1697353249.54,0.16,-0.27,0.92,0.1,-2.5,-39.3,0.81,0,-0.02,0.59
1697353249.55,0.16,-0.27,0.92,0.1,-2.5,-39.3,0.81,0,-0.02,0.59
1697353249.56,0.16,-0.27,0.92,0.1,-2.5,-39.3,0.84,0,-0.02,0.55
1697353249.57,0.05,-0.25,0.87,-1.9,-0.2,-40.2,0.84,0,-0.02,0.54
1697353249.58,0.12,-0.23,1.05,-1.6,-0.2,-40.6,0.84,0,-0.02,0.54
1697353249.59,0.14,-0.21,1.04,-0.6,0.1,-40.6,0.84,0,-0.02,0.54
1697353249.6,0.07,-0.24,1.19,0.1,0,-40.3,0.84,0,-0.02,0.54
1697353249.61,0.07,-0.21,1.12,-0.2,-0.1,-39.9,0.85,0,-0.02,0.53
1697353249.62,0.13,-0.16,1.06,-1.1,-0.1,-39.3,0.85,0,-0.03,0.53
1697353249.63,0.13,-0.15,1,-1.8,-0.2,-38.6,0.85,0,-0.03,0.53
1697353249.64,0.13,-0.15,1,-2.7,-0.1,-38.1,0.85,0,-0.03,0.52
1697353249.65,0.03,-0.23,0.99,-2.5,0,-37.9,0.85,0,-0.03,0.52
1697353249.66,0.03,-0.26,0.92,-0.6,0.3,-37.7,0.85,0,-0.03,0.52
1697353249.67,0.03,-0.27,0.9,0.9,0.6,-38,0.86,0,-0.03,0.52
1697353249.68,0.04,-0.3,1.22,1,1,-38.4,0.86,0,-0.02,0.51
1697353249.69,0.1,-0.19,0.94,0.5,1.1,-38.5,0.86,0,-0.02,0.51
1697353249.7,0.18,-0.2,1.06,-0.4,0.8,-38.6,0.86,0,-0.02,0.51
1697353249.71,0.19,-0.16,1.1,-1.4,0.4,-38.3,0.86,0,-0.02,0.5
1697353249.72,0.18,-0.14,0.92,-2,-0.1,-37.5,0.87,0,-0.03,0.5
1697353249.73,0.12,-0.2,1.01,-1.3,-0.6,-36.6,0.87,0,-0.03,0.5
1697353249.74,0.12,-0.2,1.01,-1.3,-0.6,-36.6,0.87,0,-0.03,0.5
1697353249.75,0.13,-0.28,0.8,-0.3,-0.9,-35.2,0.87,0,-0.03,0.49
1697353249.76,0.04,-0.23,1.07,0.1,-0.8,-35,0.87,0,-0.03,0.49
1697353249.77,0.02,-0.17,0.93,-0.3,-0.3,-34.9,0.87,0,-0.03,0.49
1697353249.78,0.06,-0.21,1.05,-0.1,0.2,-35,0.87,0,-0.03,0.49
1697353249.79,0.08,-0.14,0.98,0.1,0.6,-35,0.87,0,-0.03,0.49
1697353249.8,0.06,-0.22,1.27,0.1,0.6,-35,0.87,0,-0.03,0.48
1697353249.81,0.14,-0.2,1.04,0.5,0.3,-34.4,0.88,0,-0.03,0.48
1697353249.82,0.12,-0.18,0.91,0.1,0.1,-33.8,0.88,0,-0.03,0.47
1697353249.83,0.12,-0.18,1.02,0.1,0.1,-33.8,0.88,0,-0.03,0.47
1697353249.84,0.07,-0.17,1.08,-0.6,-0.4,-33.1,0.88,0,-0.03,0.47
1697353249.85,0.07,-0.17,1.08,-0.6,-0.4,-33.1,0.88,0,-0.03,0.47
1697353249.86,0.06,-0.17,1.12,-0.2,-0.1,-32.5,0.88,0,-0.03,0.47
1697353249.87,0.06,-0.17,1.12,-0.2,-0.1,-32.5,0.89,0,-0.03,0.46
1697353249.88,0.15,-0.14,0.83,0,0.4,-32.5,0.89,0,-0.03,0.46
1697353249.89,0.15,-0.14,0.83,0,0.9,-32.3,0.89,0,-0.03,0.46
1697353249.9,0.16,-0.1,0.92,0.3,1.4,-32.3,0.89,0,-0.03,0.45
1697353249.91,0.08,-0.12,1.04,0.5,1.5,-32.1,0.89,0,-0.03,0.45
1697353249.92,0.13,-0.12,0.92,0.6,1.4,-31.7,0.89,0,-0.03,0.45
1697353249.93,0.13,-0.15,0.97,-0.1,1.3,-31.2,0.89,0,-0.03,0.45
1697353249.94,0.14,-0.14,1.02,-0.1,0.9,-30.6,0.9,0,-0.03,0.44
1697353249.95,0.12,-0.11,1.06,-0.4,0.6,-29.9,0.9,0,-0.03,0.44
1697353249.96,0.09,-0.09,1.11,-0.3,0.6,-29.4,0.9,0,-0.03,0.44
1697353249.97,0.09,-0.09,1.11,-0.3,0.6,-29.4,0.9,0,-0.03,0.44
1697353249.98,0.09,-0.09,1.11,-0.3,0.6,-29.4,0.9,0,-0.03,0.44
1697353249.99,0.09,-0.09,1.11,-0.3,0.6,-29.4,0.9,0,-0.03,0.44
1697353250,0.09,-0.09,1.11,-0.3,0.6,-29.4,0.9,0,-0.03,0.44
1697353250.01,0.09,-0.09,1.11,-0.3,0.6,-29.4,0.9,0,-0.03,0.44
1697353250.02,0.09,-0.09,1.11,-0.3,0.6,-29.4,0.9,0,-0.03,0.44
1697353250.03,0.09,-0.09,1.11,-0.3,0.6,-29.4,0.9,0,-0.03,0.44
1697353250.04,0.09,-0.09,1.11,-0.3,0.6,-29.4,0.9,0,-0.03,0.44
1697353250.05,0.09,-0.09,1.11,-0.3,0.6,-29.4,0.9,0,-0.03,0.44
1697353250.06,0.09,-0.09,1.11,-0.3,0.6,-29.4,0.9,0,-0.03,0.44
1697353250.07,0.09,-0.09,1.11,-0.3,0.6,-29.4,0.9,0,-0.03,0.44
1697353250.08,0.09,-0.09,1.11,-0.3,0.6,-29.4,0.9,0,-0.03,0.44
1697353250.09,0.09,-0.09,1.11,-0.3,0.6,-29.4,0.9,0,-0.03,0.44
1697353250.1,0.09,-0.09,1.11,-0.3,0.6,-29.4,0.9,0,-0.03,0.44
1697353250.11,0.13,-0.14,0.92,0.8,-0.3,-23.2,0.91,0,-0.03,0.41
1697353250.12,0.12,-0.07,1.17,0.8,-0.3,-23.2,0.91,0,-0.03,0.41
1697353250.13,0.11,-0.27,1.01,-0.2,0,-22.3,0.91,0,-0.03,0.4
1697353250.14,0.11,-0.27,1.01,-0.2,0,-22.3,0.91,0,-0.03,0.4
1697353250.15,0.1,0.03,1.08,-0.9,0.4,-20.9,0.92,0,-0.03,0.4
1697353250.16,0.09,0.01,1.15,0.5,0.5,-21.2,0.92,0,-0.03,0.4
1697353250.17,0.19,-0.2,1.05,0,1,-19.7,0.92,0,-0.03,0.4
1697353250.18,0.09,-0.07,1.1,-1.1,1.4,-18.8,0.92,0,-0.03,0.4
1697353250.19,0.12,-0.2,1.14,-1.1,1.4,-18.8,0.92,0,-0.03,0.4
1697353250.2,0.12,-0.2,1.14,-0.2,1.1,-19.4,0.92,0,-0.03,0.39
1697353250.21,0.29,-0.19,0.42,0.4,1.9,-18.4,0.92,0,-0.03,0.39
1697353250.22,0.29,-0.19,0.42,0.4,1.9,-18.4,0.92,0,-0.03,0.39
1697353250.23,0.21,0.13,0.78,2.8,2.2,-18.3,0.92,0,-0.03,0.39
1697353250.24,0.09,-0.23,0.92,2.4,2.1,-17.9,0.92,0,-0.03,0.39
1697353250.25,0.25,-0.1,0.69,3.8,1.5,-17.7,0.92,0,-0.03,0.39
1697353250.26,0.16,-0.37,1.2,3.7,1.2,-17,0.92,0,-0.03,0.39
1697353250.27,0.23,-0.13,1.08,2.9,0,-17.4,0.92,0,-0.03,0.39
1697353250.28,0.15,-0.23,0.89,0,-0.2,-16,0.92,0,-0.03,0.38
1697353250.29,0.13,0.02,0.85,-0.7,-0.9,-16,0.92,0,-0.03,0.38
1697353250.3,0.18,0.1,0.96,-0.4,-0.9,-15.6,0.92,0,-0.03,0.38
1697353250.31,0.08,-0.1,1.03,0,-1.1,-14.1,0.92,0,-0.03,0.38
1697353250.32,0.23,0.18,0.58,2.6,-0.3,-14.6,0.93,0,-0.03,0.38
1697353250.33,0.12,-0.31,1.03,2.8,0.3,-12.8,0.93,0,-0.03,0.38
1697353250.34,0.11,0.05,1.08,4.6,0.5,-14,0.93,0,-0.03,0.38
1697353250.35,0.17,-0.22,1,2.7,0.8,-13.2,0.93,0,-0.03,0.37
1697353250.36,0.18,-0.04,1.22,2.3,0.8,-13.9,0.93,0,-0.03,0.37
1697353250.37,0.19,0.02,0.98,2.3,0.8,-13.9,0.93,0,-0.03,0.37
1697353250.38,0.17,-0.14,1.09,1.7,-0.3,-13.2,0.93,0,-0.03,0.37
1697353250.39,0.17,0.07,1.04,0.9,-1.3,-13.1,0.93,0,-0.03,0.37
1697353250.4,0.18,-0.11,1.17,0.6,-1.6,-12.7,0.93,0,-0.03,0.37
1697353250.41,0.15,-0.05,0.97,0.7,-2.8,-12.5,0.93,0.01,-0.03,0.37
1697353250.42,0.05,-0.12,0.96,1.1,-3.1,-13.4,0.93,0.01,-0.03,0.37
1697353250.43,0.12,-0.16,0.9,-0.3,-3.1,-13.5,0.93,0.01,-0.03,0.37
1697353250.44,0.12,-0.13,0.87,-2.3,-2.7,-13.3,0.93,0.01,-0.03,0.36
1697353250.45,0.12,0.09,0.93,-2.3,-2.7,-13.3,0.93,0.01,-0.03,0.36
1697353250.46,0.15,-0.05,0.88,-3,-0.8,-13.3,0.93,0.01,-0.03,0.36
1697353250.47,0.16,-0.04,0.82,-1.2,-0.1,-13.5,0.93,0.01,-0.03,0.36
1697353250.48,0.16,-0.04,0.82,-1.2,-0.1,-13.5,0.93,0.01,-0.03,0.36
1697353250.49,0.16,-0.04,0.82,-1.2,-0.1,-13.5,0.93,0.01,-0.03,0.36
1697353250.5,0.16,-0.04,0.82,-1.2,-0.1,-13.5,0.93,0.01,-0.03,0.36
1697353250.51,0.16,-0.04,0.82,-1.2,-0.1,-13.5,0.93,0.01,-0.03,0.36
1697353250.52,0.16,-0.04,0.82,-1.2,-0.1,-13.5,0.93,0.01,-0.03,0.36
1697353250.53,0.16,-0.04,0.82,-1.2,-0.1,-13.5,0.93,0.01,-0.03,0.36
1697353250.54,0.16,-0.04,0.82,-1.2,-0.1,-13.5,0.93,0.01,-0.03,0.36
1697353250.55,0.16,-0.04,0.82,-1.2,-0.1,-13.5,0.93,0.01,-0.03,0.36
1697353250.56,0.16,-0.04,0.82,-1.2,-0.1,-13.5,0.93,0.01,-0.03,0.36
1697353250.57,0.16,-0.04,0.82,-1.2,-0.1,-13.5,0.93,0.01,-0.03,0.36
1697353250.58,0.16,-0.04,0.82,-1.2,-0.1,-13.5,0.93,0.01,-0.03,0.36
1697353250.59,0.16,-0.04,0.82,-1.2,-0.1,-13.5,0.93,0.01,-0.03,0.36
1697353250.6,0.16,-0.04,0.82,-1.2,-0.1,-13.5,0.93,0.01,-0.03,0.36
1697353250.61,0.15,-0.17,0.96,2.8,2.6,-13.8,0.94,0,-0.03,0.35
1697353250.62,0.11,-0.21,1.14,2.7,2.4,-14.3,0.94,0.01,-0.02,0.35
1697353250.63,0.12,-0.09,0.97,0.7,1.7,-13.9,0.94,0.01,-0.02,0.34
1697353250.64,0.17,-0.27,0.93,-0.4,1.1,-13.9,0.94,0.01,-0.02,0.34
1697353250.65,0.15,-0.15,0.94,-0.8,0.4,-14.6,0.94,0.01,-0.02,0.34
1697353250.66,0.09,0.06,0.83,-0.3,0.1,-13.9,0.94,0.01,-0.02,0.34
1697353250.67,0.15,-0.02,0.96,2.5,0,-14.5,0.94,0.01,-0.02,0.34
1697353250.68,0.15,-0.01,0.91,3,0,-14.3,0.94,0.01,-0.02,0.34
1697353250.69,0.13,-0.08,0.8,3.8,0.7,-14.1,0.94,0.01,-0.02,0.34
1697353250.7,0.07,-0.2,0.91,3.6,2.1,-14.5,0.94,0.01,-0.02,0.34
1697353250.71,0.07,-0.14,0.73,3.6,2.2,-14.3,0.94,0.01,-0.02,0.33
1697353250.72,0.07,-0.24,0.82,4.3,4.7,-13.7,0.94,0.01,-0.02,0.33
1697353250.73,0.18,-0.1,0.74,5,6.1,-13.6,0.94,0.01,-0.02,0.33
1697353250.74,0.12,-0.23,0.81,5.3,6.9,-12.7,0.94,0.01,-0.02,0.33
1697353250.75,0.08,-0.38,1.07,4.3,7.1,-13.4,0.94,0.01,-0.02,0.33
1697353250.76,0.16,-0.02,0.91,3.9,7,-13.5,0.94,0.01,-0.02,0.33
1697353250.77,0.24,-0.31,0.78,1.2,4.7,-13,0.94,0.01,-0.02,0.33
1697353250.78,0.21,0.18,0.82,0.3,3.2,-12,0.94,0.01,-0.02,0.33
1697353250.79,0.19,-0.18,0.89,0.3,3.2,-12,0.94,0.01,-0.02,0.33
1697353250.8,0.19,-0.18,0.89,0.7,1.5,-11.8,0.95,0.01,-0.02,0.33
1697353250.81,0.24,-0.06,0.86,0.1,-1.7,-11.6,0.95,0.01,-0.02,0.32
1697353250.82,0.18,0.09,0.54,-0.5,-2.8,-11.3,0.95,0.01,-0.02,0.32
1697353250.83,0.22,-0.01,0.61,-0.2,-3.6,-11.3,0.95,0.01,-0.02,0.32
1697353250.84,0.08,0,0.81,-0.1,-3.4,-11.3,0.95,0.01,-0.02,0.32
1697353250.85,0.07,-0.02,1.2,-0.1,-3.4,-11.3,0.95,0.01,-0.02,0.32
1697353250.86,0.07,-0.2,1.08,0.2,-2.7,-11.9,0.95,0.01,-0.02,0.32
1697353250.87,0.02,-0.19,1.14,-0.3,-1.4,-12,0.95,0.01,-0.02,0.32
1697353250.88,0.05,0,1.05,-0.3,-1.4,-12,0.95,0.01,-0.02,0.32
1697353250.89,0.06,-0.29,1.13,-1.4,0.5,-12,0.95,0.01,-0.02,0.32
1697353250.9,0.06,-0.29,1.13,-1.4,0.5,-12,0.95,0.01,-0.02,0.32
1697353250.91,0.09,-0.16,1,-0.6,1.3,-12.3,0.95,0.01,-0.02,0.31
1697353250.92,0.09,-0.16,1,-0.4,1.6,-11.5,0.95,0.01,-0.02,0.31
1697353250.93,0.08,0.01,1.12,1.4,1.5,-11.2,0.95,0.01,-0.02,0.31
1697353250.94,0.08,-0.16,1.13,2.1,1.1,-10.7,0.95,0.01,-0.02,0.31
1697353250.95,0.2,-0.14,0.93,1.8,0.2,-9.9,0.95,0.01,-0.02,0.31
1697353250.96,0.15,-0.21,1.09,-0.3,-0.7,-9.4,0.95,0.01,-0.02,0.31
1697353250.97,0.13,-0.03,1.19,-0.8,-1.3,-9.2,0.95,0.01,-0.02,0.31
1697353250.98,0.12,-0.16,1.11,0,-1.6,-9.1,0.95,0.01,-0.02,0.31
1697353250.99,0.13,0.07,1.06,1.1,-1.7,-9,0.95,0.01,-0.02,0.31
1697353251,0.15,-0.07,0.87,2.2,-2,-8.8,0.95,0.01,-0.02,0.31
1697353251.01,0.15,-0.07,0.87,2.2,-2,-8.8,0.95,0.01,-0.02,0.31
1697353251.02,0.15,-0.07,0.87,2.2,-2,-8.8,0.95,0.01,-0.02,0.31
1697353251.03,0.15,-0.07,0.87,2.2,-2,-8.8,0.95,0.01,-0.02,0.31
1697353251.04,0.15,-0.07,0.87,2.2,-2,-8.8,0.95,0.01,-0.02,0.31
1697353251.05,0.15,-0.07,0.87,2.2,-2,-8.8,0.95,0.01,-0.02,0.31
1697353251.06,0.15,-0.07,0.87,2.2,-2,-8.8,0.95,0.01,-0.02,0.31
1697353251.07,0.15,-0.07,0.87,2.2,-2,-8.8,0.95,0.01,-0.02,0.31
1697353251.08,0.15,-0.07,0.87,2.2,-2,-8.8,0.95,0.01,-0.02,0.31
1697353251.09,0.15,-0.07,0.87,2.2,-2,-8.8,0.95,0.01,-0.02,0.31
1697353251.1,0.15,-0.07,0.87,2.2,-2,-8.8,0.95,0.01,-0.02,0.31
1697353251.11,0.15,-0.07,0.87,2.2,-2,-8.8,0.95,0.01,-0.02,0.31
1697353251.12,0.15,-0.07,0.87,2.2,-2,-8.8,0.95,0.01,-0.02,0.31
1697353251.13,0.24,-0.01,1,-1,-0.6,-10.9,0.95,0.01,-0.02,0.3
1697353251.14,0.09,-0.19,1.28,0.2,-0.8,-10.9,0.96,0.01,-0.02,0.29
1697353251.15,0.09,-0.19,1.28,0.2,-0.8,-10.9,0.96,0.01,-0.02,0.29
1697353251.16,0.14,-0.05,1.05,0.1,-0.4,-11.5,0.96,0.01,-0.02,0.29
1697353251.17,0.14,-0.17,0.92,0.1,-0.4,-11.5,0.96,0.01,-0.02,0.29
1697353251.18,0.13,-0.21,0.77,-0.1,0.2,-11.3,0.96,0.01,-0.02,0.29
1697353251.19,0.2,-0.07,0.88,-0.5,0.9,-11.6,0.96,0.01,-0.02,0.29
1697353251.2,0.13,-0.21,1.02,-0.5,0.9,-11.6,0.96,0.01,-0.02,0.29
1697353251.21,0.12,-0.1,1.22,-3.1,0.9,-11.2,0.96,0.01,-0.02,0.29
1697353251.22,0.13,0.12,1.12,-0.7,0.2,-11.4,0.96,0.01,-0.02,0.29
1697353251.23,0.1,-0.14,1.32,2.3,0,-11.8,0.96,0.01,-0.02,0.29
1697353251.24,0.1,-0.14,1.32,2.3,0,-11.8,0.96,0.01,-0.02,0.29
1697353251.25,0.13,-0.12,1.2,3.4,0.2,-12.2,0.96,0.01,-0.02,0.28
1697353251.26,0.2,-0.15,1.28,1.8,0.6,-12,0.96,0.01,-0.02,0.28
1697353251.27,0.07,-0.26,0.64,1.1,0.9,-12,0.96,0.01,-0.02,0.28
1697353251.28,0.06,-0.09,0.75,-1,1.5,-12.3,0.96,0.01,-0.02,0.28
1697353251.29,0.06,-0.07,0.67,-1.6,1.8,-12.5,0.96,0.01,-0.02,0.28
1697353251.3,0.14,-0.1,0.69,-1.7,2.3,-11.6,0.96,0.01,-0.02,0.28
1697353251.31,0.1,0.07,0.94,0.6,2.6,-12,0.96,0.01,-0.02,0.28
1697353251.32,0.08,-0.2,1.37,1.1,2.5,-11.2,0.96,0.01,-0.02,0.28
1697353251.33,0.1,-0.19,1.26,2.2,2.5,-11.2,0.96,0.01,-0.02,0.28
1697353251.34,0.13,-0.12,1.24,1.7,2.7,-11.5,0.96,0.01,-0.02,0.28
1697353251.35,0.09,-0.21,1.53,-0.1,2.9,-11.3,0.96,0.01,-0.02,0.27
1697353251.36,0.22,0.02,1.02,-0.7,2.8,-11.3,0.96,0.01,-0.02,0.27
1697353251.37,0.24,-0.06,0.82,-0.4,2.3,-11.1,0.96,0.01,-0.02,0.27
1697353251.38,0.13,-0.13,1.18,1.5,0.6,-10.8,0.96,0.01,-0.02,0.27
1697353251.39,0.15,-0.15,1.46,1.6,0.5,-11.4,0.96,0.01,-0.02,0.27
1697353251.4,0.13,-0.14,1.39,-0.3,0.9,-11.4,0.96,0.01,-0.02,0.27
1697353251.41,0.27,-0.08,1.25,-2,1.1,-11.1,0.96,0.01,-0.02,0.27
1697353251.42,0.1,-0.19,1.13,-1.3,1.5,-11.8,0.96,0.01,-0.02,0.27
1697353251.43,-0.02,0.16,1.17,-0.5,1.7,-10.6,0.96,0.01,-0.02,0.27
1697353251.44,0.13,-0.13,0.73,4.2,2.3,-10.9,0.96,0.01,-0.02,0.27
1697353251.45,0.07,-0.03,1.31,4.2,2.3,-10.9,0.96,0.01,-0.02,0.27
1697353251.46,0.14,-0.3,1.13,2.5,1.8,-10.5,0.96,0.01,-0.02,0.26
1697353251.47,0.18,-0.17,1.31,2.5,1.8,-10.5,0.96,0.01,-0.02,0.26
1697353251.48,0.18,-0.05,0.72,-2.2,0.2,-10.4,0.96,0.01,-0.02,0.26
1697353251.49,0.03,-0.22,1.07,-2.7,0,-10.3,0.96,0.01,-0.02,0.26
1697353251.5,0.05,0.09,1.07,-2.7,0,-10.3,0.97,0.01,-0.02,0.26
1697353251.51,0.05,0.09,1.07,-2.6,0,-10.4,0.97,0.01,-0.02,0.26
1697353251.52,0.18,0.18,1.09,-2,0.3,-10.1,0.97,0.01,-0.02,0.26
1697353251.53,0.1,-0.04,1.27,-2,0.3,-10.1,0.97,0.01,-0.02,0.26
1697353251.54,0.1,-0.04,1.27,-2,0.3,-10.1,0.97,0.01,-0.02,0.26
1697353251.55,0.1,-0.04,1.27,-2,0.3,-10.1,0.97,0.01,-0.02,0.26
1697353251.56,0.1,-0.04,1.27,-2,0.3,-10.1,0.97,0.01,-0.02,0.26
1697353251.57,0.1,-0.04,1.27,-2,0.3,-10.1,0.97,0.01,-0.02,0.26
1697353251.58,0.1,-0.04,1.27,-2,0.3,-10.1,0.97,0.01,-0.02,0.26
1697353251.59,0.1,-0.04,1.27,-2,0.3,-10.1,0.97,0.01,-0.02,0.26
1697353251.6,0.1,-0.04,1.27,-2,0.3,-10.1,0.97,0.01,-0.02,0.26
1697353251.61,0.1,-0.04,1.27,-2,0.3,-10.1,0.97,0.01,-0.02,0.26
1697353251.62,0.1,-0.04,1.27,-2,0.3,-10.1,0.97,0.01,-0.02,0.26
1697353251.63,0.1,-0.04,1.27,-2,0.3,-10.1,0.97,0.01,-0.02,0.26
1697353251.64,0.1,-0.04,1.27,-2,0.3,-10.1,0.97,0.01,-0.02,0.26
1697353251.65,0.1,-0.04,1.27,-2,0.3,-10.1,0.97,0.01,-0.02,0.26
1697353251.66,0.09,-0.18,1,-2.3,1.3,-7.2,0.97,0.01,-0.02,0.25
1697353251.67,0.1,0.1,0.86,-1.5,1.7,-8,0.97,0.01,-0.02,0.25
1697353251.68,0.1,-0.14,1.13,-1.5,1.7,-7.6,0.97,0.01,-0.02,0.25
1697353251.69,0.18,-0.07,1.01,-0.4,1.8,-7.9,0.97,0.01,-0.02,0.25
1697353251.7,0.11,-0.09,0.89,-1.5,1.8,-7.9,0.97,0.01,-0.02,0.25
1697353251.71,0.1,-0.06,0.94,-1.8,1.7,-7.9,0.97,0.01,-0.02,0.24
1697353251.72,0.07,-0.08,1.16,-1.8,1.7,-7.9,0.97,0.01,-0.02,0.24
1697353251.73,0.07,0.01,1.11,1.1,1.1,-8.1,0.97,0.01,-0.02,0.24
1697353251.74,0.07,-0.17,1.18,1.1,1.1,-8.1,0.97,0.01,-0.02,0.24
1697353251.75,0.13,-0.17,0.85,2.6,0.3,-7.6,0.97,0.01,-0.02,0.24
1697353251.76,0.13,-0.15,0.92,1.9,-0.4,-7.6,0.97,0.01,-0.02,0.24
1697353251.77,0.1,-0.02,1.04,1.1,-0.3,-7,0.97,0.01,-0.02,0.24
1697353251.78,0.1,-0.02,1.04,1.1,-0.3,-7,0.97,0.01,-0.02,0.24
1697353251.79,0.08,-0.04,1.05,2.9,-0.5,-5.5,0.97,0.01,-0.02,0.24
1697353251.8,0.08,-0.04,1.05,2.9,-0.5,-5.5,0.97,0.01,-0.02,0.24
1697353251.81,0.05,0.07,1.14,2.3,-0.2,-5.4,0.97,0.01,-0.02,0.24
1697353251.82,0.15,-0.14,1.18,2.2,-0.2,-6,0.97,0.01,-0.02,0.24
1697353251.83,0.06,0.06,1,0.1,-0.1,-5.7,0.97,0.01,-0.02,0.24
1697353251.84,0,-0.05,0.93,0.1,-0.1,-5.7,0.97,0.01,-0.02,0.24
1697353251.85,0,-0.05,0.93,-1.3,-0.6,-5.4,0.97,0.01,-0.02,0.24
1697353251.86,0.1,0.17,0.94,-0.2,-0.9,-4.2,0.97,0.01,-0.02,0.24
1697353251.87,0.1,0.17,0.94,-0.2,-0.9,-4.2,0.97,0.01,-0.02,0.24
1697353251.88,0.12,0.09,0.88,0.7,-0.9,-3.8,0.97,0.01,-0.02,0.24
1697353251.89,0.09,0.01,1.1,1.2,-0.7,-3.5,0.97,0.01,-0.02,0.24
1697353251.9,0.09,0.01,1.1,0.3,-0.3,-2.9,0.97,0.01,-0.02,0.24
1697353251.91,-0.01,-0.11,1.06,-1,0,-3.2,0.97,0.01,-0.02,0.24
1697353251.92,-0.02,-0.02,0.96,-2.2,0.3,-3.1,0.97,0.01,-0.02,0.24
1697353251.93,0.06,0,0.92,-1.9,0.5,-3.1,0.97,0.01,-0.02,0.23
1697353251.94,0.05,0.03,1.14,-0.1,0.2,-3.5,0.97,0.01,-0.02,0.23
1697353251.95,0.02,-0.02,1.03,0.4,-0.2,-3.2,0.97,0.01,-0.02,0.23
1697353251.96,0,-0.02,1.28,0.5,-0.3,-3.4,0.97,0.01,-0.02,0.23
1697353251.97,0.04,-0.03,1.09,-0.2,-0.4,-3,0.97,0.01,-0.02,0.23
1697353251.98,-0.01,-0.02,1.12,-0.5,-0.4,-2.8,0.97,0.01,-0.02,0.23
1697353251.99,0.01,0.05,0.95,-0.3,0,-2.3,0.97,0.01,-0.02,0.23
1697353252,0.06,-0.01,1.14,0.1,0.3,-1.9,0.97,0.01,-0.02,0.23
1697353252.01,0.07,-0.02,1.11,0.2,0.6,-1.9,0.97,0.01,-0.02,0.23
1697353252.02,0.12,0.01,0.85,-0.3,0.6,-1.6,0.97,0.01,-0.02,0.23
1697353252.03,0.04,0.02,1.12,-0.3,0.3,-1.4,0.97,0.01,-0.02,0.23
1697353252.04,0.05,-0.02,1.1,0.6,-0.3,-1.6,0.97,0.01,-0.02,0.23
1697353252.05,0.05,-0.02,1.1,0.6,-0.3,-1.6,0.97,0.01,-0.02,0.23
1697353252.06,0.05,-0.02,1.1,0.6,-0.3,-1.6,0.97,0.01,-0.02,0.23
1697353252.07,0.05,-0.02,1.1,0.6,-0.3,-1.6,0.97,0.01,-0.02,0.23
1697353252.08,0.05,-0.02,1.1,0.6,-0.3,-1.6,0.97,0.01,-0.02,0.23
1697353252.09,0.05,-0.02,1.1,0.6,-0.3,-1.6,0.97,0.01,-0.02,0.23
1697353252.1,0.05,-0.02,1.1,0.6,-0.3,-1.6,0.97,0.01,-0.02,0.23
1697353252.11,0.05,-0.02,1.1,0.6,-0.3,-1.6,0.97,0.01,-0.02,0.23
1697353252.12,0.05,-0.02,1.1,0.6,-0.3,-1.6,0.97,0.01,-0.02,0.23
1697353252.13,0.05,-0.02,1.1,0.6,-0.3,-1.6,0.97,0.01,-0.02,0.23
1697353252.14,0.05,-0.02,1.1,0.6,-0.3,-1.6,0.97,0.01,-0.02,0.23
1697353252.15,0.05,-0.02,1.1,0.6,-0.3,-1.6,0.97,0.01,-0.02,0.23
1697353252.16,0.05,-0.02,1.1,0.6,-0.3,-1.6,0.97,0.01,-0.02,0.23
1697353252.17,0.05,-0.02,1.1,0.6,-0.3,-1.6,0.97,0.01,-0.02,0.23
1697353252.18,0.05,-0.02,1.1,0.6,-0.3,-1.6,0.97,0.01,-0.02,0.23
1697353252.19,0.05,-0.02,1.1,0.6,-0.3,-1.6,0.97,0.01,-0.02,0.23
1697353252.2,0.05,-0.02,1.1,0.6,-0.3,-1.6,0.97,0.01,-0.02,0.23
1697353252.21,0.05,-0.02,1.1,0.6,-0.3,-1.6,0.97,0.01,-0.02,0.23
1697353252.22,0.11,0.01,1.15,1,-0.7,-0.9,0.97,0.01,-0.02,0.23
1697353252.23,0.06,-0.02,1.04,0.9,-0.7,-0.3,0.97,0.01,-0.02,0.23
1697353252.24,0.06,-0.02,1.04,0.9,-0.7,-0.3,0.97,0.01,-0.02,0.23
1697353252.25,0.1,0.06,0.97,0.7,-0.5,0,0.97,0.01,-0.02,0.23
1697353252.26,0.17,0.01,0.91,1,-0.2,0,0.97,0.01,-0.02,0.23
1697353252.27,0.03,0.01,0.96,1.5,-0.3,0,0.97,0.01,-0.02,0.23
1697353252.28,0.06,0.01,0.98,1.6,-0.5,0.2,0.97,0.01,-0.02,0.23
1697353252.29,0.08,0.02,0.99,1.5,-0.5,0.5,0.97,0.01,-0.02,0.23
1697353252.3,0.07,0.03,0.9,0.9,-0.8,0.6,0.97,0.01,-0.02,0.23
1697353252.31,0.07,0.04,1.01,0.5,-0.9,0.9,0.97,0.01,-0.02,0.23
1697353252.32,0.07,0.08,1.13,0.2,-0.8,1.4,0.97,0.01,-0.02,0.23
1697353252.33,0.14,0.08,0.85,0,-0.6,1.7,0.97,0.01,-0.02,0.23
1697353252.34,0.18,0.07,0.99,0,-0.6,1.9,0.97,0.01,-0.02,0.23
1697353252.35,0.12,0.05,1.08,-0.8,-0.6,1.8,0.97,0.01,-0.02,0.23
1697353252.36,0.03,0.02,0.9,-2.1,-0.5,1.7,0.97,0.01,-0.02,0.23
1697353252.37,0.05,0.14,0.92,-2.7,0,1.3,0.97,0.01,-0.02,0.23
1697353252.38,0.07,0.09,1.03,-2.4,0.4,1.2,0.97,0.01,-0.02,0.23
1697353252.39,0.04,0.08,0.89,-2.4,0.4,1.2,0.97,0.01,-0.02,0.23
1697353252.4,0.07,0.05,1.01,0.1,0.6,0.9,0.97,0.01,-0.02,0.23
1697353252.41,0.04,-0.02,0.94,0.3,0.4,0.8,0.97,0.01,-0.02,0.23
1697353252.42,-0.02,-0.06,1.07,0,0.4,0.7,0.97,0.01,-0.02,0.23
1697353252.43,0.08,-0.1,0.94,-1.6,0,0.6,0.97,0.01,-0.02,0.23
1697353252.44,0.05,-0.01,0.94,-2.3,0,0.9,0.97,0.01,-0.02,0.23
1697353252.45,-0.01,0.02,1.07,-1.6,0.1,0.9,0.97,0.01,-0.02,0.23
1697353252.46,0.06,-0.01,1.01,-1.6,0.4,1.1,0.97,0.01,-0.02,0.23
1697353252.47,0.06,-0.01,1.01,-1.6,0.4,1.1,0.97,0.01,-0.02,0.23
1697353252.48,-0.05,0.07,0.93,-2,0.3,1.4,0.97,0.01,-0.02,0.23
1697353252.49,0.01,0.06,0.99,-0.1,1,1.5,0.97,0.01,-0.02,0.23
1697353252.5,0,-0.02,1.1,-0.1,1,1.5,0.97,0.01,-0.02,0.23
1697353252.51,0.04,-0.12,1.19,1.9,1.8,0.7,0.97,0.01,-0.02,0.23
1697353252.52,0.14,-0.06,0.89,1.9,1.8,0.7,0.97,0.01,-0.02,0.23
1697353252.53,0.03,-0.09,1.01,0.2,0.6,0.3,0.97,0.01,-0.02,0.23
1697353252.54,0.03,-0.09,1.01,0.2,0.6,0.3,0.97,0.01,-0.02,0.23
1697353252.55,0.03,-0.03,0.83,0.3,0,0.1,0.97,0.01,-0.02,0.23
1697353252.56,-0.05,0.03,1.13,1.6,-0.3,0.3,0.97,0.01,-0.02,0.23
1697353252.57,-0.04,0,1.15,1.9,-0.6,0.3,0.97,0.01,-0.02,0.23
1697353252.58,0.02,0.06,0.99,3,-0.6,0.2,0.97,0.01,-0.02,0.23
1697353252.59,-0.03,-0.06,1.03,2.5,-0.4,0.1,0.97,0.01,-0.02,0.23
1697353252.6,-0.06,-0.1,0.77,0.4,0.6,0,0.97,0.01,-0.02,0.23
1697353252.61,-0.05,0.01,1,-0.2,0.7,0.1,0.97,0.01,-0.02,0.23
1697353252.62,-0.05,0.01,1,-0.2,0.7,0.1,0.97,0.01,-0.02,0.23
1697353252.63,-0.05,0.01,1,-0.2,0.7,0.1,0.97,0.01,-0.02,0.23
1697353252.64,-0.05,0.01,1,-0.2,0.7,0.1,0.97,0.01,-0.02,0.23
1697353252.65,-0.05,0.01,1,-0.2,0.7,0.1,0.97,0.01,-0.02,0.23
1697353252.66,-0.05,0.01,1,-0.2,0.7,0.1,0.97,0.01,-0.02,0.23
1697353252.67,-0.05,0.01,1,-0.2,0.7,0.1,0.97,0.01,-0.02,0.23
1697353252.68,-0.05,0.01,1,-0.2,0.7,0.1,0.97,0.01,-0.02,0.23
1697353252.69,-0.05,0.01,1,-0.2,0.7,0.1,0.97,0.01,-0.02,0.23
1697353252.7,-0.05,0.01,1,-0.2,0.7,0.1,0.97,0.01,-0.02,0.23
1697353252.71,-0.05,0.01,1,-0.2,0.7,0.1,0.97,0.01,-0.02,0.23
1697353252.72,-0.05,0.01,1,-0.2,0.7,0.1,0.97,0.01,-0.02,0.23
1697353252.73,-0.05,0.01,1,-0.2,0.7,0.1,0.97,0.01,-0.02,0.23
1697353252.74,-0.1,0.01,1.08,-1.2,-0.8,0,0.97,0.01,-0.02,0.23
1697353252.75,0.06,0.06,0.59,-0.9,-1.4,0.4,0.97,0.01,-0.02,0.23
1697353252.76,-0.06,0.02,0.89,1.4,-1.9,0.7,0.97,0.01,-0.02,0.23
1697353252.77,-0.06,0.02,0.89,1.4,-1.9,0.7,0.97,0.01,-0.02,0.23
1697353252.78,-0.03,-0.11,0.96,0.9,-0.7,0.5,0.97,0.01,-0.02,0.23
1697353252.79,-0.03,-0.11,0.96,0.9,-0.7,0.5,0.97,0.01,-0.02,0.23
1697353252.8,-0.01,-0.04,1.01,-2.2,0.5,0.1,0.97,0.01,-0.02,0.23
1697353252.81,-0.11,0.1,0.95,-2.2,0.5,0.1,0.97,0.01,-0.02,0.23
1697353252.82,-0.21,0.15,1.47,-1.6,1,0.1,0.97,0.01,-0.02,0.23
1697353252.83,-0.13,0.01,1.25,0.8,1.5,0,0.97,0.01,-0.02,0.23
1697353252.84,-0.09,-0.03,0.99,2,2,-0.6,0.97,0.01,-0.02,0.23
1697353252.85,-0.09,-0.03,0.99,2,2,-0.6,0.97,0.01,-0.02,0.23
1697353252.86,-0.01,-0.13,1.01,-3.9,0.8,-1.9,0.97,0.01,-0.02,0.23
1697353252.87,-0.02,0.1,1.04,-4.1,0.5,-2,0.97,0.01,-0.02,0.23
1697353252.88,-0.02,0.1,1.04,-4.3,0,-1.6,0.97,0.01,-0.02,0.23
1697353252.89,-0.01,0.14,1.01,-2.1,-0.7,-1.3,0.97,0.01,-0.02,0.23
1697353252.9,0.02,0.08,0.95,0.2,-1.3,-1,0.97,0.01,-0.02,0.23
1697353252.91,-0.06,-0.05,1.05,0.3,-1.6,-0.9,0.97,0.01,-0.02,0.23
1697353252.92,-0.05,-0.12,1.09,-1.5,-2.4,-0.8,0.97,0.01,-0.02,0.23
1697353252.93,-0.11,-0.11,0.91,-2.1,-2.3,-0.8,0.97,0.01,-0.02,0.23
1697353252.94,-0.25,-0.01,1.14,-2.7,-2.2,-0.6,0.97,0.01,-0.02,0.23
1697353252.95,-0.23,0.02,1.11,-0.5,-1.4,-0.7,0.97,0.01,-0.02,0.23
1697353252.96,-0.16,0.03,1.14,1.1,-0.8,-0.6,0.97,0.01,-0.02,0.23
1697353252.97,-0.08,-0.01,0.97,1.6,-0.9,-0.5,0.97,0.01,-0.02,0.23
1697353252.98,0,-0.09,1.01,1,-1.4,-0.5,0.97,0.01,-0.02,0.23
1697353252.99,-0.01,-0.04,1.01,-0.3,-2.2,-0.4,0.97,0.01,-0.02,0.23
1697353253,-0.01,-0.02,1.15,-0.6,-2.7,-0.3,0.97,0.01,-0.02,0.23
1697353253.01,-0.03,0.02,0.96,-0.5,-2.5,-0.1,0.97,0.01,-0.02,0.23
1697353253.02,-0.03,0.02,0.96,-0.5,-2.5,-0.1,0.97,0.01,-0.02,0.23
1697353253.03,0.09,0.14,0.92,4.4,-2.7,0.3,0.97,0.01,-0.02,0.23
1697353253.04,0.05,-0.03,0.91,4.8,-3,0,0.97,0.01,-0.02,0.23
1697353253.05,-0.03,-0.09,1.02,3.7,-3.5,-0.1,0.97,0.01,-0.02,0.23
1697353253.06,-0.01,-0.13,1,1.5,-3.8,-0.3,0.97,0.01,-0.02,0.23
1697353253.07,-0.04,-0.16,1.18,-0.6,-3.9,-0.6,0.97,0.01,-0.02,0.23
1697353253.08,-0.08,0.03,1.02,-1.8,-3.7,-0.3,0.97,0.01,-0.02,0.23
1697353253.09,-0.04,0.06,0.84,-1.2,-3.1,-0.1,0.97,0.01,-0.02,0.23
1697353253.1,0.02,0.15,0.93,-0.9,-2.9,-0.2,0.97,0.01,-0.02,0.23
1697353253.11,-0.02,0.07,0.89,0.5,-2.2,0,0.97,0.01,-0.02,0.23
1697353253.12,-0.01,-0.01,0.94,0.5,-2.2,0,0.97,0.01,-0.02,0.23
1697353253.13,-0.01,-0.01,0.94,1.1,-1.9,0.2,0.97,0.01,-0.02,0.23
1697353253.14,-0.01,-0.01,0.94,1.1,-1.9,0.2,0.97,0.01,-0.02,0.23
1697353253.15,-0.01,-0.01,0.94,1.1,-1.9,0.2,0.97,0.01,-0.02,0.23
1697353253.16,-0.01,-0.01,0.94,1.1,-1.9,0.2,0.97,0.01,-0.02,0.23
1697353253.17,-0.01,-0.01,0.94,1.1,-1.9,0.2,0.97,0.01,-0.02,0.23
1697353253.18,-0.01,-0.01,0.94,1.1,-1.9,0.2,0.97,0.01,-0.02,0.23
1697353253.19,-0.01,-0.01,0.94,1.1,-1.9,0.2,0.97,0.01,-0.02,0.23
1697353253.2,-0.01,-0.01,0.94,1.1,-1.9,0.2,0.97,0.01,-0.02,0.23
1697353253.21,-0.01,-0.01,0.94,1.1,-1.9,0.2,0.97,0.01,-0.02,0.23
1697353253.22,-0.01,-0.01,0.94,1.1,-1.9,0.2,0.97,0.01,-0.02,0.23
1697353253.23,-0.01,-0.01,0.94,1.1,-1.9,0.2,0.97,0.01,-0.02,0.23
1697353253.24,-0.01,-0.01,0.94,1.1,-1.9,0.2,0.97,0.01,-0.02,0.23
1697353253.25,-0.01,-0.01,0.94,-0.7,1.2,-0.2,0.97,0.01,-0.02,0.23
1697353253.26,0.01,-0.03,0.86,-1.1,0.4,-0.2,0.97,0.01,-0.02,0.23
1697353253.27,-0.02,-0.08,1.15,-2.1,-0.3,-0.2,0.97,0.01,-0.02,0.23
1697353253.28,-0.02,-0.06,1.09,-2.3,-1.2,-0.2,0.97,0.01,-0.02,0.23
1697353253.29,0,0.01,0.86,-2.2,-1.6,-0.4,0.97,0.01,-0.02,0.23
1697353253.3,-0.07,0.06,0.94,-0.7,-1.4,-0.5,0.97,0.01,-0.02,0.23
1697353253.31,-0.09,-0,1.02,1.4,-0.5,-0.8,0.97,0.01,-0.02,0.23
1697353253.32,-0.16,0.02,1.1,1.4,-0.5,-0.8,0.97,0.01,-0.02,0.23
1697353253.33,-0.08,-0.1,1.1,2.1,0.4,-0.7,0.97,0.01,-0.02,0.23
1697353253.34,-0.08,-0.1,0.88,1.7,1.6,-0.8,0.97,0.01,-0.02,0.23
1697353253.35,-0.09,-0.11,1.13,0.7,2.6,-0.9,0.97,0.01,-0.02,0.23
1697353253.36,-0.03,-0.02,1.01,-0.3,2.8,-0.7,0.97,0.01,-0.02,0.23
1697353253.37,-0.04,-0,1,-0.7,2.6,-0.4,0.97,0.01,-0.02,0.23
1697353253.38,-0.13,0.07,1.26,-0.2,2.1,-0.4,0.97,0.01,-0.02,0.23
1697353253.39,-0.06,0.03,1.01,0.9,1.6,-0.1,0.97,0.01,-0.02,0.23
1697353253.4,-0.14,-0.04,1.08,1.5,1.1,0,0.97,0.01,-0.02,0.23
1697353253.41,-0.12,-0.01,0.89,0.9,0.2,-0.4,0.97,0.01,-0.02,0.23
1697353253.42,-0.12,-0.01,0.89,0.9,0.2,-0.4,0.97,0.01,-0.02,0.23
1697353253.43,-0.02,0.04,0.86,-1.1,-1.4,-0.5,0.97,0.01,-0.02,0.23
1697353253.44,0.03,0.06,0.92,-1.1,-1.4,-0.5,0.97,0.01,-0.02,0.23
1697353253.45,-0.04,0.03,1.04,0.2,-1.7,-0.3,0.97,0.01,-0.02,0.23
1697353253.46,-0.05,-0.02,0.9,0.2,-1.7,-0.3,0.97,0.01,-0.02,0.23
1697353253.47,-0.03,-0.08,0.85,0.4,-1,-0.4,0.97,0.01,-0.02,0.23
1697353253.48,-0.03,-0.08,0.85,0.4,-1,-0.4,0.97,0.01,-0.02,0.23
1697353253.49,-0.06,-0.06,1.05,-0.4,0.3,-0.6,0.97,0.01,-0.02,0.23
1697353253.5,-0.07,-0.04,1,-0.4,0.3,-0.6,0.97,0.01,-0.02,0.23
1697353253.51,-0.04,-0.03,1.05,-0.6,1.6,-0.4,0.97,0.01,-0.02,0.23
1697353253.52,-0.04,-0.03,1.05,-0.6,1.6,-0.4,0.97,0.01,-0.02,0.23
1697353253.53,-0.04,0.1,0.86,-2.3,1.5,0.2,0.97,0.01,-0.02,0.23
1697353253.54,-0.04,0.1,0.86,-2.3,1.5,0.2,0.97,0.01,-0.02,0.23
1697353253.55,-0.04,0.12,1.05,-2,1,0.3,0.97,0.01,-0.02,0.23
1697353253.56,-0.09,-0.03,1.02,-0.4,0.7,1,0.97,0.01,-0.02,0.23
1697353253.57,-0.01,-0.08,0.94,1.6,0.2,1.5,0.97,0.01,-0.02,0.23
1697353253.58,0,-0.04,0.96,2.8,0,1.5,0.97,0.01,-0.02,0.23
1697353253.59,-0.07,0.04,0.94,1.5,-0.2,1.5,0.97,0.01,-0.02,0.23
1697353253.6,-0.05,0.16,0.95,-0.2,-0.6,1.6,0.97,0.01,-0.02,0.23
1697353253.61,-0.07,0.15,1.08,-0.7,-1.1,1.7,0.97,0.01,-0.02,0.23
1697353253.62,-0.07,0.23,0.92,-0.2,-1.1,2.2,0.97,0.01,-0.02,0.23
1697353253.63,-0.15,0.18,1.25,-0.2,-1.1,2.2,0.97,0.01,-0.02,0.23
1697353253.64,-0.15,0.18,1.25,-0.2,-1.1,2.2,0.97,0.01,-0.02,0.23
1697353253.65,-0.15,0.18,1.25,-0.2,-1.1,2.2,0.97,0.01,-0.02,0.23
1697353253.66,-0.15,0.18,1.25,-0.2,-1.1,2.2,0.97,0.01,-0.02,0.23
1697353253.67,-0.15,0.18,1.25,-0.2,-1.1,2.2,0.97,0.01,-0.02,0.23
1697353253.68,-0.15,0.18,1.25,-0.2,-1.1,2.2,0.97,0.01,-0.02,0.23
1697353253.69,-0.15,0.18,1.25,-0.2,-1.1,2.2,0.97,0.01,-0.02,0.23
1697353253.7,-0.15,0.18,1.25,-0.2,-1.1,2.2,0.97,0.01,-0.02,0.23
1697353253.71,-0.15,0.18,1.25,-0.2,-1.1,2.2,0.97,0.01,-0.02,0.23
1697353253.72,-0.15,0.18,1.25,-0.2,-1.1,2.2,0.97,0.01,-0.02,0.23
1697353253.73,-0.15,0.18,1.25,-0.2,-1.1,2.2,0.97,0.01,-0.02,0.23
1697353253.74,-0.15,0.18,1.25,-0.2,-1.1,2.2,0.97,0.01,-0.02,0.23
1697353253.75,-0.07,0.22,0.86,-0.8,1.3,10.5,0.97,0.01,-0.02,0.24
1697353253.76,-0.13,0.29,1.05,-1.9,0.7,11,0.97,0.01,-0.02,0.24
1697353253.77,-0.13,0.29,1.05,-2,0.4,11.7,0.97,0.01,-0.02,0.24
1697353253.78,-0.09,0.27,0.95,-0.7,0.3,12.6,0.97,0.01,-0.02,0.24
1697353253.79,-0.09,0.23,0.88,0.8,0.8,13.6,0.97,0.01,-0.02,0.24
1697353253.8,-0.14,0.22,1.1,1.7,1.1,14.9,0.97,0.01,-0.02,0.24
1697353253.81,-0.12,0.13,1.03,1.5,1.8,15.9,0.97,0.01,-0.02,0.24
1697353253.82,-0.12,0.13,1.03,1.5,1.8,15.9,0.97,0.01,-0.02,0.24
1697353253.83,-0.08,0.3,1.1,-3.3,2.7,17.1,0.97,0.01,-0.02,0.25
1697353253.84,-0.08,0.3,1.1,-3.3,2.7,17.1,0.97,0.01,-0.02,0.25
1697353253.85,-0.06,0.43,1.02,-2.1,2.5,18.9,0.97,0.01,-0.02,0.25
1697353253.86,-0.05,0.27,1,1,1.6,19.7,0.97,0.01,-0.02,0.25
1697353253.87,-0.05,0.06,0.98,1,1.6,19.7,0.97,0.01,-0.02,0.25
1697353253.88,-0.07,0.01,0.98,3.4,0.8,19.8,0.97,0.01,-0.02,0.26
1697353253.89,-0.09,0.05,1.06,-0.1,-0.2,19,0.97,0.01,-0.02,0.26
1697353253.9,-0.09,0.05,1.06,-0.1,-0.2,19,0.97,0.01,-0.02,0.26
1697353253.91,-0.02,0.16,0.96,-2.7,-0.5,18.5,0.97,0.01,-0.02,0.26
1697353253.92,-0.06,0.33,1,-2.7,-0.7,18.2,0.97,0.01,-0.02,0.26
1697353253.93,-0.08,0.31,1.01,-0.5,-0.5,18.4,0.96,0.01,-0.02,0.26
1697353253.94,-0.09,0.26,1.07,1.9,-0.3,18.7,0.96,0.01,-0.02,0.26
1697353253.95,-0.04,0.13,0.92,3,0.3,19.3,0.96,0.01,-0.02,0.27
1697353253.96,-0.17,0.14,1.04,2.3,0.7,19.9,0.96,0.01,-0.02,0.27
1697353253.97,-0.17,0.21,1.24,1,1.4,21.6,0.96,0.01,-0.02,0.27
1697353253.98,-0.08,0.28,1.07,1.6,1.5,22.3,0.96,0.01,-0.02,0.27
1697353253.99,-0.03,0.17,0.94,1.8,1.2,22.9,0.96,0.01,-0.02,0.27
1697353254,-0.04,0.22,1,0.9,0.7,23.5,0.96,0.01,-0.02,0.28
1697353254.01,-0.02,0.24,0.9,0.2,0.3,24,0.96,0.01,-0.02,0.28
1697353254.02,-0.07,0.27,0.92,0.4,-0.1,24.4,0.96,0.01,-0.02,0.28
1697353254.03,-0.1,0.38,1.03,1.2,-0.5,25,0.96,0.01,-0.02,0.28
1697353254.04,-0.05,0.33,0.91,2.3,-0.7,25.6,0.96,0.01,-0.02,0.28
1697353254.05,-0.1,0.37,0.97,2.8,-0.7,26,0.96,0.01,-0.02,0.29
1697353254.06,-0.14,0.3,1.12,2.1,-0.4,26.4,0.96,0.01,-0.02,0.29
1697353254.07,-0.12,0.27,0.95,0.9,0,26.8,0.96,0.01,-0.02,0.29
1697353254.08,-0.12,0.36,1.12,-0.2,0.4,27.5,0.96,0.01,-0.01,0.29
1697353254.09,-0.06,0.35,0.92,-0.5,0.8,28.2,0.95,0.01,-0.01,0.3
1697353254.1,-0.07,0.32,0.95,0.4,0.5,28.8,0.95,0.01,-0.01,0.3
1697353254.11,-0.12,0.4,1.24,1.5,0.4,29.5,0.95,0.01,-0.01,0.3
1697353254.12,-0.08,0.37,1.02,1.5,0.7,30.1,0.95,0.01,-0.01,0.3
1697353254.13,-0.03,0.27,1.14,0.3,0.8,30.2,0.95,0.01,-0.01,0.31
1697353254.14,0.02,0.29,0.94,-0.9,0.6,30.5,0.95,0.01,-0.01,0.31
1697353254.15,0.02,0.29,0.94,-0.9,0.6,30.5,0.95,0.01,-0.01,0.31
1697353254.16,0.02,0.29,0.94,-0.9,0.6,30.5,0.95,0.01,-0.01,0.31
1697353254.17,0.02,0.29,0.94,-0.9,0.6,30.5,0.95,0.01,-0.01,0.31
1697353254.18,0.02,0.29,0.94,-0.9,0.6,30.5,0.95,0.01,-0.01,0.31
1697353254.19,0.02,0.29,0.94,-0.9,0.6,30.5,0.95,0.01,-0.01,0.31
1697353254.2,0.02,0.29,0.94,-0.9,0.6,30.5,0.95,0.01,-0.01,0.31
1697353254.21,0.02,0.29,0.94,-0.9,0.6,30.5,0.95,0.01,-0.01,0.31
1697353254.22,0.02,0.29,0.94,-0.9,0.6,30.5,0.95,0.01,-0.01,0.31
1697353254.23,0.02,0.29,0.94,-0.9,0.6,30.5,0.95,0.01,-0.01,0.31
1697353254.24,0.02,0.29,0.94,-0.9,0.6,30.5,0.95,0.01,-0.01,0.31
1697353254.25,0.02,0.29,0.94,-0.9,0.6,30.5,0.95,0.01,-0.01,0.31
1697353254.26,0.02,0.29,0.94,-0.9,0.6,30.5,0.95,0.01,-0.01,0.31
1697353254.27,0.02,0.29,0.94,-0.9,0.6,30.5,0.95,0.01,-0.01,0.31
1697353254.28,0.02,0.29,0.94,-0.9,0.6,30.5,0.95,0.01,-0.01,0.31
1697353254.29,0.02,0.29,0.94,-0.9,0.6,30.5,0.95,0.01,-0.01,0.31
1697353254.3,0.02,0.29,0.94,-0.9,0.6,30.5,0.95,0.01,-0.01,0.31
1697353254.31,0.02,0.29,0.94,-0.9,0.6,30.5,0.95,0.01,-0.01,0.31
1697353254.32,0.02,0.29,0.94,-0.9,0.6,30.5,0.95,0.01,-0.01,0.31
1697353254.33,0.02,0.29,0.94,-0.9,0.6,30.5,0.95,0.01,-0.01,0.31
1697353254.34,0.02,0.29,0.94,-0.9,0.6,30.5,0.95,0.01,-0.01,0.31
1697353254.35,0.02,0.29,0.94,-0.9,0.6,30.5,0.95,0.01,-0.01,0.31
1697353254.36,0.02,0.29,0.94,-0.9,0.6,30.5,0.95,0.01,-0.01,0.31
1697353254.37,0.02,0.29,0.94,-0.9,0.6,30.5,0.95,0.01,-0.01,0.31
1697353254.38,0.02,0.29,0.94,-0.9,0.6,30.5,0.95,0.01,-0.01,0.31
1697353254.39,0.02,0.29,0.94,-0.9,0.6,30.5,0.95,0.01,-0.01,0.31
1697353254.4,0.02,0.29,0.94,-0.9,0.6,30.5,0.95,0.01,-0.01,0.31
1697353254.41,0.02,0.29,0.94,-0.9,0.6,30.5,0.95,0.01,-0.01,0.31
1697353254.42,0.02,0.29,0.94,-0.9,0.6,30.5,0.95,0.01,-0.01,0.31
1697353254.43,0.02,0.29,0.94,-0.9,0.6,30.5,0.95,0.01,-0.01,0.31
1697353254.44,0.02,0.29,0.94,-0.9,0.6,30.5,0.95,0.01,-0.01,0.31
1697353254.45,0.02,0.29,0.94,-0.9,0.6,30.5,0.95,0.01,-0.01,0.31
1697353254.46,0.02,0.29,0.94,-0.9,0.6,30.5,0.95,0.01,-0.01,0.31
1697353254.47,0.02,0.29,0.94,-0.9,0.6,30.5,0.95,0.01,-0.01,0.31
1697353254.48,0.02,0.29,0.94,-0.9,0.6,30.5,0.95,0.01,-0.01,0.31
1697353254.49,0.02,0.29,0.94,-0.9,0.6,30.5,0.95,0.01,-0.01,0.31
1697353254.5,0.02,0.29,0.94,-0.9,0.6,30.5,0.95,0.01,-0.01,0.31
1697353254.51,0.02,0.29,0.94,-0.9,0.6,30.5,0.95,0.01,-0.01,0.31
1697353254.52,0.02,0.29,0.94,-0.9,0.6,30.5,0.95,0.01,-0.01,0.31
1697353254.53,0.02,0.29,0.94,-0.9,0.6,30.5,0.95,0.01,-0.01,0.31
1697353254.54,0.02,0.29,0.94,-0.9,0.6,30.5,0.95,0.01,-0.01,0.31
1697353254.55,0.02,0.29,0.94,-0.9,0.6,30.5,0.95,0.01,-0.01,0.31
1697353254.56,0.02,0.29,0.94,-0.9,0.6,30.5,0.95,0.01,-0.01,0.31
1697353254.57,0.02,0.29,0.94,-0.9,0.6,30.5,0.95,0.01,-0.01,0.31
1697353254.58,-0.1,0.37,1.08,-0.8,-1.4,45.2,0.9,0.01,-0.01,0.44
1697353254.59,-0.1,0.45,1.07,-1.1,-1.2,46,0.9,0.01,-0.01,0.44
1697353254.6,-0.08,0.49,0.88,-1.1,-1.2,46,0.9,0.01,-0.01,0.44
1697353254.61,-0.12,0.52,1.07,-1.1,-0.7,46.7,0.89,0.01,-0.01,0.45
1697353254.62,-0.05,0.52,1.04,0,-0.4,47,0.89,0.01,-0.01,0.45
1697353254.63,-0.01,0.47,1.07,1.1,0.1,47.3,0.89,0.01,-0.01,0.46
1697353254.64,-0.01,0.48,1.17,2.2,0.1,47.2,0.89,0.01,-0.01,0.46
1697353254.65,0.06,0.47,1.02,2.5,0.1,46.9,0.89,0.01,-0.01,0.46
1697353254.66,0.03,0.44,1.05,2.2,0.4,46.9,0.88,0.01,-0.01,0.47
1697353254.67,-0.06,0.51,1.2,1.4,0.4,47,0.88,0.01,-0.01,0.47
1697353254.68,-0.08,0.5,1.13,0.7,0.5,47.8,0.88,0.01,-0.01,0.47
1697353254.69,-0.13,0.57,1.06,0.6,0.8,48.5,0.88,0.01,-0.01,0.47
1697353254.7,-0.1,0.49,0.94,0.6,1.1,49.6,0.88,0.01,-0.01,0.48
1697353254.71,-0.08,0.49,0.96,0.9,1.6,50.4,0.87,0.01,-0.01,0.49
1697353254.72,-0.04,0.44,1.06,0.9,1.3,50.6,0.87,0.01,-0.01,0.49
1697353254.73,-0.03,0.42,0.95,0.8,0.7,50.8,0.87,0.01,-0.01,0.49
1697353254.74,-0.04,0.41,1.01,0.5,0.1,50.7,0.87,0.01,-0.01,0.5
1697353254.75,0.01,0.48,0.9,-0.1,-0.4,50.2,0.86,0.01,-0.01,0.5
1697353254.76,-0.09,0.45,1.07,-0.6,-0.9,49.9,0.86,0.01,-0.01,0.51
1697353254.77,-0.06,0.54,1.07,-0.6,-0.8,49.5,0.86,0.01,-0.01,0.51
1697353254.78,-0.07,0.57,0.99,0.2,-0.8,49.5,0.86,0.01,-0.01,0.51
1697353254.79,-0.14,0.6,1.17,1.1,-0.1,49.9,0.86,0.01,-0.01,0.52
1697353254.8,-0.07,0.53,0.99,1.5,0.2,50.3,0.85,0.01,-0.01,0.52
1697353254.81,-0.1,0.48,0.98,1.6,0.5,51.2,0.85,0.01,-0.01,0.53
1697353254.82,-0.14,0.54,1.03,1.6,0.5,51.2,0.85,0.01,-0.01,0.53
1697353254.83,-0.1,0.58,1.06,0,1,52.6,0.85,0.01,-0.01,0.53
1697353254.84,-0.11,0.53,1.05,0,1,52.6,0.85,0.01,-0.01,0.53
1697353254.85,-0.05,0.49,0.95,-0.3,0.6,54,0.84,0.01,-0.01,0.54
1697353254.86,-0.05,0.49,0.95,-0.3,0.6,54,0.84,0.01,-0.01,0.54
1697353254.87,-0.03,0.46,0.86,-0.2,0,54.2,0.84,0.01,-0.01,0.55
1697353254.88,-0.04,0.52,1.04,-0.1,-0.4,53.7,0.83,0.01,-0.01,0.55
1697353254.89,-0.04,0.52,1.04,-0.1,-0.4,53.7,0.83,0.01,-0.01,0.55
1697353254.9,-0.05,0.55,0.93,0,-0.7,53.3,0.83,0.01,-0.01,0.56
1697353254.91,-0.05,0.55,0.93,0.3,-1,52.7,0.83,0.01,-0.01,0.56
1697353254.92,-0.08,0.5,0.87,0.2,-1.2,52.6,0.82,0.01,-0.01,0.57
1697353254.93,-0.1,0.52,0.99,0.5,-1,52.5,0.82,0.01,-0.01,0.57
1697353254.94,-0.04,0.49,0.92,0.1,-0.5,52.6,0.82,0.01,-0.01,0.57
1697353254.95,-0.06,0.47,0.97,0,-0.2,52.8,0.82,0.01,-0.01,0.58
1697353254.96,-0.06,0.48,1.13,-0.3,0.5,52.9,0.81,0.01,-0.01,0.58
1697353254.97,-0.06,0.48,1.13,-0.3,0.5,52.9,0.81,0.01,-0.01,0.58
1697353254.98,-0.06,0.48,1.13,-0.3,0.5,52.9,0.81,0.01,-0.01,0.58
1697353254.99,-0.06,0.48,1.13,-0.3,0.5,52.9,0.81,0.01,-0.01,0.58
1697353255,-0.06,0.48,1.13,-0.3,0.5,52.9,0.81,0.01,-0.01,0.58
1697353255.01,-0.06,0.48,1.13,-0.3,0.5,52.9,0.81,0.01,-0.01,0.58
1697353255.02,-0.06,0.48,1.13,-0.3,0.5,52.9,0.81,0.01,-0.01,0.58
1697353255.03,-0.06,0.48,1.13,-0.3,0.5,52.9,0.81,0.01,-0.01,0.58
1697353255.04,-0.06,0.48,1.13,-0.3,0.5,52.9,0.81,0.01,-0.01,0.58
1697353255.05,-0.06,0.48,1.13,-0.3,0.5,52.9,0.81,0.01,-0.01,0.58
1697353255.06,-0.06,0.48,1.13,-0.3,0.5,52.9,0.81,0.01,-0.01,0.58
1697353255.07,-0.06,0.48,1.13,-0.3,0.5,52.9,0.81,0.01,-0.01,0.58
1697353255.08,-0.06,0.48,1.13,-0.3,0.5,52.9,0.81,0.01,-0.01,0.58
1697353255.09,0.21,0.51,1.12,-0.1,-0.9,53.4,0.78,0.01,-0.01,0.63
1697353255.1,0.1,0.52,1.19,-0.9,-0.9,53.5,0.78,0.01,-0.01,0.63
1697353255.11,0.02,0.57,0.91,-0.6,-0.7,53.8,0.77,0.01,-0.01,0.64
1697353255.12,0.08,0.59,0.69,-0.6,-0.7,53.8,0.77,0.01,-0.01,0.64
1697353255.13,0.15,0.63,0.92,0.8,0,54.2,0.76,0.01,-0.01,0.65
1697353255.14,0.01,0.52,1.24,0.8,0,54.2,0.76,0.01,-0.01,0.65
1697353255.15,0.13,0.51,1.01,0.8,0.3,54.6,0.76,0.01,-0.01,0.65
1697353255.16,0.09,0.48,1.16,0.1,0.7,54.7,0.76,0.01,-0.01,0.65
1697353255.17,0.08,0.49,1.02,0,0.8,54.8,0.75,0.01,-0.01,0.66
1697353255.18,0.08,0.54,0.9,-0.4,0.9,55,0.75,0.01,-0.01,0.66
1697353255.19,0.1,0.52,0.72,-0.5,1,55.1,0.74,0.01,-0.01,0.67
1697353255.2,0.13,0.59,1.05,-0.4,1,55.1,0.74,0.01,-0.01,0.67
1697353255.21,0.11,0.57,1.22,0.5,1.3,55.6,0.74,0.01,-0.01,0.68
1697353255.22,0.11,0.57,1.22,0.5,1.3,55.6,0.74,0.01,-0.01,0.68
1697353255.23,0.04,0.55,1.08,1.1,1.2,56,0.73,0.01,-0.01,0.68
1697353255.24,0.12,0.55,0.8,0.5,1.3,55.9,0.73,0.01,-0.01,0.69
1697353255.25,0.16,0.55,0.66,-0.5,1,56.1,0.72,0.01,-0.01,0.69
1697353255.26,0.18,0.49,0.97,-1.5,0.6,56,0.72,0.01,-0.01,0.69
1697353255.27,0.18,0.49,0.97,-1.5,0.6,56,0.72,0.01,-0.01,0.69
1697353255.28,0.08,0.55,1.22,-1.4,0.4,56.1,0.72,0.01,-0.01,0.7
1697353255.29,0.08,0.55,1.22,0.1,0.2,56.2,0.71,0.01,-0.01,0.7
1697353255.3,0.08,0.62,1.1,0.9,0.2,56.1,0.71,0.01,-0.01,0.7
1697353255.31,0.21,0.51,0.73,0.6,0.2,55.8,0.71,0.01,-0.01,0.7
1697353255.32,0.07,0.47,1.12,0,0.4,55.4,0.7,0.01,-0.01,0.71
1697353255.33,0.17,0.49,1.01,-0.3,0.3,55.2,0.7,0.01,-0.01,0.71
1697353255.34,0.11,0.51,1.11,-0.5,0.4,54.9,0.7,0.01,-0.01,0.72
1697353255.35,0.09,0.49,1.05,-0.5,0.6,54.7,0.69,0.01,-0.01,0.72
1697353255.36,0.13,0.51,0.74,-0.4,0.8,54.5,0.69,0.01,-0.01,0.72
1697353255.37,0.14,0.6,1.17,-0.1,0.8,54.5,0.68,0.01,-0.01,0.73
1697353255.38,0.04,0.54,1.03,0.9,0.7,54.4,0.68,0.01,-0.01,0.73
1697353255.39,0.07,0.45,0.87,2.2,0.8,54.1,0.68,0.01,-0.01,0.74
1697353255.4,0.14,0.44,0.73,2.6,0.9,53.9,0.67,0.01,-0.01,0.74
1697353255.41,0.17,0.54,0.91,1.8,1,53.6,0.67,0.01,-0.01,0.74
1697353255.42,0.12,0.55,1.12,0.9,0.7,53.2,0.67,0.01,-0.01,0.74
1697353255.43,0.14,0.6,0.87,0.2,1,53.3,0.66,0.01,-0.01,0.75
1697353255.44,0.1,0.57,0.83,0.2,1,53.4,0.66,0.01,-0.01,0.75
1697353255.45,0.08,0.56,1.05,0.9,0.6,53.4,0.66,0.01,-0.01,0.75
1697353255.46,0.13,0.53,1.15,1.4,0.6,53.6,0.65,0.01,-0.01,0.76
1697353255.47,0.13,0.53,1.15,1.4,0.6,53.6,0.65,0.01,-0.01,0.76
1697353255.48,0.13,0.53,1.15,1.4,0.6,53.6,0.65,0.01,-0.01,0.76
1697353255.49,0.13,0.53,1.15,1.4,0.6,53.6,0.65,0.01,-0.01,0.76
1697353255.5,0.13,0.53,1.15,1.4,0.6,53.6,0.65,0.01,-0.01,0.76
1697353255.51,0.13,0.53,1.15,1.4,0.6,53.6,0.65,0.01,-0.01,0.76
1697353255.52,0.13,0.53,1.15,1.4,0.6,53.6,0.65,0.01,-0.01,0.76
1697353255.53,0.13,0.53,1.15,1.4,0.6,53.6,0.65,0.01,-0.01,0.76
1697353255.54,0.13,0.53,1.15,1.4,0.6,53.6,0.65,0.01,-0.01,0.76
1697353255.55,0.13,0.53,1.15,1.4,0.6,53.6,0.65,0.01,-0.01,0.76
1697353255.56,0.13,0.53,1.15,1.4,0.6,53.6,0.65,0.01,-0.01,0.76
1697353255.57,0.13,0.53,1.15,1.4,0.6,53.6,0.65,0.01,-0.01,0.76
1697353255.58,0.13,0.53,1.15,1.4,0.6,53.6,0.65,0.01,-0.01,0.76
1697353255.59,0.13,0.43,0.79,-2.2,1,48.1,0.61,0.01,-0.01,0.79
1697353255.6,0.13,0.43,0.79,-2.6,0.5,47.3,0.61,0.01,-0.01,0.79
1697353255.61,0.19,0.5,1.16,-1.2,0,45.6,0.6,0.01,-0.01,0.8
1697353255.62,0.19,0.5,1.16,-1.2,0,45.6,0.6,0.01,-0.01,0.8
1697353255.63,0.1,0.3,0.98,0.3,-0.1,44.5,0.6,0.01,-0.01,0.8
1697353255.64,0.1,0.3,0.98,0.9,-0.4,43.8,0.59,0.01,-0.01,0.8
1697353255.65,0.2,0.23,0.9,1,-0.6,42.6,0.59,0.01,-0.01,0.81
1697353255.66,0.11,0.27,0.99,-0.3,-0.3,41.3,0.59,0.01,-0.01,0.81
1697353255.67,0.15,0.24,0.8,-1,0.2,40.2,0.59,0.01,-0.01,0.81
1697353255.68,0.14,0.43,1.04,-1,0.7,39.2,0.58,0.01,-0.01,0.81
1697353255.69,0.07,0.26,1.13,-0.4,1.2,38.5,0.58,0.01,-0.01,0.81
1697353255.7,0.28,0.26,0.78,0.6,1.4,37.7,0.58,0.01,-0.01,0.82
1697353255.71,0.2,0.31,0.86,1.6,1.2,36.8,0.57,0.01,-0.01,0.82
1697353255.72,0.04,0.32,1.35,1.5,1.2,36,0.57,0.01,-0.01,0.82
1697353255.73,0.22,0.17,0.98,0.5,0.8,35.3,0.57,0.01,-0.01,0.82
1697353255.74,0.24,0.25,0.96,-0.3,0.4,34.5,0.57,0,-0.01,0.82
1697353255.75,0.03,0.28,1.01,-1.1,0.2,33.6,0.56,0,-0.01,0.83
1697353255.76,0.13,0.33,0.92,-0.9,0.1,33.1,0.56,0,-0.01,0.83
1697353255.77,0.11,0.29,1.04,-0.3,0,32.2,0.56,0,-0.01,0.83
1697353255.78,0.2,0.15,0.91,0.4,0,31.5,0.56,0,-0.01,0.83
1697353255.79,0.16,0.19,1.23,0.3,-0.1,30.4,0.55,0,-0.01,0.83
1697353255.8,0.09,0.14,0.97,-0.5,-0.2,29.4,0.55,0,-0.01,0.83
1697353255.81,0.08,0.1,1.05,-1.4,-0.2,28.3,0.55,0,-0.01,0.83
1697353255.82,0.1,0.26,1.29,-1.8,0.2,27.1,0.55,0,-0.01,0.84
1697353255.83,0.17,0.24,0.71,-2.5,0.3,26.2,0.55,0,-0.01,0.84
1697353255.84,0.14,0.29,1.09,-2.5,0.1,25.5,0.55,0,-0.01,0.84
1697353255.85,0.13,0.28,0.93,-1.7,0,25.3,0.54,0,-0.01,0.84
1697353255.86,0.1,0.24,1.14,-1.2,0,24.9,0.54,0,-0.01,0.84
1697353255.87,0.11,0.2,0.88,-1.2,0,24.9,0.54,0,-0.01,0.84
1697353255.88,0.17,0.11,0.83,-0.5,-0.3,24,0.54,0,-0.01,0.84
1697353255.89,0.02,0.16,1.17,-0.1,-0.3,23.2,0.54,0,-0.01,0.84
1697353255.9,0.12,0.11,0.84,-0.2,0.1,22.1,0.53,0,-0.01,0.85
1697353255.91,0.1,0.04,1.17,-0.4,0.8,21.1,0.53,0,-0.01,0.85
1697353255.92,0.1,0.04,1.17,-0.4,0.8,21.1,0.53,0,-0.01,0.85
1697353255.93,0.19,0.18,1.15,0.1,0.8,19.4,0.53,0,-0.01,0.85
1697353255.94,0.19,0.18,1.15,0.1,0.8,19.4,0.53,0,-0.01,0.85
1697353255.95,0.17,0.15,0.95,0.8,0.4,19,0.53,0,-0.01,0.85
1697353255.96,0.17,0.15,0.95,0.5,0.3,19,0.53,0,-0.01,0.85
1697353255.97,0.12,0.15,1,0.6,0.1,18.5,0.52,0,-0.01,0.85
1697353255.98,0.08,0.14,1.09,-0.2,0,18,0.52,0,-0.01,0.85
1697353255.99,0.08,0.14,1.09,-0.2,0,18,0.52,0,-0.01,0.85
1697353256,0.08,0.14,1.09,-0.2,0,18,0.52,0,-0.01,0.85
1697353256.01,0.08,0.14,1.09,-0.2,0,18,0.52,0,-0.01,0.85
1697353256.02,0.08,0.14,1.09,-0.2,0,18,0.52,0,-0.01,0.85
1697353256.03,0.08,0.14,1.09,-0.2,0,18,0.52,0,-0.01,0.85
1697353256.04,0.08,0.14,1.09,-0.2,0,18,0.52,0,-0.01,0.85
1697353256.05,0.08,0.14,1.09,-0.2,0,18,0.52,0,-0.01,0.85
1697353256.06,0.08,0.14,1.09,-0.2,0,18,0.52,0,-0.01,0.85
1697353256.07,0.08,0.14,1.09,-0.2,0,18,0.52,0,-0.01,0.85
1697353256.08,0.08,0.14,1.09,-0.2,0,18,0.52,0,-0.01,0.85
1697353256.09,0.08,0.14,1.09,-0.2,0,18,0.52,0,-0.01,0.85
1697353256.1,0.08,0.14,1.09,-0.2,0,18,0.52,0,-0.01,0.85
1697353256.11,0.1,-0.19,1.09,-3.6,0,-4.6,0.52,0,-0.02,0.86
1697353256.12,0.16,-0.27,1.03,-4.3,0,-4.5,0.52,0,-0.02,0.85
1697353256.13,0.14,-0.24,1.06,-4.4,-0.4,-4.3,0.52,0,-0.02,0.85
1697353256.14,0.13,-0.13,1.13,-3,-0.9,-4.2,0.52,0,-0.02,0.85
1697353256.15,0.04,-0.17,1.04,-0.8,-0.8,-4.3,0.52,0,-0.02,0.85
1697353256.16,0.01,-0.18,0.95,0.9,-0.6,-4.8,0.52,0,-0.02,0.85
1697353256.17,-0.05,-0.29,1.28,0.7,0,-5.4,0.52,0,-0.02,0.85
1697353256.18,0.11,-0.31,1.14,-0.5,0.6,-6.2,0.52,0,-0.02,0.85
1697353256.19,0.09,-0.3,0.99,-0.5,0.6,-6.2,0.52,0,-0.02,0.85
