time,accel_x,accel_y,accel_z,gyro_x,gyro_y,gyro_z,quat_w,quat_x,quat_y,quat_z
1697352167.35,-0.15,0.7,0.8,-1.9,-1.9,70.4,0.87,0.05,-0.02,-0.5
1697352167.36,-0.26,0.71,1.02,-1.9,-1.9,70.4,0.87,0.05,-0.02,-0.5
1697352167.37,-0.2,0.71,0.88,0,-3.1,69,0.87,0.05,-0.03,-0.49
1697352167.38,-0.22,0.68,0.84,0.5,-2.8,68.7,0.88,0.05,-0.03,-0.48
1697352167.39,-0.22,0.68,0.84,0.5,-2.8,68.7,0.88,0.05,-0.03,-0.48
1697352167.4,-0.38,0.78,1.18,1.5,-1,69.1,0.88,0.05,-0.03,-0.47
1697352167.41,-0.38,0.78,1.18,1.5,-1,69.1,0.88,0.05,-0.03,-0.47
1697352167.42,-0.36,0.85,1.04,1.9,0.5,70.1,0.88,0.05,-0.03,-0.46
1697352167.43,-0.36,0.85,1.04,2,0.8,70.4,0.89,0.05,-0.03,-0.46
1697352167.44,-0.36,0.91,0.71,1.8,2.2,72.3,0.89,0.05,-0.03,-0.46
1697352167.45,-0.36,0.83,0.99,1.4,3.3,74.3,0.89,0.05,-0.03,-0.45
1697352167.46,-0.26,0.76,0.87,1,4.1,76,0.9,0.05,-0.03,-0.44
1697352167.47,-0.25,0.81,0.83,0.5,4.1,76.7,0.9,0.05,-0.03,-0.43
1697352167.48,-0.23,0.81,0.9,-0.9,3.9,77.8,0.9,0.05,-0.03,-0.43
1697352167.49,-0.23,0.83,0.93,-1.2,2.8,78.1,0.9,0.05,-0.03,-0.42
1697352167.5,-0.17,0.81,0.86,0.2,1.2,77.5,0.91,0.05,-0.03,-0.41
1697352167.51,-0.24,0.7,1.07,1.1,0,77.3,0.91,0.05,-0.03,-0.41
1697352167.52,-0.02,0.64,0.76,1.3,-1,76.6,0.91,0.05,-0.03,-0.4
1697352167.53,0.13,0.53,0.94,0.3,-1.8,75.4,0.92,0.05,-0.03,-0.4
1697352167.54,0.13,0.55,0.99,-1.9,-2.5,73.7,0.92,0.05,-0.03,-0.39
1697352167.55,0.08,0.56,0.92,-4.8,-3.1,73,0.92,0.05,-0.03,-0.38
1697352167.56,0.11,0.7,1.22,-5.6,-3.3,71.9,0.92,0.05,-0.03,-0.38
1697352167.57,0.14,0.68,0.88,-5.9,-2.1,71.1,0.93,0.05,-0.03,-0.37
1697352167.58,0.14,0.68,0.88,-5.9,-2.1,71.1,0.93,0.05,-0.03,-0.37
1697352167.59,-0.21,0.86,1.02,-1.5,1.7,69.6,0.93,0.05,-0.03,-0.36
1697352167.6,-0.21,0.86,1.02,-1.5,1.7,69.6,0.93,0.05,-0.03,-0.36
1697352167.61,-0.21,0.86,1.02,-1.5,1.7,69.6,0.93,0.05,-0.03,-0.36
1697352167.62,-0.21,0.86,1.02,-1.5,1.7,69.6,0.93,0.05,-0.03,-0.36
1697352167.63,-0.21,0.86,1.02,-1.5,1.7,69.6,0.93,0.05,-0.03,-0.36
1697352167.64,-0.21,0.86,1.02,-1.5,1.7,69.6,0.93,0.05,-0.03,-0.36
1697352167.65,-0.21,0.86,1.02,-1.5,1.7,69.6,0.93,0.05,-0.03,-0.36
1697352167.66,-0.21,0.86,1.02,-1.5,1.7,69.6,0.93,0.05,-0.03,-0.36
1697352167.67,-0.21,0.86,1.02,-1.5,1.7,69.6,0.93,0.05,-0.03,-0.36
1697352167.68,-0.21,0.86,1.02,-1.5,1.7,69.6,0.93,0.05,-0.03,-0.36
1697352167.69,-0.21,0.86,1.02,-1.5,1.7,69.6,0.93,0.05,-0.03,-0.36
1697352167.7,-0.21,0.86,1.02,-1.5,1.7,69.6,0.93,0.05,-0.03,-0.36
1697352167.71,-0.21,0.86,1.02,-1.5,1.7,69.6,0.93,0.05,-0.03,-0.36
1697352167.72,-0.21,0.86,1.02,-1.5,1.7,69.6,0.93,0.05,-0.03,-0.36
1697352167.73,-0.21,0.86,1.02,-1.5,1.7,69.6,0.93,0.05,-0.03,-0.36
1697352167.74,-0.12,0.82,0.62,1.2,0,72.5,0.96,0.05,-0.03,-0.27
1697352167.75,-0.04,0.72,0.89,5.3,0.7,72.1,0.96,0.05,-0.03,-0.26
1697352167.76,-0.16,0.71,1.16,5.3,0.7,72.1,0.96,0.05,-0.03,-0.26
1697352167.77,-0.24,0.72,1.21,0.2,2.5,73.5,0.97,0.05,-0.04,-0.25
1697352167.78,-0.24,0.71,0.78,0.2,2.5,73.5,0.97,0.05,-0.04,-0.25
1697352167.79,-0.24,0.71,0.78,-2.8,3.5,74.7,0.97,0.05,-0.04,-0.24
1697352167.8,-0.18,0.84,0.78,-2.8,3.4,75.6,0.97,0.04,-0.04,-0.23
1697352167.81,-0.16,0.86,0.9,-1.5,3.1,76.4,0.97,0.04,-0.04,-0.23
1697352167.82,-0.1,0.83,0.97,0.2,2,77,0.97,0.04,-0.04,-0.22
1697352167.83,0.01,0.76,1.03,1.6,0.8,77,0.98,0.04,-0.04,-0.21
1697352167.84,-0.07,0.74,1.07,1.7,-0.3,76.9,0.98,0.04,-0.04,-0.21
1697352167.85,-0.05,0.68,0.73,0.7,-1.1,77,0.98,0.04,-0.04,-0.2
1697352167.86,-0.02,0.6,1.13,0.4,-1.2,76.9,0.98,0.04,-0.04,-0.2
1697352167.87,0.05,0.71,0.85,-1.3,-1.3,76.5,0.98,0.04,-0.04,-0.19
1697352167.88,-0.05,0.74,1.11,-2.6,-1.6,75.8,0.98,0.04,-0.04,-0.18
1697352167.89,-0.12,0.76,1.08,-2.9,-1.5,75.6,0.98,0.04,-0.04,-0.17
1697352167.9,-0.14,0.78,1.2,-1.2,-1.5,75.2,0.98,0.04,-0.04,-0.17
1697352167.91,0.03,0.73,0.75,0.8,-1.4,74.4,0.99,0.04,-0.04,-0.16
1697352167.92,-0.04,0.74,1.05,1,-0.8,73.7,0.99,0.04,-0.04,-0.15
1697352167.93,-0.01,0.69,1.19,1,-0.6,73.2,0.99,0.04,-0.04,-0.15
1697352167.94,0.06,0.72,0.87,0.5,-0.2,73,0.99,0.04,-0.04,-0.14
1697352167.95,-0.07,0.78,0.87,0.3,0.3,72.9,0.99,0.04,-0.04,-0.13
1697352167.96,-0.06,0.69,0.78,0.1,1.4,73.7,0.99,0.04,-0.04,-0.13
1697352167.97,-0.03,0.72,0.99,0,2.1,74.3,0.99,0.04,-0.04,-0.12
1697352167.98,-0.05,0.74,1.04,-0.6,2.8,75.9,0.99,0.04,-0.04,-0.11
1697352167.99,-0.08,0.73,1.41,-0.1,2.7,76.1,0.99,0.04,-0.04,-0.11
1697352168,0,0.83,1.11,0.5,2.5,76.3,0.99,0.04,-0.04,-0.1
1697352168.01,0.03,0.77,0.78,1.4,1.8,76.6,0.99,0.04,-0.04,-0.1
1697352168.02,-0.02,0.79,1.08,2.1,1.3,77,0.99,0.04,-0.04,-0.09
1697352168.03,0,0.66,0.91,2,1.2,77.1,1,0.04,-0.04,-0.08
1697352168.04,-0.06,0.76,1.27,2,1.2,77.1,1,0.04,-0.04,-0.08
1697352168.05,0.01,0.63,1.17,0.4,1.4,77.4,1,0.04,-0.04,-0.06
1697352168.06,0.01,0.63,1.17,0.4,1.4,77.4,1,0.04,-0.04,-0.06
1697352168.07,-0.06,0.77,0.92,-0.2,2.6,76.8,1,0.04,-0.04,-0.05
1697352168.08,-0.06,0.77,0.92,-0.2,2.6,76.8,1,0.04,-0.04,-0.05
1697352168.09,0.08,0.73,0.75,0.1,3.6,77.2,1,0.04,-0.04,-0.04
1697352168.1,0.08,0.73,0.75,0.1,3.6,77.2,1,0.04,-0.04,-0.04
1697352168.11,0.15,0.8,1,-0.7,3.6,79.2,1,0.04,-0.04,-0.03
1697352168.12,0.15,0.8,1,-0.7,3.6,79.2,1,0.04,-0.04,-0.02
1697352168.13,0.32,0.74,0.9,-2.2,4.6,82,1,0.04,-0.04,-0.02
1697352168.14,0.32,0.74,0.9,-2.2,4.6,82,1,0.04,-0.04,-0.02
1697352168.15,0.32,0.74,0.9,-2.2,4.6,82,1,0.04,-0.04,-0.02
1697352168.16,0.32,0.74,0.9,-2.2,4.6,82,1,0.04,-0.04,-0.02
1697352168.17,0.32,0.74,0.9,-2.2,4.6,82,1,0.04,-0.04,-0.02
1697352168.18,0.32,0.74,0.9,-2.2,4.6,82,1,0.04,-0.04,-0.02
1697352168.19,0.32,0.74,0.9,-2.2,4.6,82,1,0.04,-0.04,-0.02
1697352168.2,0.32,0.74,0.9,-2.2,4.6,82,1,0.04,-0.04,-0.02
1697352168.21,0.32,0.74,0.9,-2.2,4.6,82,1,0.04,-0.04,-0.02
1697352168.22,0.32,0.74,0.9,-2.2,4.6,82,1,0.04,-0.04,-0.02
1697352168.23,0.32,0.74,0.9,-2.2,4.6,82,1,0.04,-0.04,-0.02
1697352168.24,0.32,0.74,0.9,-2.2,4.6,82,1,0.04,-0.04,-0.02
1697352168.25,0.32,0.74,0.9,-2.2,4.6,82,1,0.04,-0.04,-0.02
1697352168.26,0.07,0.92,1.13,0.4,8.9,81,1,0.04,-0.04,-0.02
1697352168.27,0.1,0.89,0.98,-0.5,9.6,81.6,0.99,0.03,-0.04,0.09
1697352168.28,0.08,0.98,0.84,-1.4,9.9,82.8,0.99,0.03,-0.04,0.1
1697352168.29,0.04,0.85,1.35,-1.2,9,83.9,0.99,0.03,-0.03,0.1
1697352168.3,0.13,0.95,0.65,-0.7,8.6,85,0.99,0.03,-0.03,0.11
1697352168.31,0.06,0.78,1.05,0.3,7.7,85.9,0.99,0.03,-0.03,0.11
1697352168.32,-0.01,0.88,0.9,1,7.1,86.8,0.99,0.03,-0.03,0.13
1697352168.33,0.03,0.96,0.49,1.4,6.9,87,0.99,0.03,-0.03,0.13
1697352168.34,-0.1,0.85,0.94,0.9,6.9,86.9,0.99,0.03,-0.03,0.14
1697352168.35,0.05,0.84,0.73,1.5,6.5,87,0.99,0.03,-0.03,0.15
1697352168.36,-0.01,0.88,0.97,2.4,6.6,86.7,0.99,0.03,-0.03,0.15
1697352168.37,-0.12,0.85,1.15,2.4,6.7,86.9,0.99,0.03,-0.03,0.17
1697352168.38,0.03,0.94,0.44,2,6.8,86.8,0.98,0.03,-0.03,0.17
1697352168.39,-0.1,0.91,0.91,1.5,7.2,86.9,0.98,0.03,-0.03,0.17
1697352168.4,-0.03,0.95,0.97,1.1,7,87.4,0.98,0.03,-0.03,0.18
1697352168.41,-0.03,0.95,0.97,1.1,7,87.4,0.98,0.03,-0.03,0.19
1697352168.42,-0.04,0.92,1.25,0.3,5.9,88,0.98,0.03,-0.03,0.19
1697352168.43,-0.07,1,0.93,-0.3,5,88.7,0.98,0.03,-0.03,0.2
1697352168.44,0.03,0.92,0.59,-0.4,4.3,89.4,0.98,0.03,-0.03,0.21
1697352168.45,0.03,1,1.2,1,3.4,89.3,0.97,0.03,-0.03,0.22
1697352168.46,-0.14,0.94,1.34,1,3.4,89.3,0.97,0.03,-0.03,0.22
1697352168.47,-0.09,0.98,0.61,2.1,3.5,88.3,0.97,0.03,-0.03,0.24
1697352168.48,-0.16,1.06,1.11,3.4,3.7,87.1,0.97,0.03,-0.03,0.24
1697352168.49,-0.17,0.9,0.92,4.4,3.5,86.3,0.97,0.03,-0.03,0.25
1697352168.5,-0.2,0.97,0.94,3.9,3.5,85.6,0.97,0.03,-0.03,0.26
1697352168.51,-0.27,0.9,1.08,1.8,3.8,85.2,0.96,0.03,-0.03,0.26
1697352168.52,-0.18,0.97,0.98,-0.3,3.8,85,0.96,0.03,-0.03,0.27
1697352168.53,-0.17,0.95,1.01,-1.8,3.8,85.1,0.96,0.03,-0.03,0.28
1697352168.54,-0.11,0.94,0.88,-2.1,3.2,85.1,0.96,0.03,-0.03,0.29
1697352168.55,-0.07,0.98,0.99,-1.8,2.6,85,0.95,0.03,-0.03,0.29
1697352168.56,-0.08,0.83,0.8,-1.2,2,85.3,0.95,0.03,-0.03,0.3
1697352168.57,-0.15,0.89,0.94,-0.6,1.5,85.2,0.95,0.03,-0.03,0.31
1697352168.58,-0.09,0.94,0.88,-0.3,1.6,85.1,0.95,0.03,-0.03,0.32
1697352168.59,-0.16,0.87,0.91,-0.6,1.3,85.3,0.95,0.03,-0.03,0.32
1697352168.6,-0.01,0.8,0.78,-1.4,0.6,85.7,0.94,0.03,-0.03,0.33
1697352168.61,0.14,0.96,0.82,-1.4,-0.1,86.5,0.94,0.02,-0.03,0.34
1697352168.62,0.15,0.91,1.01,-1,-0.7,87.3,0.94,0.02,-0.03,0.35
1697352168.63,0.15,0.91,1.01,-1,-0.7,87.3,0.94,0.02,-0.03,0.35
1697352168.64,0.1,0.91,1.27,-0.7,-1.6,88.7,0.93,0.02,-0.03,0.35
1697352168.65,0.1,0.91,1.27,-0.7,-1.6,88.7,0.93,0.02,-0.03,0.35
1697352168.66,0.1,0.91,1.27,-0.7,-1.6,88.7,0.93,0.02,-0.03,0.35
1697352168.67,0.1,0.91,1.27,-0.7,-1.6,88.7,0.93,0.02,-0.03,0.35
1697352168.68,0.1,0.91,1.27,-0.7,-1.6,88.7,0.93,0.02,-0.03,0.35
1697352168.69,0.1,0.91,1.27,-0.7,-1.6,88.7,0.93,0.02,-0.03,0.35
1697352168.7,0.1,0.91,1.27,-0.7,-1.6,88.7,0.93,0.02,-0.03,0.35
1697352168.71,0.1,0.91,1.27,-0.7,-1.6,88.7,0.93,0.02,-0.03,0.35
1697352168.72,0.1,0.91,1.27,-0.7,-1.6,88.7,0.93,0.02,-0.03,0.35
1697352168.73,0.1,0.91,1.27,-0.7,-1.6,88.7,0.93,0.02,-0.03,0.35
1697352168.74,0.1,0.91,1.27,-0.7,-1.6,88.7,0.93,0.02,-0.03,0.35
1697352168.75,0.1,0.91,1.27,-0.7,-1.6,88.7,0.93,0.02,-0.03,0.35
1697352168.76,0.1,0.91,1.27,-0.7,-1.6,88.7,0.93,0.02,-0.03,0.35
1697352168.77,-0.04,1,0.73,-0.9,2.7,86.3,0.89,0.02,-0.03,0.45
1697352168.78,-0.09,1.01,0.99,-0.8,2.3,87.8,0.89,0.02,-0.03,0.45
1697352168.79,0.1,1.07,1.23,-0.7,1.9,89.9,0.89,0.02,-0.03,0.46
1697352168.8,0.12,0.93,1.02,-0.5,0.8,91.9,0.88,0.02,-0.03,0.47
1697352168.81,0.13,0.99,0.79,-0.7,-0.1,93.8,0.88,0.02,-0.03,0.47
1697352168.82,0.07,1.03,1.01,-0.9,-0.8,95.2,0.88,0.02,-0.03,0.48
1697352168.83,0.04,0.94,1.04,-1.5,-1.6,96.3,0.87,0.02,-0.03,0.49
1697352168.84,-0.1,0.93,1.1,-1.5,-1.3,96.7,0.87,0.02,-0.03,0.5
1697352168.85,0.03,0.98,0.69,-0.8,-0.4,95.2,0.86,0.02,-0.03,0.51
1697352168.86,-0.04,1.11,0.96,0.4,0.8,93.5,0.86,0.02,-0.03,0.51
1697352168.87,-0.14,0.9,0.86,0.9,2,91.3,0.85,0.02,-0.03,0.52
1697352168.88,-0.24,0.96,1.18,0.1,2.7,89.4,0.85,0.02,-0.03,0.53
1697352168.89,-0.21,0.95,1.21,-0.8,4,88.5,0.85,0.02,-0.03,0.53
1697352168.9,-0.11,0.96,0.99,-0.8,5.1,87.2,0.84,0.02,-0.03,0.54
1697352168.91,-0.14,1.17,0.98,-0.5,5.8,87.3,0.84,0.02,-0.03,0.55
1697352168.92,-0.17,1.18,0.94,0.9,6,87.9,0.83,0.02,-0.03,0.55
1697352168.93,0.01,1.19,0.72,2.8,5.9,88.9,0.83,0.01,-0.03,0.56
1697352168.94,-0.02,1.12,0.99,2.7,4.9,91.2,0.82,0.01,-0.03,0.57
1697352168.95,-0.06,0.97,0.57,0.2,3.3,93,0.82,0.01,-0.03,0.57
1697352168.96,-0.08,1.03,1.29,-2.3,2.1,95.4,0.81,0.01,-0.03,0.58
1697352168.97,0.01,1.06,1.06,-3.3,1.3,97.9,0.81,0.01,-0.03,0.59
1697352168.98,-0.24,0.88,0.34,-2.2,0.1,98.2,0.8,0.01,-0.03,0.59
1697352168.99,-0.16,1.29,0.92,-1,-0.1,99.7,0.8,0.01,-0.03,0.6
1697352169,0.07,0.84,1.46,1.8,-0.7,99.8,0.79,0.01,-0.03,0.61
1697352169.01,0.23,1.02,0.79,1.6,-0.7,99.6,0.79,0.01,-0.03,0.61
1697352169.02,0.11,1.02,0.76,0.1,-0.7,100,0.78,0.01,-0.03,0.62
1697352169.03,0.11,0.9,0.89,-0.3,0.4,98.3,0.78,0.01,-0.03,0.62
1697352169.04,0,0.95,0.74,-0.3,0.4,98.3,0.78,0.01,-0.03,0.63
1697352169.05,0,0.95,0.74,-0.3,0.4,98.3,0.77,0.01,-0.03,0.64
1697352169.06,-0.25,1.05,1.18,0,1.6,96.9,0.77,0.01,-0.03,0.64
1697352169.07,-0.23,1.16,0.87,2.8,4.3,92.5,0.75,0.01,-0.03,0.65
1697352169.08,-0.21,0.91,1.25,3.4,5.5,90.5,0.75,0.01,-0.03,0.65
1697352169.09,-0.23,1.04,1.12,2.1,5.5,88.7,0.75,0.01,-0.03,0.66
1697352169.1,-0.2,1.11,0.71,-0.6,5.8,87.7,0.74,0.01,-0.03,0.67
1697352169.11,-0.2,1.11,0.71,-0.6,5.8,87.7,0.74,0.01,-0.03,0.67
1697352169.12,-0.16,1.1,0.97,-1.8,5.9,88.3,0.73,0.01,-0.03,0.68
1697352169.13,-0.04,1.27,1.12,-0.5,4,90.6,0.73,0.01,-0.03,0.69
1697352169.14,0.08,0.97,1.02,0.9,2.5,91.5,0.72,0.01,-0.03,0.69
1697352169.15,0.25,0.68,0.42,-0.7,0.4,91.5,0.72,0.01,-0.03,0.7
1697352169.16,0.25,0.68,0.42,-0.7,0.4,91.5,0.72,0.01,-0.03,0.7
1697352169.17,0.25,0.68,0.42,-0.7,0.4,91.5,0.72,0.01,-0.03,0.7
1697352169.18,0.25,0.68,0.42,-0.7,0.4,91.5,0.72,0.01,-0.03,0.7
1697352169.19,0.25,0.68,0.42,-0.7,0.4,91.5,0.72,0.01,-0.03,0.7
1697352169.2,0.25,0.68,0.42,-0.7,0.4,91.5,0.72,0.01,-0.03,0.7
1697352169.21,0.25,0.68,0.42,-0.7,0.4,91.5,0.72,0.01,-0.03,0.7
1697352169.22,0.25,0.68,0.42,-0.7,0.4,91.5,0.72,0.01,-0.03,0.7
1697352169.23,0.25,0.68,0.42,-0.7,0.4,91.5,0.72,0.01,-0.03,0.7
1697352169.24,0.25,0.68,0.42,-0.7,0.4,91.5,0.72,0.01,-0.03,0.7
1697352169.25,0.25,0.68,0.42,-0.7,0.4,91.5,0.72,0.01,-0.03,0.7
1697352169.26,0.25,0.68,0.42,-0.7,0.4,91.5,0.72,0.01,-0.03,0.7
1697352169.27,0.25,0.68,0.42,-0.7,0.4,91.5,0.72,0.01,-0.03,0.7
1697352169.28,0.25,0.68,0.42,-0.7,0.4,91.5,0.72,0.01,-0.03,0.7
1697352169.29,0.17,0.02,1.02,-8.2,2,37.4,0.66,-0,-0.03,0.75
1697352169.3,0.16,0.1,1.31,-7.5,0.4,35.6,0.66,-0,-0.03,0.75
1697352169.31,0.21,-0.07,0.91,-6.1,-0.9,33.5,0.66,-0,-0.03,0.75
1697352169.32,0.26,-0.12,0.77,-6.1,-0.9,33.5,0.66,-0,-0.03,0.75
1697352169.33,0.06,-0.24,1.18,-3.3,-2.2,28.4,0.65,-0,-0.04,0.76
1697352169.34,0.15,-0.2,0.99,-3.3,-2.2,28.4,0.65,-0,-0.04,0.76
1697352169.35,-0,-0.17,1.16,-2.4,-1.8,23.2,0.65,-0,-0.04,0.76
1697352169.36,-0.04,-0.14,1.19,-2.4,-1.8,23.2,0.65,-0,-0.04,0.76
1697352169.37,0.08,0.06,1.34,-1.8,0.1,19.5,0.65,-0,-0.04,0.76
1697352169.38,0.21,0.15,1.15,1.9,0.4,18.5,0.65,-0,-0.04,0.76
1697352169.39,0.21,0.22,0.77,4,-0.3,17.9,0.64,-0,-0.04,0.76
1697352169.4,0.12,0.17,1.19,2.6,-0.7,17.4,0.64,-0,-0.04,0.76
1697352169.41,0.12,0.17,1.19,2.6,-0.7,17.4,0.64,-0,-0.04,0.76
1697352169.42,0.26,0.15,0.84,2.5,-1.1,17.3,0.64,-0,-0.04,0.77
1697352169.43,0.2,0.1,1.21,0.9,-1.5,17,0.64,-0,-0.04,0.77
1697352169.44,0.07,0.13,0.98,-2.6,-1.8,17.2,0.64,-0,-0.04,0.77
1697352169.45,0.1,0.24,0.79,-4.2,-1.8,16.4,0.64,-0,-0.04,0.77
1697352169.46,0.13,0.17,1.1,-2.7,-1.6,15.8,0.64,-0,-0.04,0.77
1697352169.47,0.1,0.07,1.11,0,-1.4,14.2,0.64,-0,-0.04,0.77
1697352169.48,0.17,-0.17,0.96,1.8,-1.7,12.1,0.64,-0,-0.04,0.77
1697352169.49,0.12,-0.27,0.94,2.8,-1.9,9.1,0.63,-0,-0.04,0.77
1697352169.5,0.1,-0.45,1.04,0,-2.1,6.1,0.63,-0,-0.04,0.77
1697352169.51,0.09,-0.41,1.2,-3.8,-2.9,2.8,0.63,-0,-0.04,0.77
1697352169.52,0.28,-0.18,0.86,-3.8,-2.8,0.2,0.63,-0,-0.04,0.77
1697352169.53,0.09,-0.16,0.93,-2.6,-1.7,-2.2,0.63,-0,-0.04,0.77
1697352169.54,0.18,-0.11,0.75,-2.1,-1,-3.1,0.63,-0,-0.04,0.77
1697352169.55,0.04,-0.09,1.31,-3.1,0,-3.2,0.63,-0,-0.04,0.77
1697352169.56,0.19,-0.24,0.96,-2.8,0.6,-4.1,0.63,-0,-0.04,0.77
1697352169.57,0.07,-0.21,1.11,-3.3,1.2,-4.5,0.63,-0,-0.04,0.77
1697352169.58,0.15,-0.39,0.76,-3.9,1.9,-5.6,0.64,-0,-0.04,0.77
1697352169.59,0.05,-0.27,1.03,-4,2.2,-6.5,0.64,-0,-0.04,0.77
1697352169.6,0.16,-0.33,1.14,-2.9,2.6,-7.4,0.64,-0,-0.04,0.77
1697352169.61,0.2,-0.36,0.64,-0.4,3.1,-9.2,0.64,-0,-0.04,0.77
1697352169.62,0.09,-0.37,1.17,0.2,3,-10.4,0.64,-0,-0.04,0.77
1697352169.63,0.21,-0.53,1.06,-0.5,2.5,-12.1,0.64,-0,-0.04,0.77
1697352169.64,0.11,-0.61,1.38,-1.7,2,-13.6,0.64,-0,-0.04,0.77
1697352169.65,0.29,-0.51,0.73,-3.4,0.9,-15.1,0.64,-0,-0.04,0.77
1697352169.66,0.14,-0.46,1.07,-3.4,0.9,-15.1,0.64,-0,-0.04,0.77
1697352169.67,0.1,-0.27,1.13,-2.2,-1,-17.2,0.64,-0,-0.04,0.77
1697352169.68,0.1,-0.27,1.13,-2.2,-1,-17.2,0.64,-0,-0.04,0.77
1697352169.69,0.1,-0.27,1.13,-2.2,-1,-17.2,0.64,-0,-0.04,0.77
1697352169.7,0.1,-0.27,1.13,-2.2,-1,-17.2,0.64,-0,-0.04,0.77
1697352169.71,0.1,-0.27,1.13,-2.2,-1,-17.2,0.64,-0,-0.04,0.77
1697352169.72,0.1,-0.27,1.13,-2.2,-1,-17.2,0.64,-0,-0.04,0.77
1697352169.73,0.1,-0.27,1.13,-2.2,-1,-17.2,0.64,-0,-0.04,0.77
1697352169.74,0.1,-0.27,1.13,-2.2,-1,-17.2,0.64,-0,-0.04,0.77
1697352169.75,0.1,-0.27,1.13,-2.2,-1,-17.2,0.64,-0,-0.04,0.77
1697352169.76,0.1,-0.27,1.13,-2.2,-1,-17.2,0.64,-0,-0.04,0.77
1697352169.77,0.1,-0.27,1.13,-2.2,-1,-17.2,0.64,-0,-0.04,0.77
1697352169.78,0.1,-0.27,1.13,-2.2,-1,-17.2,0.64,-0,-0.04,0.77
1697352169.79,0.1,-0.27,1.13,-2.2,-1,-17.2,0.64,-0,-0.04,0.77
1697352169.8,0.1,-0.27,1.13,-2.2,-1,-17.2,0.64,-0,-0.04,0.77
1697352169.81,-0.06,-0.18,1.05,1.7,0.6,-20,0.66,-0,-0.04,0.75
1697352169.82,0.02,-0.23,0.89,1.2,0.1,-19.1,0.66,-0,-0.04,0.75
1697352169.83,-0.09,-0.29,0.97,1.2,0.1,-19.1,0.66,-0,-0.04,0.75
1697352169.84,-0.18,-0.23,1.31,-0.9,0.2,-18.8,0.66,-0,-0.04,0.75
1697352169.85,-0.01,-0.51,1.41,-2.9,-0.2,-18.9,0.66,-0,-0.04,0.75
1697352169.86,-0.13,-0.24,0.59,-3.3,0,-19.3,0.66,-0,-0.04,0.75
1697352169.87,-0.31,-0.22,1.22,-3.8,1,-20.1,0.67,-0,-0.04,0.74
1697352169.88,-0.03,-0.51,0.97,-2.1,2.8,-19.9,0.67,-0,-0.04,0.74
1697352169.89,-0.03,-0.59,1.35,0.6,3.3,-21.6,0.67,-0,-0.04,0.74
1697352169.9,-0.14,-0.69,0.88,1,3.3,-23.6,0.67,-0,-0.04,0.74
1697352169.91,0.02,-0.7,0.7,-1.5,2.5,-25,0.67,-0,-0.04,0.74
1697352169.92,0.1,-0.63,1.52,-4,1.8,-27.1,0.67,-0,-0.04,0.74
1697352169.93,0.2,-0.56,0.63,-5.2,0.4,-28.7,0.68,-0,-0.04,0.74
1697352169.94,0.18,-0.54,0.91,-4.2,-0.7,-29.6,0.68,-0,-0.04,0.73
1697352169.95,0.12,-0.65,1.13,-2.8,-2.5,-30.5,0.68,-0,-0.04,0.73
1697352169.96,0.18,-0.7,0.78,-2.2,-4.2,-31.1,0.68,-0,-0.04,0.73
1697352169.97,0.12,-0.66,0.77,-3.9,-4.8,-32.6,0.68,-0,-0.04,0.73
1697352169.98,-0.3,-0.71,0.84,-2.3,-4.1,-34.7,0.69,-0,-0.04,0.73
1697352169.99,-0.1,-0.4,1.12,-1.3,-2.7,-35.3,0.69,-0,-0.04,0.72
1697352170,-0.19,-0.65,0.83,2.4,-0.8,-37.4,0.69,-0,-0.04,0.72
1697352170.01,-0.09,-0.44,0.45,2.4,-0.8,-37.4,0.69,-0,-0.04,0.72
1697352170.02,0.04,-0.69,1.11,1.9,2.1,-39.1,0.7,-0,-0.04,0.72
1697352170.03,-0.03,-0.69,1.33,0,2.7,-39.9,0.7,-0,-0.04,0.72
1697352170.04,0.15,-0.49,0.57,-0.9,3,-40,0.7,-0,-0.04,0.71
1697352170.05,0.06,-0.69,1.1,-2.8,2.2,-39.3,0.7,-0,-0.04,0.71
1697352170.06,0.06,-0.69,1.1,-2.8,2.2,-39.3,0.7,-0,-0.04,0.71
1697352170.07,-0.12,-0.21,1.33,-1.9,0.7,-39.9,0.71,-0,-0.04,0.7
1697352170.08,-0.12,-0.57,1.3,-1.9,0.7,-39.9,0.71,-0,-0.04,0.7
1697352170.09,-0.12,-0.57,1.3,0.7,-0.2,-39,0.71,-0,-0.04,0.7
1697352170.1,0.02,-0.6,0.47,2.3,-1.2,-40.1,0.71,-0,-0.04,0.7
1697352170.11,0.02,-0.6,0.47,0.4,-1.9,-39.8,0.72,-0,-0.04,0.7
1697352170.12,-0.06,-0.77,0.82,-0.5,-2.6,-40.7,0.72,-0,-0.04,0.69
1697352170.13,-0.1,-0.53,0.61,-2.5,-2.4,-40.4,0.72,-0,-0.04,0.69
1697352170.14,-0.04,-0.5,1.25,-1.5,-2.2,-40,0.72,-0,-0.04,0.69
1697352170.15,-0,-0.58,0.85,0.1,-1.6,-39.7,0.73,-0,-0.04,0.69
1697352170.16,-0.08,-0.68,1.29,0.4,-0.7,-39.2,0.73,-0,-0.04,0.68
1697352170.17,-0.01,-0.75,0.98,0.5,-0.7,-39.2,0.73,-0,-0.04,0.68
1697352170.18,-0.05,-0.8,1.11,0.3,-0.4,-39.8,0.73,-0,-0.04,0.68
1697352170.19,-0.16,-0.74,1.54,-1.4,0.2,-41.1,0.74,-0,-0.04,0.68
1697352170.2,0.17,-0.79,0.88,-3.1,1.5,-42.5,0.74,-0,-0.04,0.67
1697352170.21,0.17,-0.79,0.88,-3.1,1.5,-42.5,0.74,-0,-0.04,0.67
1697352170.22,0.17,-0.79,0.88,-3.1,1.5,-42.5,0.74,-0,-0.04,0.67
1697352170.23,0.17,-0.79,0.88,-3.1,1.5,-42.5,0.74,-0,-0.04,0.67
1697352170.24,0.17,-0.79,0.88,-3.1,1.5,-42.5,0.74,-0,-0.04,0.67
1697352170.25,0.17,-0.79,0.88,-3.1,1.5,-42.5,0.74,-0,-0.04,0.67
1697352170.26,0.17,-0.79,0.88,-3.1,1.5,-42.5,0.74,-0,-0.04,0.67
1697352170.27,0.17,-0.79,0.88,-3.1,1.5,-42.5,0.74,-0,-0.04,0.67
1697352170.28,0.17,-0.79,0.88,-3.1,1.5,-42.5,0.74,-0,-0.04,0.67
1697352170.29,0.17,-0.79,0.88,-3.1,1.5,-42.5,0.74,-0,-0.04,0.67
1697352170.3,0.17,-0.79,0.88,-3.1,1.5,-42.5,0.74,-0,-0.04,0.67
1697352170.31,0.17,-0.79,0.88,-3.1,1.5,-42.5,0.74,-0,-0.04,0.67
1697352170.32,0.17,-0.79,0.88,-3.1,1.5,-42.5,0.74,-0,-0.04,0.67
1697352170.33,0.17,-0.79,0.88,-3.1,1.5,-42.5,0.74,-0,-0.04,0.67
1697352170.34,-0.14,-0.3,1.07,8.9,-1.1,-44.3,0.78,0,-0.04,0.62
1697352170.35,-0.01,-0.31,0.78,8.9,-1.1,-44.3,0.78,0,-0.04,0.62
1697352170.36,-0.12,-0.42,1.13,7,0.1,-37.5,0.78,0,-0.04,0.62
1697352170.37,-0.01,-0.4,0.69,4,0.9,-33.7,0.79,0,-0.04,0.62
1697352170.38,-0.2,-0.04,1.31,1.2,1.6,-30,0.79,0,-0.04,0.62
1697352170.39,-0.14,0.1,1.06,2.4,3,-25.8,0.79,0,-0.04,0.61
1697352170.4,-0.19,0.34,0.25,6.1,4,-21,0.79,0,-0.04,0.61
1697352170.41,-0.34,0.15,0.72,6.1,4,-21,0.79,0,-0.04,0.61
1697352170.42,-0.47,0.09,1.08,9.4,6,-14.8,0.79,0,-0.04,0.61
1697352170.43,-0.13,-0.2,1.11,7.1,6.7,-11.7,0.79,0,-0.04,0.61
1697352170.44,-0.05,-0.05,1.46,3.5,6.2,-10.3,0.79,0,-0.04,0.61
1697352170.45,-0.01,0.01,1,0.2,4.5,-9.8,0.79,0,-0.04,0.61
1697352170.46,0.08,0.21,0.8,0.2,4.5,-9.8,0.79,0,-0.04,0.61
1697352170.47,0.02,0.14,1.14,1.1,0.7,-11.2,0.79,0,-0.04,0.61
1697352170.48,0.02,0.14,1.14,1.1,0.7,-11.2,0.8,0,-0.04,0.6
1697352170.49,0.06,0.04,0.77,3.4,-0.6,-12.2,0.8,0,-0.04,0.6
1697352170.5,-0.11,0.07,0.99,3.7,-2.7,-11.5,0.8,0,-0.04,0.6
1697352170.51,-0.11,0.07,0.99,3.7,-2.7,-11.5,0.8,0.01,-0.04,0.6
1697352170.52,0.01,0.01,1.09,2.1,-3.2,-10.2,0.8,0.01,-0.04,0.6
1697352170.53,0.01,0.18,1.11,-0.8,-3.1,-8.1,0.8,0.01,-0.04,0.6
1697352170.54,0.01,0.18,1.11,-3.1,-2.7,-6.3,0.8,0.01,-0.04,0.6
1697352170.55,0.09,-0.01,1.19,-3.3,-1.8,-4.2,0.8,0.01,-0.04,0.6
1697352170.56,-0.02,-0.08,0.86,-1.8,-0.4,-2.3,0.8,0.01,-0.04,0.6
1697352170.57,0.03,-0.18,0.69,-0.8,0.6,-1.5,0.8,0.01,-0.04,0.6
1697352170.58,-0.1,-0.44,1.38,-2,2,-1.2,0.8,0.01,-0.04,0.6
1697352170.59,-0.14,-0.53,1.04,-3.4,3.1,-2.3,0.8,0,-0.04,0.6
1697352170.6,-0.08,-0.52,1.06,-4.3,4,-4.6,0.8,0,-0.04,0.6
1697352170.61,-0.03,-0.43,1.01,-4.3,3.9,-7.6,0.8,0,-0.04,0.6
1697352170.62,-0.12,-0.47,1.17,-2.8,3.1,-11.3,0.8,0,-0.04,0.6
1697352170.63,-0.1,-0.59,0.95,-1.4,2.2,-15.2,0.8,0,-0.04,0.6
1697352170.64,-0.1,-0.65,1.29,-1.2,1,-18.7,0.8,0,-0.04,0.59
1697352170.65,-0.08,-0.54,1.15,-1.4,-0.1,-22.2,0.8,0,-0.04,0.59
1697352170.66,-0.07,-0.6,0.9,-2.4,-0.5,-24.3,0.81,0,-0.04,0.59
1697352170.67,-0.08,-0.46,0.94,-2.5,-0.7,-26.1,0.81,0,-0.04,0.59
1697352170.68,0.01,-0.47,0.67,-2.3,-0.4,-27.6,0.81,0,-0.04,0.59
1697352170.69,0.14,-0.58,0.96,-0.8,-0.5,-28.5,0.81,0,-0.04,0.59
1697352170.7,0.16,-0.62,0.62,-0.8,-0.5,-28.5,0.81,0,-0.04,0.58
1697352170.71,0.13,-0.66,1.16,-1.2,-0.9,-28.4,0.81,0,-0.04,0.58
1697352170.72,0.2,-0.63,1.07,-2.5,-1.1,-28.4,0.81,0,-0.04,0.58
1697352170.73,0.11,-0.59,0.96,-2.5,-1.1,-28.4,0.81,0,-0.04,0.58
1697352170.74,0.11,-0.59,0.96,-2.5,-1.5,-28.5,0.81,0,-0.04,0.58
1697352170.75,0.11,-0.59,0.96,-2.5,-1.5,-28.5,0.81,0,-0.04,0.58
1697352170.76,0.11,-0.59,0.96,-2.5,-1.5,-28.5,0.81,0,-0.04,0.58
1697352170.77,0.11,-0.59,0.96,-2.5,-1.5,-28.5,0.81,0,-0.04,0.58
1697352170.78,0.11,-0.59,0.96,-2.5,-1.5,-28.5,0.81,0,-0.04,0.58
1697352170.79,0.11,-0.59,0.96,-2.5,-1.5,-28.5,0.81,0,-0.04,0.58
1697352170.8,0.11,-0.59,0.96,-2.5,-1.5,-28.5,0.81,0,-0.04,0.58
1697352170.81,0.11,-0.59,0.96,-2.5,-1.5,-28.5,0.81,0,-0.04,0.58
1697352170.82,0.11,-0.59,0.96,-2.5,-1.5,-28.5,0.81,0,-0.04,0.58
1697352170.83,0.11,-0.59,0.96,-2.5,-1.5,-28.5,0.81,0,-0.04,0.58
1697352170.84,0.11,-0.59,0.96,-2.5,-1.5,-28.5,0.81,0,-0.04,0.58
1697352170.85,0.11,-0.59,0.96,-2.5,-1.5,-28.5,0.81,0,-0.04,0.58
1697352170.86,0.11,-0.59,0.96,-2.5,-1.5,-28.5,0.81,0,-0.04,0.58
1697352170.87,0.03,-0.93,0.66,0.5,-2,-55.8,0.84,0,-0.04,0.54
1697352170.88,0.03,-0.93,0.66,0.5,-2,-55.8,0.85,0.01,-0.04,0.53
1697352170.89,-0.29,-0.82,1.81,-1.2,-2.4,-56,0.85,0.01,-0.04,0.53
1697352170.9,-0.08,-1.07,1.1,-1,-1.7,-56.4,0.85,0.01,-0.04,0.52
1697352170.91,-0.3,-0.72,0.77,-0.5,-1.2,-56.2,0.85,0.01,-0.04,0.52
1697352170.92,-0.02,-0.76,1.2,-1.1,-0.5,-54.7,0.86,0.01,-0.04,0.51
1697352170.93,0.24,-0.52,0.44,2.4,0.1,-53.9,0.86,0.01,-0.04,0.51
1697352170.94,0.08,-0.7,1.42,2.9,2.2,-52.2,0.86,0.01,-0.04,0.51
1697352170.95,-0.49,-0.48,1.45,2.9,3.9,-52.5,0.86,0.01,-0.04,0.5
1697352170.96,-0.04,-0.93,1.07,0.7,5.7,-51.4,0.87,0.01,-0.04,0.5
1697352170.97,-0.07,-0.61,1.03,0.7,5.7,-51.8,0.87,0.01,-0.04,0.49
1697352170.98,-0.47,-0.76,1.72,-0.1,6.7,-53.6,0.87,0.01,-0.04,0.49
1697352170.99,-0.22,-1.01,1.06,-0.9,7.3,-54.7,0.87,0.01,-0.04,0.48
1697352171,-0.38,-0.81,1.07,2.5,6,-57.1,0.87,0.01,-0.04,0.48
1697352171.01,-0.34,-0.95,0.8,1.6,5.4,-58.3,0.88,0.01,-0.04,0.48
1697352171.02,-0.23,-0.87,0.68,5.6,4.7,-61,0.88,0.01,-0.04,0.48
1697352171.03,-0.24,-1.01,1.06,6.9,4.8,-62.2,0.88,0.01,-0.04,0.47
1697352171.04,-0.13,-0.93,0.84,6.7,4.3,-63.6,0.88,0.01,-0.04,0.47
1697352171.05,-0.46,-1.45,1.13,4.5,5.2,-65,0.89,0.01,-0.03,0.46
1697352171.06,-0.12,-0.79,0.7,0.9,3.9,-67,0.89,0.01,-0.03,0.46
1697352171.07,-0.06,-1.51,0.55,-3.5,3.7,-67.5,0.89,0.01,-0.03,0.45
1697352171.08,-0.23,-1.01,0.66,-4.4,2.5,-69.3,0.89,0.01,-0.03,0.45
1697352171.09,-0.14,-0.93,0.75,-5.6,2.3,-69.7,0.9,0.01,-0.03,0.44
1697352171.1,-0.2,-0.93,1.13,-2.7,1.2,-71.3,0.9,0.01,-0.03,0.43
1697352171.11,-0.08,-0.89,0.92,0,0.2,-72.4,0.9,0.01,-0.03,0.43
1697352171.12,-0.14,-0.95,0.86,1.7,-0.4,-72.8,0.91,0.01,-0.03,0.42
1697352171.13,-0.14,-0.95,0.86,1.7,-0.4,-72.8,0.91,0.01,-0.03,0.42
1697352171.14,-0.23,-1.03,1.14,3.2,-1.5,-74,0.91,0.01,-0.03,0.41
1697352171.15,-0.02,-1.04,1.18,2.4,-1.7,-74.3,0.91,0.01,-0.03,0.4
1697352171.16,-0.1,-1.06,0.75,0.6,-2.4,-74.6,0.92,0.01,-0.03,0.4
1697352171.17,-0.09,-0.95,1.05,-0.8,-1.9,-74.4,0.92,0.01,-0.03,0.39
1697352171.18,-0.09,-0.95,1.05,-1.5,-1.4,-74.1,0.92,0.01,-0.03,0.39
1697352171.19,0.11,-0.74,1.02,-0.9,-0.5,-73,0.92,0.01,-0.03,0.38
1697352171.2,0.11,-0.74,1.02,0,0.6,-72.4,0.93,0.01,-0.03,0.37
1697352171.21,0.03,-0.87,1.24,1,1.1,-70.4,0.93,0.01,-0.03,0.37
1697352171.22,0.07,-0.82,1.21,2.7,1.2,-68.9,0.93,0.01,-0.03,0.36
1697352171.23,0.07,-0.82,1.21,3.3,1,-66.9,0.93,0.01,-0.03,0.36
1697352171.24,0.14,-0.53,1.15,3.1,1.3,-64.9,0.94,0.01,-0.03,0.35
1697352171.25,0.14,-0.39,0.9,2.7,1.4,-62.3,0.94,0.01,-0.03,0.35
1697352171.26,0.27,-0.39,0.88,2.7,1.1,-58.9,0.94,0.01,-0.03,0.35
1697352171.27,0.27,-0.39,0.88,2.7,1.1,-58.9,0.94,0.01,-0.03,0.35
1697352171.28,0.27,-0.39,0.88,2.7,1.1,-58.9,0.94,0.01,-0.03,0.35
1697352171.29,0.27,-0.39,0.88,2.7,1.1,-58.9,0.94,0.01,-0.03,0.35
1697352171.3,0.27,-0.39,0.88,2.7,1.1,-58.9,0.94,0.01,-0.03,0.35
1697352171.31,0.27,-0.39,0.88,2.7,1.1,-58.9,0.94,0.01,-0.03,0.35
1697352171.32,0.27,-0.39,0.88,2.7,1.1,-58.9,0.94,0.01,-0.03,0.35
1697352171.33,0.27,-0.39,0.88,2.7,1.1,-58.9,0.94,0.01,-0.03,0.35
1697352171.34,0.27,-0.39,0.88,2.7,1.1,-58.9,0.94,0.01,-0.03,0.35
1697352171.35,0.27,-0.39,0.88,2.7,1.1,-58.9,0.94,0.01,-0.03,0.35
1697352171.36,0.27,-0.39,0.88,2.7,1.1,-58.9,0.94,0.01,-0.03,0.35
1697352171.37,0.27,-0.39,0.88,2.7,1.1,-58.9,0.94,0.01,-0.03,0.35
1697352171.38,0.27,-0.39,0.88,2.7,1.1,-58.9,0.94,0.01,-0.03,0.35
1697352171.39,0.21,0.27,0.16,1.8,2.8,-31.8,0.95,0.02,-0.03,0.3
1697352171.4,0.33,-0.32,0.86,-1.8,5,-31,0.95,0.02,-0.03,0.3
1697352171.41,0.1,0.13,0.95,1.8,5,-32.9,0.96,0.02,-0.03,0.29
1697352171.42,0.47,-0.04,0.46,-0.6,5.9,-30.7,0.96,0.02,-0.03,0.29
1697352171.43,0.16,-0.25,1.49,-0.2,5.3,-28.4,0.96,0.02,-0.03,0.29
1697352171.44,0.51,0.01,0.55,-0.7,5.2,-27.1,0.96,0.02,-0.03,0.29
1697352171.45,0.22,-0.21,1.27,-0.5,3.6,-25.4,0.96,0.02,-0.03,0.29
1697352171.46,0.29,-0.24,1.08,-1.4,2.5,-22.5,0.96,0.02,-0.03,0.29
1697352171.47,0.2,-0.11,1.11,0,1.3,-21.9,0.96,0.02,-0.03,0.28
1697352171.48,0.23,-0.54,1.16,0,-0.3,-17.4,0.96,0.02,-0.03,0.28
1697352171.49,0.34,-0.02,0.69,1.2,-0.8,-16.5,0.96,0.02,-0.03,0.28
1697352171.5,0.06,-0.16,0.84,3.2,-0.4,-14.4,0.96,0.02,-0.03,0.28
1697352171.51,-0.24,-0.14,1.37,5.2,0.3,-15.8,0.96,0.02,-0.03,0.28
1697352171.52,-0.02,-0.36,1.43,3.1,1.6,-15.8,0.96,0.02,-0.03,0.28
1697352171.53,0.27,-0.21,0.31,3.4,1.8,-16.8,0.96,0.02,-0.03,0.27
1697352171.54,0.09,-0.26,1.31,1.2,2.7,-17,0.96,0.02,-0.03,0.27
1697352171.55,0.41,-0.14,0.96,1.4,2.9,-17.1,0.96,0.02,-0.03,0.27
1697352171.56,0.31,-0.18,0.96,1.4,2.9,-17.1,0.96,0.02,-0.03,0.27
1697352171.57,0.31,0.02,0.68,0.5,2.8,-17.3,0.96,0.02,-0.03,0.27
1697352171.58,0.17,-0.02,0.95,-0.5,3.1,-16.2,0.96,0.02,-0.03,0.27
1697352171.59,0.16,-0.12,1.06,-0.5,3.1,-16.2,0.96,0.02,-0.03,0.27
1697352171.6,0.13,0.08,0.88,-0.5,3.3,-14.8,0.96,0.02,-0.02,0.26
1697352171.61,0.13,0.08,0.88,-0.5,3.3,-14.8,0.96,0.02,-0.02,0.26
1697352171.62,0.39,0.34,0.52,0.1,2.8,-14.4,0.96,0.02,-0.02,0.26
1697352171.63,0.39,0.34,0.52,0.1,2.8,-14.4,0.96,0.02,-0.02,0.26
1697352171.64,0.09,-0.18,1.41,-1.1,3.7,-12.1,0.97,0.02,-0.02,0.26
1697352171.65,0.22,0.09,0.74,0.2,3.2,-12,0.97,0.02,-0.02,0.26
1697352171.66,0.15,0.02,1.58,0.1,3.2,-11.1,0.97,0.02,-0.02,0.26
1697352171.67,0.46,-0.14,0.81,-0.2,2.2,-8.8,0.97,0.02,-0.02,0.26
1697352171.68,0.16,0.07,1.03,-0.3,0.8,-7.9,0.97,0.02,-0.02,0.26
1697352171.69,0.28,-0.04,1.01,-0.7,0,-6.1,0.97,0.02,-0.02,0.26
1697352171.7,0.24,-0.03,1,1.5,-0.5,-5.1,0.97,0.02,-0.02,0.26
1697352171.71,0.19,-0.01,0.71,2.8,-0.6,-4.2,0.97,0.02,-0.02,0.25
1697352171.72,0.2,-0.17,0.96,1.9,-0.8,-3.6,0.97,0.02,-0.02,0.25
1697352171.73,0.09,-0.18,1.39,1.6,-0.8,-4,0.97,0.02,-0.02,0.25
1697352171.74,0.08,0.03,0.68,1.9,-0.5,-4.1,0.97,0.02,-0.02,0.25
1697352171.75,0.22,-0.05,0.96,3.3,0.1,-4.2,0.97,0.02,-0.02,0.25
1697352171.76,0.15,-0.07,0.75,1,0.1,-4,0.97,0.02,-0.02,0.25
1697352171.77,0.29,0.14,0.97,0.3,-0.1,-3.9,0.97,0.02,-0.02,0.25
1697352171.78,0.29,0.14,0.97,0.3,-0.1,-3.9,0.97,0.02,-0.02,0.25
1697352171.79,0.29,0.14,0.97,0.3,-0.1,-3.9,0.97,0.02,-0.02,0.25
1697352171.8,0.29,0.14,0.97,0.3,-0.1,-3.9,0.97,0.02,-0.02,0.25
1697352171.81,0.29,0.14,0.97,0.3,-0.1,-3.9,0.97,0.02,-0.02,0.25
1697352171.82,0.29,0.14,0.97,0.3,-0.1,-3.9,0.97,0.02,-0.02,0.25
1697352171.83,0.29,0.14,0.97,0.3,-0.1,-3.9,0.97,0.02,-0.02,0.25
1697352171.84,0.29,0.14,0.97,0.3,-0.1,-3.9,0.97,0.02,-0.02,0.25
1697352171.85,0.29,0.14,0.97,0.3,-0.1,-3.9,0.97,0.02,-0.02,0.25
1697352171.86,0.29,0.14,0.97,0.3,-0.1,-3.9,0.97,0.02,-0.02,0.25
1697352171.87,0.29,0.14,0.97,0.3,-0.1,-3.9,0.97,0.02,-0.02,0.25
1697352171.88,0.29,0.14,0.97,0.3,-0.1,-3.9,0.97,0.02,-0.02,0.25
1697352171.89,0.29,0.14,0.97,0.3,-0.1,-3.9,0.97,0.02,-0.02,0.25
1697352171.9,0.24,-0.09,1.25,-1.1,-0.8,-1.5,0.97,0.02,-0.02,0.25
1697352171.91,0.1,-0.13,0.98,-3.4,-1.4,-1.4,0.97,0.02,-0.02,0.25
1697352171.92,0.13,0.1,0.73,-4,-1.8,-1.6,0.97,0.02,-0.02,0.25
1697352171.93,0.13,0.1,0.73,-4,-1.8,-1.6,0.97,0.02,-0.02,0.25
1697352171.94,0.01,0,1.17,-2.2,-1.7,-1.2,0.97,0.02,-0.02,0.25
1697352171.95,0.02,-0.01,1.26,-0.9,-1.4,-1.2,0.97,0.02,-0.02,0.25
1697352171.96,0.17,0,0.84,0.4,-0.9,-1.7,0.97,0.02,-0.02,0.25
1697352171.97,0.05,-0.06,1.12,0.9,-0.3,-1.4,0.97,0.02,-0.02,0.25
1697352171.98,0.05,-0.06,1.12,0.9,-0.3,-1.4,0.97,0.02,-0.02,0.25
1697352171.99,0.1,-0.07,1.38,0.6,0.4,-1.1,0.97,0.02,-0.02,0.25
1697352172,0.19,-0.05,1.01,0.7,1,-0.8,0.97,0.02,-0.02,0.25
1697352172.01,0.19,-0.05,1.01,0.5,1.1,-0.6,0.97,0.02,-0.02,0.25
1697352172.02,0.1,-0.09,1.27,0.6,1.4,-0.4,0.97,0.02,-0.02,0.25
1697352172.03,0.09,-0.01,0.69,1.1,1.4,-0.2,0.97,0.02,-0.02,0.25
1697352172.04,0.06,-0.02,1.59,2.2,1.2,-0.1,0.97,0.02,-0.02,0.25
1697352172.05,0.18,-0.03,0.47,4,0.9,-0.4,0.97,0.02,-0.02,0.25
1697352172.06,0.15,-0.16,1.37,4.8,0,-0.6,0.97,0.02,-0.02,0.25
1697352172.07,0.23,-0.14,0.98,2.9,-1.6,-1,0.97,0.02,-0.02,0.25
1697352172.08,0.17,-0.04,1.1,-3,-4.1,-1.4,0.97,0.02,-0.02,0.25
1697352172.09,0.26,0.05,0.67,-4.3,-4.7,-1.5,0.97,0.02,-0.02,0.25
1697352172.1,0.17,0.16,1.03,-4.2,-4.3,-1.6,0.97,0.02,-0.03,0.25
1697352172.11,0.17,0.25,0.59,-2.5,-3,-1.3,0.97,0.02,-0.03,0.25
1697352172.12,0.07,0.12,1.33,-0.6,-1.6,-1.2,0.97,0.02,-0.03,0.25
1697352172.13,0.13,0.07,0.86,0.1,0.4,-1.2,0.97,0.02,-0.03,0.25
1697352172.14,0,-0.13,0.92,-1.5,2.4,-1.4,0.97,0.02,-0.03,0.25
1697352172.15,0.14,-0.04,1.16,-3,3.8,-1.6,0.97,0.02,-0.03,0.25
1697352172.16,0.06,0.04,1.06,-2.4,4.6,-1,0.97,0.02,-0.03,0.25
1697352172.17,0.14,0.19,1.17,-0.9,5,0,0.97,0.02,-0.02,0.25
1697352172.18,0.16,-0.04,1.11,0.4,3.8,0.7,0.97,0.02,-0.02,0.25
1697352172.19,0.29,0.23,1.05,2.5,3.2,2.4,0.97,0.02,-0.02,0.25
1697352172.2,0.23,0.03,0.79,2.5,3.2,2.4,0.97,0.02,-0.02,0.25
1697352172.21,0.31,-0.06,1.05,4.2,0,3.1,0.97,0.02,-0.02,0.25
1697352172.22,0.18,-0.06,0.96,2.3,-1.5,3.5,0.97,0.02,-0.02,0.25
1697352172.23,0.22,0.05,1.13,2.3,-1.5,3.5,0.97,0.02,-0.02,0.25
1697352172.24,0.25,0.12,0.87,0.8,-3.7,2.9,0.97,0.02,-0.02,0.25
1697352172.25,-0.02,0.13,0.8,0.2,-2.8,3,0.97,0.02,-0.02,0.25
1697352172.26,0.09,0.31,0.94,0.2,-2.8,3,0.97,0.02,-0.02,0.25
1697352172.27,0.03,0.33,1.01,2,-0.8,4.4,0.97,0.02,-0.02,0.25
1697352172.28,0.03,0.33,1.01,2,-0.8,4.4,0.97,0.02,-0.02,0.25
1697352172.29,0.22,0.21,0.76,2.5,0.2,4.6,0.97,0.02,-0.02,0.25
1697352172.3,0.22,0.21,0.76,2.5,0.2,4.6,0.97,0.02,-0.02,0.25
1697352172.31,0.22,0.21,0.76,2.5,0.2,4.6,0.97,0.02,-0.02,0.25
1697352172.32,0.22,0.21,0.76,2.5,0.2,4.6,0.97,0.02,-0.02,0.25
1697352172.33,0.22,0.21,0.76,2.5,0.2,4.6,0.97,0.02,-0.02,0.25
1697352172.34,0.22,0.21,0.76,2.5,0.2,4.6,0.97,0.02,-0.02,0.25
1697352172.35,0.22,0.21,0.76,2.5,0.2,4.6,0.97,0.02,-0.02,0.25
1697352172.36,0.22,0.21,0.76,2.5,0.2,4.6,0.97,0.02,-0.02,0.25
1697352172.37,0.22,0.21,0.76,2.5,0.2,4.6,0.97,0.02,-0.02,0.25
1697352172.38,0.22,0.21,0.76,2.5,0.2,4.6,0.97,0.02,-0.02,0.25
1697352172.39,0.22,0.21,0.76,2.5,0.2,4.6,0.97,0.02,-0.02,0.25
1697352172.4,0.22,0.21,0.76,2.5,0.2,4.6,0.97,0.02,-0.02,0.25
1697352172.41,0.22,0.21,0.76,2.5,0.2,4.6,0.97,0.02,-0.02,0.25
1697352172.42,0.22,0.21,0.76,2.5,0.2,4.6,0.97,0.02,-0.02,0.25
1697352172.43,0.07,0.17,1.16,-4.8,-1.9,6.3,0.97,0.02,-0.02,0.26
1697352172.44,0.17,0.25,0.85,-4.7,-1.3,7,0.97,0.02,-0.02,0.26
1697352172.45,0.02,0.23,0.84,-3.5,-0.4,7.2,0.96,0.02,-0.02,0.26
1697352172.46,0.02,0.21,1.44,-1.8,-0.4,7.2,0.96,0.02,-0.02,0.26
1697352172.47,0.1,0.16,1.2,-1.1,-0.7,7.7,0.96,0.02,-0.02,0.26
1697352172.48,-0.03,0.13,1.19,-1.3,-1,8.4,0.96,0.02,-0.03,0.26
1697352172.49,0.16,0.09,1.04,-0.9,-1.4,8.8,0.96,0.02,-0.03,0.26
1697352172.5,0.06,0.1,0.88,0.2,-2.2,9.2,0.96,0.02,-0.03,0.26
1697352172.51,0.12,0.05,1.28,0.9,-3,9.4,0.96,0.02,-0.03,0.26
1697352172.52,0.14,0.13,0.9,1,-3.3,9.8,0.96,0.02,-0.03,0.27
1697352172.53,0.07,0.15,1.4,2.9,-4.4,10,0.96,0.02,-0.03,0.27
1697352172.54,0.17,0.27,0.81,5.3,-6,10.7,0.96,0.02,-0.03,0.27
1697352172.55,-0,0.16,1.25,6.6,-7.2,10.6,0.96,0.02,-0.03,0.27
1697352172.56,0.06,0.1,1.1,5,-7.4,10.9,0.96,0.02,-0.03,0.27
1697352172.57,0.1,0.06,0.92,1.6,-6.9,11,0.96,0.02,-0.03,0.27
1697352172.58,0.03,0.19,1.08,1.6,-6.9,11,0.96,0.02,-0.03,0.27
1697352172.59,0.1,0.27,0.9,-3.6,-5.2,11,0.96,0.02,-0.03,0.27
1697352172.6,0.06,0.58,0.7,-3.8,-4.6,11.6,0.96,0.02,-0.03,0.27
1697352172.61,0.21,0.74,0.3,-3.8,-4.6,11.6,0.96,0.02,-0.03,0.27
1697352172.62,0.21,0.74,0.3,-0.8,-3.8,13,0.96,0.02,-0.03,0.27
1697352172.63,0.04,0.72,0.82,1.4,-2.5,14.7,0.96,0.02,-0.03,0.28
1697352172.64,0.13,0.5,1.07,2.8,-0.9,17,0.96,0.02,-0.03,0.28
1697352172.65,0.03,0.52,0.81,2.5,0.3,18.8,0.96,0.02,-0.03,0.28
1697352172.66,0.03,0.52,0.81,-0.6,1.3,21.8,0.96,0.02,-0.03,0.28
1697352172.67,0.05,0.48,1.37,-0.6,1.3,21.8,0.96,0.02,-0.03,0.28
1697352172.68,0.05,0.48,1.37,-2.3,2.1,23.9,0.96,0.02,-0.03,0.28
1697352172.69,0,0.52,0.87,-2.5,2.4,25.5,0.96,0.02,-0.03,0.29
1697352172.7,0.09,0.59,1.09,0.4,2.4,27.4,0.96,0.02,-0.03,0.29
1697352172.71,-0.07,0.61,1.21,4,2.6,28.1,0.96,0.02,-0.03,0.29
1697352172.72,0.03,0.32,1.08,6,2.6,27.7,0.96,0.02,-0.03,0.29
1697352172.73,0.14,0.3,0.75,5.5,2.3,27.2,0.95,0.02,-0.03,0.3
1697352172.74,-0.04,0.34,1.31,2.8,1.3,26.4,0.95,0.02,-0.03,0.3
1697352172.75,-0.06,0.35,1.3,-0.7,0,26,0.95,0.02,-0.03,0.3
1697352172.76,0.17,0.49,0.86,-2.8,-0.5,25.7,0.95,0.02,-0.03,0.3
1697352172.77,0.01,0.64,0.87,-3.3,-1.4,25.9,0.95,0.02,-0.03,0.3
1697352172.78,0.05,0.71,0.96,-1.4,-1.7,25.9,0.95,0.02,-0.03,0.31
1697352172.79,0.08,0.67,0.71,1.3,-1.5,25.7,0.95,0.02,-0.03,0.31
1697352172.8,-0.06,0.51,1.35,2.7,-1.1,25.5,0.95,0.02,-0.03,0.31
1697352172.81,0.18,0.33,0.62,1.4,-0.4,24.9,0.95,0.02,-0.03,0.31
1697352172.82,0.26,0.22,0.57,-1.3,-0.1,24.2,0.95,0.02,-0.03,0.32
1697352172.83,0.26,0.22,0.57,-1.3,-0.1,24.2,0.95,0.02,-0.03,0.32
1697352172.84,0.26,0.22,0.57,-1.3,-0.1,24.2,0.95,0.02,-0.03,0.32
1697352172.85,0.26,0.22,0.57,-1.3,-0.1,24.2,0.95,0.02,-0.03,0.32
1697352172.86,0.26,0.22,0.57,-1.3,-0.1,24.2,0.95,0.02,-0.03,0.32
1697352172.87,0.26,0.22,0.57,-1.3,-0.1,24.2,0.95,0.02,-0.03,0.32
1697352172.88,0.26,0.22,0.57,-1.3,-0.1,24.2,0.95,0.02,-0.03,0.32
1697352172.89,0.26,0.22,0.57,-1.3,-0.1,24.2,0.95,0.02,-0.03,0.32
1697352172.9,0.26,0.22,0.57,-1.3,-0.1,24.2,0.95,0.02,-0.03,0.32
1697352172.91,0.26,0.22,0.57,-1.3,-0.1,24.2,0.95,0.02,-0.03,0.32
1697352172.92,0.26,0.22,0.57,-1.3,-0.1,24.2,0.95,0.02,-0.03,0.32
1697352172.93,0.26,0.22,0.57,-1.3,-0.1,24.2,0.95,0.02,-0.03,0.32
1697352172.94,0.26,0.22,0.57,-1.3,-0.1,24.2,0.95,0.02,-0.03,0.32
1697352172.95,-0.04,0.66,0.77,-1.3,-0.1,24.2,0.95,0.02,-0.03,0.32
1697352172.96,-0.07,0.57,1.07,1.2,5.9,29,0.94,0.02,-0.03,0.35
1697352172.97,-0.12,0.52,0.87,0.5,6.2,29.8,0.94,0.02,-0.03,0.35
1697352172.98,-0.09,0.57,1.02,0.5,6.2,29.8,0.94,0.02,-0.03,0.35
1697352172.99,-0.12,0.66,0.83,-1.1,6.1,30.4,0.94,0.02,-0.03,0.35
1697352173,0.01,0.84,1.36,-1.6,5.4,31.4,0.93,0.02,-0.03,0.35
1697352173.01,-0.1,0.86,0.74,0.5,3.9,33.5,0.93,0.02,-0.03,0.36
1697352173.02,-0.14,0.73,1.25,1.8,2.4,35.6,0.93,0.02,-0.03,0.36
1697352173.03,-0.14,0.73,1.25,3.3,1.1,36.3,0.93,0.02,-0.03,0.36
1697352173.04,-0.34,0.6,0.88,3.6,0.7,36.4,0.93,0.02,-0.03,0.37
1697352173.05,-0.55,0.65,0.79,2.2,0.7,36.7,0.93,0.02,-0.03,0.37
1697352173.06,-0.43,0.37,0.76,1.5,1.1,35.3,0.93,0.02,-0.03,0.37
1697352173.07,-0.66,0.66,1.5,0.9,2.2,34.9,0.93,0.02,-0.03,0.38
1697352173.08,-0.23,0.69,1.08,2.8,2.7,34.6,0.93,0.02,-0.03,0.38
1697352173.09,-0.12,0.62,0.78,3.3,3,34.9,0.92,0.02,-0.03,0.38
1697352173.1,0,0.56,0.52,3.3,1.9,35.5,0.92,0.02,-0.03,0.38
1697352173.11,-0.16,0.61,0.75,2.6,0.5,35.5,0.92,0.02,-0.03,0.39
1697352173.12,-0.34,0.63,1.29,0.6,-0.1,36,0.92,0.02,-0.03,0.39
1697352173.13,-0.23,0.49,0.8,-0.4,-0.1,35.8,0.92,0.02,-0.03,0.39
1697352173.14,0.01,0.8,0.35,-0.4,0,35.8,0.92,0.02,-0.03,0.4
1697352173.15,-0.43,0.69,1.28,0.2,0.7,36,0.92,0.02,-0.03,0.4
1697352173.16,-0.34,0.66,0.62,1,1.1,36.7,0.91,0.02,-0.03,0.4
1697352173.17,-0.24,0.8,0.81,0.3,2.2,37.8,0.91,0.02,-0.03,0.41
1697352173.18,-0.5,0.7,1.04,-0.6,3.2,39,0.91,0.02,-0.02,0.41
1697352173.19,-0.58,0.99,1.28,-0.2,3.8,40.9,0.91,0.02,-0.02,0.41
1697352173.2,-0.3,0.83,0.69,1.2,4.7,42.9,0.91,0.02,-0.02,0.42
1697352173.21,-0.35,1.11,0.88,3.2,4.5,45.3,0.91,0.02,-0.02,0.42
1697352173.22,-0.32,1.08,0.74,5.2,4.4,47.8,0.91,0.02,-0.02,0.42
1697352173.23,-0.44,0.99,1.2,6.1,3.5,50.1,0.9,0.02,-0.02,0.43
1697352173.24,-0.45,0.97,1.25,6.1,3.5,50.1,0.9,0.02,-0.02,0.43
1697352173.25,-0.45,0.97,1.25,6.1,3.3,52.4,0.9,0.02,-0.02,0.43
1697352173.26,-0.22,1.03,0.78,3.4,1.3,56.1,0.9,0.02,-0.02,0.44
1697352173.27,-0.58,1.04,1.18,3,1.2,57.7,0.9,0.02,-0.02,0.44
1697352173.28,-0.34,0.83,0.54,3.8,1.4,58.8,0.9,0.02,-0.02,0.44
1697352173.29,-0.5,1.2,0.98,4.7,1.2,60.3,0.89,0.02,-0.02,0.45
1697352173.3,-0.47,1.03,1.02,5.3,1.2,61.7,0.89,0.02,-0.02,0.46
1697352173.31,-0.47,1.03,1.02,5.3,1.2,61.7,0.89,0.02,-0.02,0.46
1697352173.32,-0.6,1.11,1.49,4.5,1.4,62.3,0.89,0.02,-0.02,0.46
1697352173.33,-0.6,1.11,1.49,3.8,1.6,62.5,0.88,0.02,-0.02,0.47
1697352173.34,-0.48,1.3,0.8,1.8,1.7,63.4,0.88,0.02,-0.02,0.47
1697352173.35,-0.39,1.35,0.57,1.8,1.7,63.4,0.88,0.02,-0.02,0.47
1697352173.36,-0.39,1.35,0.57,1.8,1.7,63.4,0.88,0.02,-0.02,0.47
1697352173.37,-0.39,1.35,0.57,1.8,1.7,63.4,0.88,0.02,-0.02,0.47
1697352173.38,-0.39,1.35,0.57,1.8,1.7,63.4,0.88,0.02,-0.02,0.47
1697352173.39,-0.39,1.35,0.57,1.8,1.7,63.4,0.88,0.02,-0.02,0.47
1697352173.4,-0.39,1.35,0.57,1.8,1.7,63.4,0.88,0.02,-0.02,0.47
1697352173.41,-0.39,1.35,0.57,1.8,1.7,63.4,0.88,0.02,-0.02,0.47
1697352173.42,-0.39,1.35,0.57,1.8,1.7,63.4,0.88,0.02,-0.02,0.47
1697352173.43,-0.39,1.35,0.57,1.8,1.7,63.4,0.88,0.02,-0.02,0.47
1697352173.44,-0.39,1.35,0.57,1.8,1.7,63.4,0.88,0.02,-0.02,0.47
1697352173.45,-0.39,1.35,0.57,1.8,1.7,63.4,0.88,0.02,-0.02,0.47
1697352173.46,-0.39,1.35,0.57,1.8,1.7,63.4,0.88,0.02,-0.02,0.47
1697352173.47,-0.51,1.22,0.99,3,-0.8,84.2,0.83,0.02,-0.02,0.55
1697352173.48,-0.43,1.2,0.88,0.6,-1.7,84.8,0.83,0.02,-0.02,0.56
1697352173.49,-0.42,1.25,1.02,0.1,-1.5,85.3,0.83,0.02,-0.02,0.56
1697352173.5,-0.37,1.36,0.47,-0.2,-1.7,86,0.82,0.02,-0.02,0.57
1697352173.51,-0.44,1.27,1.26,1.5,-1.5,86.4,0.82,0.02,-0.02,0.57
1697352173.52,-0.26,1.21,0.87,2.6,-1.6,85.8,0.81,0.02,-0.02,0.58
1697352173.53,-0.32,1.08,0.7,0.8,-1,84.8,0.81,0.02,-0.02,0.59
1697352173.54,-0.51,1.2,1.09,-2,-0.4,83.8,0.8,0.02,-0.02,0.59
1697352173.55,-0.32,1.29,1.09,-2.8,0.7,82.5,0.8,0.02,-0.02,0.6
1697352173.56,-0.35,1.28,0.97,-2.6,2.2,81.5,0.8,0.02,-0.02,0.61
1697352173.57,-0.4,1.37,1.03,-0.2,3.4,80.1,0.79,0.02,-0.02,0.61
1697352173.58,-0.38,1.36,0.77,1.4,4.3,79,0.79,0.02,-0.02,0.62
1697352173.59,-0.44,1.24,1.11,0.8,4.7,78.1,0.78,0.02,-0.02,0.62
1697352173.6,-0.29,1.13,1.03,0,5.1,77.3,0.78,0.02,-0.02,0.63
1697352173.61,-0.27,1.14,0.76,-0.5,5.1,77.2,0.78,0.02,-0.02,0.63
1697352173.62,-0.23,1.08,1.18,-1.4,4.7,77.1,0.77,0.02,-0.02,0.63
1697352173.63,-0.2,1.12,0.86,-1.4,4.7,77.1,0.77,0.02,-0.02,0.63
1697352173.64,-0.16,1.18,0.59,-1.2,2,78,0.76,0.02,-0.02,0.65
1697352173.65,-0.22,1.14,1.27,0,0.3,78.1,0.76,0.02,-0.02,0.65
1697352173.66,-0.19,1.04,1,0,0.3,78.1,0.76,0.02,-0.02,0.65
1697352173.67,-0.19,1.04,1,-0.1,-0.4,78.1,0.75,0.02,-0.02,0.66
1697352173.68,-0.24,0.97,1.34,-1,-0.8,77.8,0.75,0.02,-0.02,0.66
1697352173.69,-0.24,0.95,1.06,-1.9,-1.1,75.7,0.74,0.02,-0.02,0.67
1697352173.7,-0.2,1.08,0.77,-2.3,-0.6,74.8,0.73,0.02,-0.02,0.68
1697352173.71,-0.18,1.06,0.7,-2.3,-0.6,74.8,0.73,0.02,-0.02,0.68
1697352173.72,-0.23,1,0.7,-1.3,0.1,73.8,0.73,0.02,-0.02,0.68
1697352173.73,-0.23,1,0.7,-0.1,1.2,72.6,0.72,0.02,-0.02,0.69
1697352173.74,-0.15,0.96,0.56,-0.3,2,71.8,0.72,0.02,-0.02,0.69
1697352173.75,-0.26,0.9,1.18,-1.3,2.6,71.1,0.71,0.02,-0.02,0.7
1697352173.76,-0.2,0.93,0.86,-2,3.1,70.4,0.71,0.02,-0.02,0.7
1697352173.77,-0.23,0.96,1.02,-2,3.8,70.1,0.71,0.02,-0.02,0.71
1697352173.78,-0.16,0.99,1.11,-1.1,4.3,69.7,0.7,0.01,-0.02,0.71
1697352173.79,-0.02,1,0.64,0.2,4,69.3,0.7,0.01,-0.02,0.72
1697352173.8,-0.05,0.96,0.91,0.5,3.5,68.8,0.69,0.01,-0.02,0.72
1697352173.81,0.03,0.84,1.52,0,2.6,68.2,0.69,0.01,-0.02,0.72
1697352173.82,0.13,0.88,0.46,-1.7,1.3,68.2,0.68,0.01,-0.02,0.73
1697352173.83,-0.19,0.83,1.46,-2.6,0.9,68,0.68,0.01,-0.02,0.73
1697352173.84,-0.12,0.83,0.97,-2.5,0.9,68,0.67,0.01,-0.02,0.74
1697352173.85,-0.17,0.84,0.88,-1.5,1.2,67.6,0.67,0.01,-0.02,0.74
1697352173.86,-0.16,0.77,0.93,-1,1.2,67.1,0.67,0.01,-0.02,0.75
1697352173.87,-0.2,0.72,0.83,-0.5,1.2,65.8,0.66,0.01,-0.02,0.75
1697352173.88,-0.2,0.72,0.83,-0.5,1.2,65.8,0.66,0.01,-0.02,0.75
1697352173.89,-0.2,0.72,0.83,-0.5,1.2,65.8,0.66,0.01,-0.02,0.75
1697352173.9,-0.2,0.72,0.83,-0.5,1.2,65.8,0.66,0.01,-0.02,0.75
1697352173.91,-0.2,0.72,0.83,-0.5,1.2,65.8,0.66,0.01,-0.02,0.75
1697352173.92,-0.2,0.72,0.83,-0.5,1.2,65.8,0.66,0.01,-0.02,0.75
1697352173.93,-0.2,0.72,0.83,-0.5,1.2,65.8,0.66,0.01,-0.02,0.75
1697352173.94,-0.2,0.72,0.83,-0.5,1.2,65.8,0.66,0.01,-0.02,0.75
1697352173.95,-0.2,0.72,0.83,-0.5,1.2,65.8,0.66,0.01,-0.02,0.75
1697352173.96,-0.2,0.72,0.83,-0.5,1.2,65.8,0.66,0.01,-0.02,0.75
1697352173.97,-0.2,0.72,0.83,-0.5,1.2,65.8,0.66,0.01,-0.02,0.75
1697352173.98,-0.2,0.72,0.83,-0.5,1.2,65.8,0.66,0.01,-0.02,0.75
1697352173.99,-0.2,0.72,0.83,-0.5,1.2,65.8,0.66,0.01,-0.02,0.75
1697352174,-0.2,0.72,0.83,-3.2,0.9,51.3,0.61,0.01,-0.02,0.79
1697352174.01,0.02,0.66,1.43,-3.5,1.2,50.1,0.61,0.01,-0.02,0.79
1697352174.02,0.03,0.58,1.05,-2.1,1.6,49.6,0.61,0.01,-0.02,0.79
1697352174.03,0.03,0.58,1.05,-2.1,1.6,49.6,0.6,0.01,-0.02,0.8
1697352174.04,-0.02,0.45,0.93,-0.9,1.7,48.1,0.6,0.01,-0.02,0.8
1697352174.05,-0.01,0.34,1.25,-0.9,1.7,48.1,0.6,0.01,-0.02,0.8
1697352174.06,0.06,0.37,1.32,-3.4,1.7,45.4,0.59,0.01,-0.02,0.8
1697352174.07,0.17,0.47,0.8,-2.7,1.4,44.3,0.59,0.01,-0.02,0.81
1697352174.08,0.17,0.47,0.8,-2.7,1.4,44.3,0.59,0.01,-0.02,0.81
1697352174.09,0.13,0.55,1.36,0,0.3,43.1,0.58,0.01,-0.02,0.81
1697352174.1,0.13,0.56,0.98,2.3,-0.5,42.2,0.58,0.01,-0.02,0.81
1697352174.11,0.15,0.57,0.42,2.5,-0.6,41.4,0.58,0.01,-0.02,0.82
1697352174.12,0.02,0.49,1.27,1.2,-0.5,41.1,0.57,0.01,-0.02,0.82
1697352174.13,0.11,0.51,1.06,-0.9,-0.4,40.9,0.57,0.01,-0.02,0.82
1697352174.14,0.05,0.51,0.88,-2.1,-0.3,41.1,0.57,0.01,-0.02,0.82
1697352174.15,0.08,0.63,0.58,-1.8,0.1,41.5,0.57,0.01,-0.02,0.82
1697352174.16,0.04,0.66,1.21,-0.4,0.4,41.8,0.56,0.01,-0.02,0.83
1697352174.17,0.07,0.62,1.3,1,0.7,42.1,0.56,0.01,-0.02,0.83
1697352174.18,0.07,0.54,1.07,1.5,0.7,41.9,0.56,0.01,-0.02,0.83
1697352174.19,0.09,0.5,1.44,0.3,0.5,41.8,0.55,0,-0.02,0.83
1697352174.2,0.17,0.51,0.45,0.3,0.5,41.8,0.55,0,-0.02,0.84
1697352174.21,0.08,0.6,0.97,-0.9,0.3,41.4,0.55,0,-0.02,0.84
1697352174.22,0.03,0.6,1.29,-1.2,0,41.3,0.54,0,-0.02,0.84
1697352174.23,0.12,0.6,0.97,0.2,0.1,41.4,0.54,0,-0.02,0.84
1697352174.24,0.04,0.58,0.65,0.2,0.6,41.5,0.54,0,-0.02,0.84
1697352174.25,0.13,0.42,1.04,-1.2,1.2,41.1,0.53,0,-0.02,0.85
1697352174.26,0.12,0.43,0.65,-1.2,1.2,41.1,0.53,0,-0.02,0.85
1697352174.27,-0.01,0.53,0.83,-2.9,1.5,41,0.53,0,-0.02,0.85
1697352174.28,0.04,0.62,1.42,-3.3,1.5,40.8,0.52,0,-0.03,0.85
1697352174.29,0.12,0.58,0.99,-1.8,1.2,40.3,0.52,0,-0.03,0.85
1697352174.3,0.12,0.58,0.99,-1.8,1.2,40.3,0.52,0,-0.03,0.85
1697352174.31,0.09,0.48,1.31,1.4,0.6,39.3,0.52,0,-0.02,0.86
1697352174.32,0.05,0.38,1.23,1.4,0.6,39.3,0.52,0,-0.02,0.86
1697352174.33,0.05,0.36,0.7,-0.3,-0.2,37.6,0.51,0,-0.02,0.86
1697352174.34,0.08,0.4,0.94,-2.4,-0.2,36.3,0.51,0,-0.03,0.86
1697352174.35,0.08,0.5,0.45,-3,-0.4,35.5,0.51,0,-0.03,0.86
1697352174.36,0.02,0.49,0.98,-3,-0.4,35.5,0.5,0,-0.03,0.86
1697352174.37,0.01,0.37,1.41,0.4,-0.2,34.1,0.5,0,-0.03,0.86
1697352174.38,0.01,0.37,1.41,0.4,-0.2,34.1,0.5,0,-0.03,0.87
1697352174.39,0.08,0.17,0.63,1.6,-0.2,33.2,0.5,0,-0.03,0.87
1697352174.4,0.08,0.17,0.63,1.6,-0.2,33.2,0.5,0,-0.03,0.87
1697352174.41,0.08,0.17,0.63,1.6,-0.2,33.2,0.5,0,-0.03,0.87
1697352174.42,0.08,0.17,0.63,1.6,-0.2,33.2,0.5,0,-0.03,0.87
1697352174.43,0.08,0.17,0.63,1.6,-0.2,33.2,0.5,0,-0.03,0.87
1697352174.44,0.08,0.17,0.63,1.6,-0.2,33.2,0.5,0,-0.03,0.87
1697352174.45,0.08,0.17,0.63,1.6,-0.2,33.2,0.5,0,-0.03,0.87
1697352174.46,0.08,0.17,0.63,1.6,-0.2,33.2,0.5,0,-0.03,0.87
1697352174.47,0.08,0.17,0.63,1.6,-0.2,33.2,0.5,0,-0.03,0.87
1697352174.48,0.08,0.17,0.63,1.6,-0.2,33.2,0.5,0,-0.03,0.87
1697352174.49,0.08,0.17,0.63,1.6,-0.2,33.2,0.5,0,-0.03,0.87
1697352174.5,0.08,0.17,0.63,1.6,-0.2,33.2,0.5,0,-0.03,0.87
1697352174.51,0.08,0.17,0.63,1.6,-0.2,33.2,0.5,0,-0.03,0.87
1697352174.52,0.08,0.17,0.63,1.6,-0.2,33.2,0.5,0,-0.03,0.87
1697352174.53,0.03,0.12,0.87,-0.6,-1.1,21.7,0.47,-0,-0.03,0.88
1697352174.54,0.05,0.17,1.02,-2,-1.6,20.6,0.47,-0,-0.03,0.88
1697352174.55,0.1,0.24,1.39,-2.6,-1.6,19.1,0.47,-0,-0.03,0.88
1697352174.56,0,0.29,0.76,-2,-1.4,18.2,0.46,-0,-0.03,0.89
1697352174.57,0.03,0.23,1.05,-0.1,-1.3,17.8,0.46,-0,-0.03,0.89
1697352174.58,-0.02,0.11,1.43,1.2,-0.9,17.3,0.46,-0,-0.03,0.89
1697352174.59,0.02,0.03,0.76,0.7,-0.7,16.5,0.46,-0,-0.03,0.89
1697352174.6,-0.01,0.04,1.41,-1.9,0,15.8,0.46,-0,-0.03,0.89
1697352174.61,0.13,-0.05,1.11,-2.9,0.4,13.9,0.46,-0,-0.03,0.89
1697352174.62,0.03,-0.03,0.52,-2.5,0.2,12.2,0.46,-0,-0.03,0.89
1697352174.63,0.08,-0.12,1.17,-2.8,-0.2,9.6,0.46,-0,-0.03,0.89
1697352174.64,0.04,-0.24,0.87,-3.8,-0.4,6.9,0.45,-0,-0.03,0.89
1697352174.65,0.08,-0.17,0.48,-4.4,-0.7,4.1,0.45,-0,-0.03,0.89
1697352174.66,-0.01,-0.22,1.73,-4.1,-0.9,1.2,0.45,-0,-0.03,0.89
1697352174.67,0.12,-0.19,0.93,-3.3,-0.8,-1.1,0.45,-0,-0.03,0.89
1697352174.68,0,-0.19,0.66,-3.3,-0.8,-1.1,0.45,-0,-0.03,0.89
1697352174.69,0.03,-0.35,1.39,-4.3,-1.2,-5.4,0.45,-0,-0.03,0.89
1697352174.7,0.03,-0.38,0.25,-6.3,-0.4,-7.1,0.45,-0,-0.03,0.89
1697352174.71,0,-0.36,1.26,-6.7,0,-8.5,0.46,-0,-0.03,0.89
1697352174.72,0.05,-0.31,1.15,-6.7,0,-8.5,0.46,-0,-0.03,0.89
1697352174.73,-0,-0.45,0.73,-6.7,0,-8.5,0.46,-0,-0.03,0.89
1697352174.74,0.04,-0.4,1.49,-4.9,0.8,-11.5,0.46,-0,-0.03,0.89
1697352174.75,-0.17,-0.61,1.07,-4.4,1.1,-13.2,0.46,-0,-0.03,0.89
1697352174.76,0.07,-0.7,0.5,-4,1.1,-15.4,0.46,-0,-0.03,0.89
1697352174.77,-0.02,-0.74,1.62,-4.5,1,-17.7,0.46,-0,-0.03,0.89
1697352174.78,-0.02,-0.74,1.62,-4.5,1,-17.7,0.46,-0,-0.03,0.89
1697352174.79,0.09,-0.83,0.88,-5.5,0.4,-19.9,0.46,-0,-0.03,0.89
1697352174.8,-0.03,-0.61,1.61,-6,0.5,-22.5,0.47,-0,-0.03,0.88
1697352174.81,0.04,-0.68,1,-4.4,0.6,-24.8,0.47,-0,-0.03,0.88
1697352174.82,-0,-0.69,0.8,-0.7,-0.2,-29.8,0.47,-0,-0.03,0.88
1697352174.83,-0.1,-1.12,0.86,-2.8,-0.4,-33.9,0.47,-0,-0.03,0.88
1697352174.84,-0.14,-0.82,1.58,-6.4,-0.1,-36.8,0.48,-0,-0.04,0.88
1697352174.85,-0.03,-0.67,0.59,-5.8,0.3,-38.3,0.48,-0,-0.04,0.88
1697352174.86,-0.05,-0.43,0.75,-1.9,0.2,-39.3,0.48,-0,-0.04,0.88
1697352174.87,-0.04,-0.46,1.57,2.3,0.1,-39.5,0.48,-0,-0.04,0.87
1697352174.88,-0.01,-0.61,0.73,4.1,0,-39.2,0.49,-0,-0.04,0.87
1697352174.89,0.04,-0.81,1.04,0.6,-0.1,-38.6,0.49,-0,-0.04,0.87
1697352174.9,0.15,-0.79,1.38,-2.7,-0.7,-38.1,0.49,-0,-0.04,0.87
1697352174.91,0.07,-0.57,1.01,-4.3,-0.7,-37.3,0.5,-0,-0.04,0.87
1697352174.92,0.07,-0.57,1.01,-4.3,-0.7,-37.3,0.5,-0,-0.04,0.87
1697352174.93,0.07,-0.57,1.01,-4.3,-0.7,-37.3,0.5,-0,-0.04,0.87
1697352174.94,0.07,-0.57,1.01,-4.3,-0.7,-37.3,0.5,-0,-0.04,0.87
1697352174.95,0.07,-0.57,1.01,-4.3,-0.7,-37.3,0.5,-0,-0.04,0.87
1697352174.96,0.07,-0.57,1.01,-4.3,-0.7,-37.3,0.5,-0,-0.04,0.87
1697352174.97,0.07,-0.57,1.01,-4.3,-0.7,-37.3,0.5,-0,-0.04,0.87
1697352174.98,0.07,-0.57,1.01,-4.3,-0.7,-37.3,0.5,-0,-0.04,0.87
1697352174.99,0.07,-0.57,1.01,-4.3,-0.7,-37.3,0.5,-0,-0.04,0.87
1697352175,0.07,-0.57,1.01,-4.3,-0.7,-37.3,0.5,-0,-0.04,0.87
1697352175.01,0.07,-0.57,1.01,-4.3,-0.7,-37.3,0.5,-0,-0.04,0.87
1697352175.02,0.07,-0.57,1.01,-4.3,-0.7,-37.3,0.5,-0,-0.04,0.87
1697352175.03,0.07,-0.57,1.01,-4.3,-0.7,-37.3,0.5,-0,-0.04,0.87
1697352175.04,0.11,-0.89,0.76,-7.3,-0.7,-48.4,0.54,-0,-0.04,0.84
1697352175.05,-0.35,-0.72,1.29,-4.7,-0.2,-49.6,0.54,-0,-0.04,0.84
1697352175.06,-0.12,-0.62,0.7,-3.3,0,-50.1,0.55,-0,-0.04,0.84
1697352175.07,-0.31,-0.94,1.16,0.1,0.6,-52.2,0.55,-0,-0.04,0.83
1697352175.08,-0.09,-0.82,1.22,1.1,1.4,-53.5,0.55,-0,-0.04,0.83
1697352175.09,-0.16,-1.31,0.74,-0.2,1.8,-54.8,0.55,-0,-0.04,0.83
1697352175.1,-0.11,-1.11,1.24,-1.6,1.7,-57.4,0.56,-0,-0.04,0.83
1697352175.11,-0.22,-0.86,1.39,-2.5,0.8,-57.7,0.56,-0,-0.04,0.83
1697352175.12,-0.14,-1.07,0.73,-1.7,0.6,-59.5,0.57,-0,-0.04,0.82
1697352175.13,-0.14,-1.07,0.73,-1.7,0.6,-59.5,0.57,-0,-0.04,0.82
1697352175.14,-0.02,-0.88,1,-3.1,0.5,-59.5,0.58,-0,-0.04,0.82
1697352175.15,-0.1,-0.75,1.06,-3,0.8,-58.3,0.58,-0,-0.04,0.81
1697352175.16,0.2,-0.85,0.82,-1.3,0.6,-57.7,0.58,-0,-0.04,0.81
1697352175.17,-0.09,-0.94,1.06,-1.1,0.3,-57.4,0.59,-0,-0.04,0.81
1697352175.18,-0.13,-1.03,1.2,-2.7,0.3,-57.7,0.59,-0,-0.04,0.8
1697352175.19,-0.01,-0.81,0.72,-1.7,0.6,-57.8,0.6,-0,-0.04,0.8
1697352175.2,-0.18,-0.85,0.77,-1,0.8,-58,0.6,-0,-0.04,0.8
1697352175.21,-0.24,-0.99,0.95,2.1,1.7,-59.9,0.61,-0,-0.04,0.79
1697352175.22,-0.14,-1.01,1.34,2.1,2.4,-61.1,0.61,-0,-0.04,0.79
1697352175.23,-0.22,-1.05,0.75,0.6,2.6,-61.7,0.61,-0,-0.04,0.79
1697352175.24,-0.02,-1.07,0.75,-0.7,2.2,-63,0.62,-0,-0.04,0.78
1697352175.25,-0.07,-1.02,1.39,-3.3,1.4,-62.9,0.62,-0,-0.04,0.78
1697352175.26,0.15,-0.9,0.91,-3.8,0.4,-62.8,0.63,-0,-0.04,0.78
1697352175.27,-0.07,-0.72,1.14,-2.3,-0.4,-62.3,0.63,-0,-0.04,0.77
1697352175.28,0.12,-0.8,0.9,-1.2,-0.9,-62.1,0.64,-0,-0.04,0.77
1697352175.29,0.23,-0.78,1.02,2.4,-0.4,-62.3,0.64,-0,-0.04,0.77
1697352175.3,-0.04,-1.14,0.96,4.1,-0.5,-61.8,0.65,-0,-0.04,0.76
1697352175.31,-0.03,-0.87,0.72,2.4,0.1,-63.1,0.65,-0,-0.04,0.76
1697352175.32,-0.22,-1.05,1.42,-5.1,0,-63.2,0.65,-0,-0.04,0.76
1697352175.33,0.01,-0.81,1.2,-2.9,0,-64.1,0.66,-0,-0.04,0.75
1697352175.34,-0.31,-0.54,1.45,-1.2,0.2,-63.3,0.66,-0,-0.04,0.75
1697352175.35,-0.31,-0.54,1.45,-1.2,0.2,-63.3,0.66,-0,-0.04,0.75
1697352175.36,-0.01,-0.75,0.82,4.3,0.3,-62.4,0.67,-0,-0.04,0.74
1697352175.37,0.06,-1,0.97,4.3,0.3,-62.4,0.67,-0,-0.04,0.74
1697352175.38,0.05,-1.07,0.83,2.3,0.4,-59.5,0.68,0,-0.04,0.73
1697352175.39,-0.18,-0.86,0.99,2.3,0.4,-59.5,0.68,0,-0.04,0.73
1697352175.4,0.2,-0.78,0.57,-2.9,0.5,-57.3,0.69,0,-0.04,0.73
1697352175.41,-0.28,-0.82,1.39,-2.9,0.5,-57.3,0.69,0,-0.04,0.73
1697352175.42,-0.04,-0.65,0.47,0.1,1.1,-56.5,0.69,0,-0.04,0.72
1697352175.43,-0.09,-0.85,1.04,0.7,2.1,-55.8,0.69,0,-0.04,0.72
1697352175.44,-0.09,-0.85,1.04,0.7,2.1,-55.8,0.7,0,-0.04,0.72
1697352175.45,-0.09,-0.85,1.04,0.7,2.1,-55.8,0.7,0,-0.04,0.72
1697352175.46,-0.09,-0.85,1.04,0.7,2.1,-55.8,0.7,0,-0.04,0.72
1697352175.47,-0.09,-0.85,1.04,0.7,2.1,-55.8,0.7,0,-0.04,0.72
1697352175.48,-0.09,-0.85,1.04,0.7,2.1,-55.8,0.7,0,-0.04,0.72
1697352175.49,-0.09,-0.85,1.04,0.7,2.1,-55.8,0.7,0,-0.04,0.72
1697352175.5,-0.09,-0.85,1.04,0.7,2.1,-55.8,0.7,0,-0.04,0.72
1697352175.51,-0.09,-0.85,1.04,0.7,2.1,-55.8,0.7,0,-0.04,0.72
1697352175.52,-0.09,-0.85,1.04,0.7,2.1,-55.8,0.7,0,-0.04,0.72
1697352175.53,-0.09,-0.85,1.04,0.7,2.1,-55.8,0.7,0,-0.04,0.72
1697352175.54,-0.09,-0.85,1.04,0.7,2.1,-55.8,0.7,0,-0.04,0.72
1697352175.55,-0.09,-0.85,1.04,0.7,2.1,-55.8,0.7,0,-0.04,0.72
1697352175.56,-0.09,-0.85,1.04,0.7,2.1,-55.8,0.74,0,-0.04,0.67
1697352175.57,-0.22,-0.54,1.02,3.5,2.1,-50.8,0.74,0,-0.04,0.67
1697352175.58,0.06,-0.56,1.1,2.7,3.6,-49.6,0.75,0,-0.04,0.67
1697352175.59,-0.05,-0.7,1.4,3.6,4.9,-47.7,0.75,0,-0.04,0.66
1697352175.6,0.01,-0.84,0.66,3.9,5.2,-46.7,0.75,0,-0.03,0.66
1697352175.61,0.06,-0.73,1.61,0,4.3,-46.2,0.75,0,-0.03,0.66
1697352175.62,0.36,-0.58,0.8,-2,2.2,-44.8,0.76,0,-0.03,0.65
1697352175.63,0.14,-0.38,1.14,1.1,-1.7,-44,0.76,0,-0.03,0.65
1697352175.64,0.21,-0.54,0.58,3.5,-2.4,-43.3,0.76,0,-0.03,0.65
1697352175.65,0.13,-0.73,0.79,4.4,-2.2,-44.4,0.76,0.01,-0.03,0.64
1697352175.66,0.35,-0.36,0.05,1.1,-2.4,-43.5,0.77,0.01,-0.03,0.64
1697352175.67,-0.05,-0.76,1.23,0.8,-2.1,-44.3,0.77,0.01,-0.03,0.64
1697352175.68,0.08,-0.48,1.13,0,-1.4,-44.4,0.77,0.01,-0.03,0.64
1697352175.69,0.16,-0.51,0.42,0,-0.6,-43,0.77,0.01,-0.03,0.63
1697352175.7,-0.09,-0.46,1.63,0.9,0.2,-42.8,0.78,0.01,-0.03,0.63
1697352175.71,0.04,-0.15,0.77,0.4,1.3,-40,0.78,0.01,-0.03,0.63
1697352175.72,0.2,-0.4,0.92,1.9,1.9,-37.7,0.78,0.01,-0.03,0.62
1697352175.73,-0.07,-0.39,1.3,3.7,2.2,-36.3,0.78,0.01,-0.03,0.62
1697352175.74,0.12,-0.28,0.87,2.8,2.3,-32.9,0.78,0.01,-0.03,0.62
1697352175.75,0.09,-0.52,1.41,2.8,2.3,-32.9,0.78,0.01,-0.03,0.62
1697352175.76,0.17,-0.1,0.75,2.9,2.2,-32.4,0.79,0.01,-0.03,0.62
1697352175.77,0.17,-0.1,0.75,1,1.1,-29.6,0.79,0.01,-0.03,0.61
1697352175.78,0.09,-0.48,1.13,2.5,0.5,-27.9,0.79,0.01,-0.03,0.61
1697352175.79,0.02,-0.12,1.49,2.9,-0.4,-24.2,0.79,0.01,-0.03,0.61
1697352175.8,0.19,-0.32,0.85,2.9,-0.4,-24.2,0.79,0.01,-0.03,0.61
1697352175.81,0.07,-0.03,0.97,4,-0.2,-23.5,0.79,0.01,-0.03,0.61
1697352175.82,0.19,-0.14,0.86,1.6,0,-21.6,0.8,0.01,-0.03,0.6
1697352175.83,0.19,-0.14,0.86,1.3,1.1,-20.2,0.8,0.01,-0.03,0.6
1697352175.84,-0.12,-0.18,1.47,0.3,1.6,-19.3,0.8,0.01,-0.03,0.6
1697352175.85,0.08,-0,1.5,0,2.1,-17.7,0.8,0.01,-0.03,0.6
1697352175.86,0.03,-0.01,0.71,0.7,2.7,-16.8,0.8,0.01,-0.03,0.6
1697352175.87,0.08,0.02,1.32,1.8,2.7,-15.8,0.8,0.01,-0.03,0.6
1697352175.88,0.05,-0.1,1.3,2.5,2.3,-14.8,0.8,0.01,-0.03,0.6
1697352175.89,0.09,-0.03,0.89,2.1,1.7,-13.8,0.8,0.01,-0.03,0.6
1697352175.9,0.14,-0.04,1.06,1.1,1.4,-12.4,0.8,0.01,-0.03,0.6
1697352175.91,0.03,-0.01,0.73,0.6,1,-11.1,0.8,0.01,-0.03,0.59
1697352175.92,0.07,0.12,1.18,0.9,0.5,-9.3,0.8,0.01,-0.03,0.59
1697352175.93,0.08,0.1,1.03,1.8,0.6,-7.4,0.8,0.01,-0.03,0.59
1697352175.94,0.1,0.1,1.32,2.6,0.8,-5.4,0.8,0.01,-0.03,0.59
1697352175.95,0.03,0.1,0.77,2.5,1.2,-3.8,0.8,0.01,-0.03,0.59
1697352175.96,0.04,0.16,1.01,2.2,1.8,-1.9,0.8,0.01,-0.03,0.59
1697352175.97,0.04,0.16,1.01,2.2,1.8,-1.9,0.8,0.01,-0.03,0.59
1697352175.98,0.04,0.16,1.01,2.2,1.8,-1.9,0.8,0.01,-0.03,0.59
1697352175.99,0.04,0.16,1.01,2.2,1.8,-1.9,0.8,0.01,-0.03,0.59
1697352176,0.04,0.16,1.01,2.2,1.8,-1.9,0.8,0.01,-0.03,0.59
1697352176.01,0.04,0.16,1.01,2.2,1.8,-1.9,0.8,0.01,-0.03,0.59
1697352176.02,0.04,0.16,1.01,2.2,1.8,-1.9,0.8,0.01,-0.03,0.59
1697352176.03,0.04,0.16,1.01,2.2,1.8,-1.9,0.8,0.01,-0.03,0.59
1697352176.04,0.04,0.16,1.01,2.2,1.8,-1.9,0.8,0.01,-0.03,0.59
1697352176.05,0.04,0.16,1.01,2.2,1.8,-1.9,0.8,0.01,-0.03,0.59
1697352176.06,0.04,0.16,1.01,2.2,1.8,-1.9,0.8,0.01,-0.03,0.59
1697352176.07,0.04,0.16,1.01,2.2,1.8,-1.9,0.8,0.01,-0.03,0.59
1697352176.08,0.04,0.16,1.01,2.2,1.8,-1.9,0.8,0.01,-0.03,0.59
1697352176.09,0.04,0.16,1.01,2.2,1.8,-1.9,0.8,0.01,-0.03,0.59
1697352176.1,0.04,0.16,1.01,2.2,1.8,-1.9,0.8,0.01,-0.03,0.59
1697352176.11,0.04,0.16,1.01,2.2,1.8,-1.9,0.8,0.01,-0.03,0.59
1697352176.12,0.14,0.71,1.24,3.6,-0.2,21.5,0.8,0.01,-0.03,0.6
1697352176.13,-0.07,0.68,1.11,4.5,0.2,23.7,0.79,0.01,-0.03,0.61
1697352176.14,0.01,0.59,1.21,5.4,0.5,25.8,0.79,0.01,-0.03,0.61
1697352176.15,0.01,0.59,1.21,5.4,0.9,28.1,0.79,0.01,-0.03,0.61
1697352176.16,-0.01,0.56,0.79,5.1,0.9,29.8,0.79,0.01,-0.03,0.61
1697352176.17,0.08,0.52,1.15,3.2,0.9,31.1,0.79,0.01,-0.03,0.61
1697352176.18,0.1,0.59,0.75,1,0.5,32.2,0.79,0.01,-0.03,0.62
1697352176.19,-0.01,0.63,1.25,0.6,0.2,32.9,0.78,0.01,-0.03,0.62
1697352176.2,0.09,0.56,0.73,1.2,0.1,32.9,0.78,0.01,-0.03,0.62
1697352176.21,0.12,0.57,0.95,0.9,0.1,32.7,0.78,0.01,-0.03,0.62
1697352176.22,0.04,0.57,0.83,0.4,-0.3,32.4,0.78,0.01,-0.03,0.63
1697352176.23,0.13,0.5,1.05,-0.5,-0.3,32.1,0.78,0.01,-0.03,0.63
1697352176.24,-0.03,0.49,0.77,-1.2,-0.3,31.7,0.78,0.01,-0.03,0.63
1697352176.25,0.12,0.55,0.89,-1.3,0,31.2,0.77,0.01,-0.03,0.63
1697352176.26,0.01,0.5,0.88,-1.3,0,30.9,0.77,0.01,-0.03,0.63
1697352176.27,0.1,0.5,0.93,-1.1,0.1,30.3,0.77,0.01,-0.03,0.64
1697352176.28,0.04,0.44,0.83,-1.3,0.4,30.1,0.77,0.01,-0.03,0.64
1697352176.29,0.06,0.45,1.16,-1.2,1,30,0.77,0.01,-0.03,0.64
1697352176.3,0.02,0.45,0.72,-0.4,1.6,29.7,0.77,0.01,-0.03,0.64
1697352176.31,0.1,0.45,1.21,0.5,2.3,29.5,0.76,0.01,-0.03,0.65
1697352176.32,-0.07,0.29,1.11,0.7,2.8,29,0.76,0.01,-0.03,0.65
1697352176.33,0.11,0.27,0.99,0,3,28.7,0.76,0.01,-0.03,0.65
1697352176.34,0.01,0.31,1.21,-0.6,2.6,28.3,0.76,0.01,-0.03,0.65
1697352176.35,0.11,0.39,1.15,-0.3,2.3,27.8,0.76,0.01,-0.03,0.65
1697352176.36,0.07,0.36,0.81,1.5,2.1,27.2,0.75,0.01,-0.03,0.66
1697352176.37,0.22,0.27,1.13,2.1,1.2,26.4,0.75,0.01,-0.03,0.66
1697352176.38,0.11,0.21,0.75,0.3,0.4,25.7,0.75,0.01,-0.03,0.66
1697352176.39,0.19,0.32,1.31,0.3,0.4,25.7,0.75,0.01,-0.03,0.66
1697352176.4,0.19,0.32,1.31,-1,-1.1,24.8,0.75,0.01,-0.03,0.66
1697352176.41,0.12,0.41,1.31,-0.2,-3.7,23.5,0.75,0.01,-0.03,0.66
1697352176.42,0.12,0.41,1.31,-0.2,-3.7,23.5,0.75,0.01,-0.03,0.66
1697352176.43,0.18,0.31,1.17,0,-4.3,21.8,0.75,0.01,-0.03,0.66
1697352176.44,0.18,0.31,1.17,0,-4.3,21.8,0.74,0.01,-0.03,0.67
1697352176.45,0.09,0.23,1.04,-1,-3.7,21,0.74,0.01,-0.03,0.67
1697352176.46,0.02,0.19,1.07,-2.7,-2,20,0.74,0.01,-0.03,0.67
1697352176.47,0.03,0.26,0.81,-3.1,-0.5,19.5,0.74,0.01,-0.03,0.67
1697352176.48,0.03,0.26,1.01,-2.4,1.1,19.1,0.74,0.01,-0.03,0.67
1697352176.49,-0.04,0.21,0.78,-0.7,2.7,18.9,0.74,0.01,-0.03,0.67
1697352176.5,0.03,0.24,1.21,0.3,3.9,18.7,0.74,0.01,-0.03,0.67
1697352176.51,0.1,0.13,0.76,0.6,4.2,18.1,0.74,0.01,-0.03,0.68
1697352176.52,0.11,0.17,0.87,0.5,4.1,18,0.74,0.01,-0.03,0.68
1697352176.53,0.11,0.17,0.87,0.5,4.1,18,0.74,0.01,-0.03,0.68
1697352176.54,0.11,0.17,0.87,0.5,4.1,18,0.74,0.01,-0.03,0.68
1697352176.55,0.11,0.17,0.87,0.5,4.1,18,0.74,0.01,-0.03,0.68
1697352176.56,0.11,0.17,0.87,0.5,4.1,18,0.74,0.01,-0.03,0.68
1697352176.57,0.11,0.17,0.87,0.5,4.1,18,0.74,0.01,-0.03,0.68
1697352176.58,0.11,0.17,0.87,0.5,4.1,18,0.74,0.01,-0.03,0.68
1697352176.59,0.11,0.17,0.87,0.5,4.1,18,0.74,0.01,-0.03,0.68
1697352176.6,0.11,0.17,0.87,0.5,4.1,18,0.74,0.01,-0.03,0.68
1697352176.61,0.11,0.17,0.87,0.5,4.1,18,0.74,0.01,-0.03,0.68
1697352176.62,0.11,0.17,0.87,0.5,4.1,18,0.74,0.01,-0.03,0.68
1697352176.63,0.11,0.17,0.87,0.5,4.1,18,0.74,0.01,-0.03,0.68
1697352176.64,0.11,0.17,0.87,0.5,4.1,18,0.74,0.01,-0.03,0.68
1697352176.65,0.11,0.17,0.87,0.5,4.1,18,0.74,0.01,-0.03,0.68
1697352176.66,0.11,0.17,0.87,0.5,4.1,18,0.74,0.01,-0.03,0.68
1697352176.67,0.11,0.17,0.87,0.5,4.1,18,0.74,0.01,-0.03,0.68
1697352176.68,0.11,0.17,0.87,0.5,4.1,18,0.74,0.01,-0.03,0.68
1697352176.69,0.11,0.17,0.87,0.5,4.1,18,0.74,0.01,-0.03,0.68
1697352176.7,0.11,0.17,0.87,0.5,4.1,18,0.74,0.01,-0.03,0.68
1697352176.71,0.11,0.17,0.87,0.5,4.1,18,0.74,0.01,-0.03,0.68
1697352176.72,0.11,0.17,0.87,0.5,4.1,18,0.74,0.01,-0.03,0.68
1697352176.73,0.11,0.17,0.87,0.5,4.1,18,0.74,0.01,-0.03,0.68
1697352176.74,0.11,0.17,0.87,0.5,4.1,18,0.74,0.01,-0.03,0.68
1697352176.75,0.11,0.17,0.87,0.5,4.1,18,0.74,0.01,-0.03,0.68
1697352176.76,0.11,0.17,0.87,0.5,4.1,18,0.74,0.01,-0.03,0.68
1697352176.77,0.11,0.17,0.87,0.5,4.1,18,0.74,0.01,-0.03,0.68
1697352176.78,0.11,0.17,0.87,0.5,4.1,18,0.74,0.01,-0.03,0.68
1697352176.79,0.11,0.17,0.87,0.5,4.1,18,0.74,0.01,-0.03,0.68
1697352176.8,0.11,0.17,0.87,0.5,4.1,18,0.74,0.01,-0.03,0.68
1697352176.81,0.11,0.17,0.87,0.5,4.1,18,0.74,0.01,-0.03,0.68
1697352176.82,0.11,0.17,0.87,0.5,4.1,18,0.74,0.01,-0.03,0.68
1697352176.83,0.11,0.17,0.87,0.5,4.1,18,0.74,0.01,-0.03,0.68
1697352176.84,0.11,0.17,0.87,0.5,4.1,18,0.74,0.01,-0.03,0.68
1697352176.85,0.11,0.17,0.87,0.5,4.1,18,0.74,0.01,-0.03,0.68
1697352176.86,0.11,0.17,0.87,0.5,4.1,18,0.74,0.01,-0.03,0.68
1697352176.87,0.11,0.17,0.87,0.5,4.1,18,0.74,0.01,-0.03,0.68
1697352176.88,0.11,0.17,0.87,0.5,4.1,18,0.74,0.01,-0.03,0.68
1697352176.89,0.11,0.17,0.87,0.5,4.1,18,0.74,0.01,-0.03,0.68
1697352176.9,0.11,0.17,0.87,0.5,4.1,18,0.74,0.01,-0.03,0.68
1697352176.91,0.11,0.17,0.87,0.5,4.1,18,0.74,0.01,-0.03,0.68
1697352176.92,0.11,0.17,0.87,0.5,4.1,18,0.74,0.01,-0.03,0.68
1697352176.93,0.11,0.17,0.87,0.5,4.1,18,0.74,0.01,-0.03,0.68
1697352176.94,0.11,0.17,0.87,0.5,4.1,18,0.74,0.01,-0.03,0.68
1697352176.95,0.11,0.17,0.87,0.5,4.1,18,0.74,0.01,-0.03,0.68
1697352176.96,0.11,0.17,0.87,0.5,4.1,18,0.74,0.01,-0.03,0.68
1697352176.97,0.11,0.17,0.87,0.5,4.1,18,0.74,0.01,-0.03,0.68
1697352176.98,0.11,0.17,0.87,0.5,4.1,18,0.74,0.01,-0.03,0.68
1697352176.99,0.11,0.17,0.87,0.5,4.1,18,0.74,0.01,-0.03,0.68
1697352177,0.11,0.17,0.87,0.5,4.1,18,0.74,0.01,-0.03,0.68
1697352177.01,0.11,0.17,0.87,0.5,4.1,18,0.74,0.01,-0.03,0.68
1697352177.02,0.11,0.17,0.87,0.5,4.1,18,0.74,0.01,-0.03,0.68
1697352177.03,0.11,0.17,0.87,0.5,4.1,18,0.74,0.01,-0.03,0.68
1697352177.04,0.11,0.17,0.87,0.5,4.1,18,0.74,0.01,-0.03,0.68
1697352177.05,0.11,0.17,0.87,0.5,4.1,18,0.74,0.01,-0.03,0.68
1697352177.06,0.11,0.17,0.87,0.5,4.1,18,0.74,0.01,-0.03,0.68
1697352177.07,0.11,0.17,0.87,0.5,4.1,18,0.74,0.01,-0.03,0.68
1697352177.08,0.11,0.17,0.87,0.5,4.1,18,0.74,0.01,-0.03,0.68
1697352177.09,0.11,0.17,0.87,0.5,4.1,18,0.74,0.01,-0.03,0.68
1697352177.1,0.11,0.17,0.87,0.5,4.1,18,0.74,0.01,-0.03,0.68
1697352177.11,0.11,0.17,0.87,0.5,4.1,18,0.74,0.01,-0.03,0.68
1697352177.12,0.11,0.17,0.87,0.5,4.1,18,0.74,0.01,-0.03,0.68
1697352177.13,0.11,0.17,0.87,0.5,4.1,18,0.74,0.01,-0.03,0.68
1697352177.14,0.11,0.17,0.87,0.5,4.1,18,0.74,0.01,-0.03,0.68
1697352177.15,0.11,0.17,0.87,0.5,4.1,18,0.74,0.01,-0.03,0.68
1697352177.16,0.11,0.17,0.87,0.5,4.1,18,0.74,0.01,-0.03,0.68
1697352177.17,0.11,0.17,0.87,0.5,4.1,18,0.74,0.01,-0.03,0.68
1697352177.18,0.11,0.17,0.87,0.5,4.1,18,0.74,0.01,-0.03,0.68
1697352177.19,0.11,0.17,0.87,0.5,4.1,18,0.74,0.01,-0.03,0.68
1697352177.2,0.11,0.17,0.87,0.5,4.1,18,0.74,0.01,-0.03,0.68
1697352177.21,0.11,0.17,0.87,0.5,4.1,18,0.74,0.01,-0.03,0.68
1697352177.22,0.11,0.17,0.87,0.5,4.1,18,0.74,0.01,-0.03,0.68
1697352177.23,0.11,0.17,0.87,0.5,4.1,18,0.74,0.01,-0.03,0.68
1697352177.24,0.11,0.17,0.87,0.5,4.1,18,0.74,0.01,-0.03,0.68
1697352177.25,0.11,0.17,0.87,0.5,4.1,18,0.74,0.01,-0.03,0.68
1697352177.26,0.11,0.17,0.87,0.5,4.1,18,0.74,0.01,-0.03,0.68
1697352177.27,0.11,0.17,0.87,0.5,4.1,18,0.74,0.01,-0.03,0.68
1697352177.28,0.11,0.17,0.87,0.5,4.1,18,0.74,0.01,-0.03,0.68
1697352177.29,0.11,0.17,0.87,0.5,4.1,18,0.74,0.01,-0.03,0.68
1697352177.3,0.11,0.17,0.87,0.5,4.1,18,0.74,0.01,-0.03,0.68
1697352177.31,0.11,0.17,0.87,0.5,4.1,18,0.74,0.01,-0.03,0.68
1697352177.32,0.11,0.17,0.87,0.5,4.1,18,0.74,0.01,-0.03,0.68
1697352177.33,0.11,0.17,0.87,0.5,4.1,18,0.74,0.01,-0.03,0.68
1697352177.34,0.11,0.17,0.87,0.5,4.1,18,0.74,0.01,-0.03,0.68
1697352177.35,0.11,0.17,0.87,0.5,4.1,18,0.74,0.01,-0.03,0.68
1697352177.36,0.11,0.17,0.87,0.5,4.1,18,0.74,0.01,-0.03,0.68
1697352177.37,0.11,0.17,0.87,0.5,4.1,18,0.74,0.01,-0.03,0.68
1697352177.38,0.11,0.17,0.87,0.5,4.1,18,0.74,0.01,-0.03,0.68
1697352177.39,0.11,0.17,0.87,0.5,4.1,18,0.74,0.01,-0.03,0.68
1697352177.4,0.11,0.17,0.87,0.5,4.1,18,0.74,0.01,-0.03,0.68
1697352177.41,0.11,0.17,0.87,0.5,4.1,18,0.74,0.01,-0.03,0.68
1697352177.42,0,0.1,1.09,-2.1,-1.3,7.6,0.67,0.01,-0.03,0.75
1697352177.43,0.1,0.11,1.05,-2.4,-2.5,6.7,0.67,0.01,-0.03,0.75
1697352177.44,0.09,0.15,0.76,-2.2,-3.4,6.1,0.67,0.01,-0.03,0.75
1697352177.45,0.04,0.14,1.29,-2,-3.9,5.7,0.66,0.01,-0.03,0.75
1697352177.46,-0.14,0.13,1.26,-1.1,-3.4,5.5,0.66,0.01,-0.03,0.75
1697352177.47,-0.14,0.13,1.26,-1.1,-3.4,5.5,0.66,0.01,-0.03,0.75
1697352177.48,0.03,-0.03,0.79,-0.2,-0.3,4.6,0.66,0.01,-0.03,0.75
1697352177.49,0.13,-0.14,0.69,-0.6,0.6,4.5,0.66,0.01,-0.03,0.75
1697352177.5,0.13,-0.14,0.69,-0.6,0.6,4.5,0.66,0.01,-0.03,0.75
1697352177.51,0.16,0.03,0.61,-1,1.9,3.8,0.66,0.01,-0.03,0.75
1697352177.52,-0.08,0.09,1.11,-0.7,3,3.6,0.66,0.01,-0.03,0.75
1697352177.53,-0.08,0.09,1.11,0.6,3.5,3.9,0.66,0.01,-0.03,0.75
1697352177.54,0.06,-0.08,1.09,1.8,3.1,4,0.66,0.01,-0.03,0.75
1697352177.55,-0.05,0.04,0.94,3,2.9,3.8,0.66,0.01,-0.03,0.75
1697352177.56,-0.04,-0.14,1.16,1.8,1.9,3.8,0.66,0.01,-0.03,0.75
1697352177.57,0.04,0,1.21,-0.1,1.4,3.3,0.66,0.01,-0.03,0.75
1697352177.58,0.24,0.07,0.65,-1.1,1,3.1,0.66,0.01,-0.03,0.75
1697352177.59,-0.1,0.12,1.25,-0.3,-0.3,2.9,0.66,0.01,-0.03,0.75
1697352177.6,-0.1,0.08,1.34,0.3,-1,2.6,0.66,0.01,-0.03,0.75
1697352177.61,0.27,0.02,0.46,0.7,-2.2,2.1,0.66,0.01,-0.03,0.75
1697352177.62,0.05,0.01,0.86,0.3,-2.9,1.3,0.66,0.01,-0.03,0.75
1697352177.63,-0.09,-0.01,1.32,-0.4,-3,0.8,0.66,0.01,-0.03,0.75
1697352177.64,0.24,0.03,0.49,-1.2,-3.1,0.4,0.66,0.01,-0.03,0.75
1697352177.65,-0.16,-0.05,1.35,-0.9,-1.8,0,0.66,0.01,-0.03,0.75
1697352177.66,-0.07,-0.08,1.22,-1.1,-0.9,-0.4,0.66,0.01,-0.03,0.75
1697352177.67,0.06,-0.11,0.77,-2,0.5,-0.6,0.66,0.01,-0.03,0.75
1697352177.68,-0.08,-0.01,1.26,-3.3,1.5,-0.6,0.66,0.01,-0.03,0.75
1697352177.69,0.03,-0.02,0.97,-1.9,1.9,-0.7,0.66,0.01,-0.03,0.75
1697352177.7,0.18,-0.12,0.83,0.8,2.1,-1,0.66,0.01,-0.03,0.75
1697352177.71,-0.09,-0.18,1.42,1.9,1.8,-1.1,0.66,0.01,-0.03,0.75
1697352177.72,0,-0.29,1.35,1.8,0.6,-1.6,0.66,0.01,-0.03,0.75
1697352177.73,0.15,-0.17,0.62,0,-0.4,-2.1,0.66,0.01,-0.03,0.75
1697352177.74,-0.08,-0.03,1.53,-0.6,-1.3,-2.4,0.66,0.01,-0.03,0.75
1697352177.75,-0.06,0.03,1.24,0.6,-2.7,-2.2,0.66,0.01,-0.03,0.75
1697352177.76,0.12,-0.09,1.02,2.2,-4,-2.1,0.66,0.01,-0.03,0.75
1697352177.77,0.11,-0.12,0.72,2.2,-4.7,-2,0.66,0.01,-0.03,0.75
1697352177.78,-0.22,-0.06,1.34,1.3,-4.8,-2.1,0.66,0.01,-0.03,0.75
1697352177.79,0.21,-0.09,0.51,-0.7,-4.7,-1.9,0.66,0.01,-0.03,0.75
1697352177.8,-0.1,0.01,1.17,-1.1,-3.2,-2,0.66,0.01,-0.03,0.75
1697352177.81,-0.1,0.01,1.17,-1.1,-3.2,-2,0.66,0.01,-0.03,0.75
1697352177.82,-0.1,0.01,1.17,-1.1,-3.2,-2,0.66,0.01,-0.03,0.75
1697352177.83,-0.1,0.01,1.17,-1.1,-3.2,-2,0.66,0.01,-0.03,0.75
1697352177.84,-0.1,0.01,1.17,-1.1,-3.2,-2,0.66,0.01,-0.03,0.75
1697352177.85,-0.1,0.01,1.17,-1.1,-3.2,-2,0.66,0.01,-0.03,0.75
1697352177.86,-0.1,0.01,1.17,-1.1,-3.2,-2,0.66,0.01,-0.03,0.75
1697352177.87,-0.1,0.01,1.17,-1.1,-3.2,-2,0.66,0.01,-0.03,0.75
1697352177.88,-0.1,0.01,1.17,-1.1,-3.2,-2,0.66,0.01,-0.03,0.75
1697352177.89,-0.1,0.01,1.17,-1.1,-3.2,-2,0.66,0.01,-0.03,0.75
1697352177.9,-0.1,0.01,1.17,-1.1,-3.2,-2,0.66,0.01,-0.03,0.75
1697352177.91,-0.1,0.01,1.17,-1.1,-3.2,-2,0.66,0.01,-0.03,0.75
1697352177.92,-0.1,0.01,1.17,-1.1,-3.2,-2,0.66,0.01,-0.03,0.75
1697352177.93,-0.1,0.01,1.17,-1.1,-3.2,-2,0.66,0.01,-0.03,0.75
1697352177.94,-0.1,0.01,1.17,-1.1,-3.2,-2,0.66,0.01,-0.03,0.75
1697352177.95,-0.1,0.01,1.17,-1.1,-3.2,-2,0.66,0.01,-0.03,0.75
1697352177.96,-0.1,0.01,1.17,-1.1,-3.2,-2,0.66,0.01,-0.03,0.75
1697352177.97,-0.1,0.01,1.17,-1.1,-3.2,-2,0.66,0.01,-0.03,0.75
1697352177.98,-0.1,0.01,1.17,-1.1,-3.2,-2,0.66,0.01,-0.03,0.75
1697352177.99,-0.1,0.01,1.17,-1.1,-3.2,-2,0.66,0.01,-0.03,0.75
1697352178,-0.1,0.01,1.17,-1.1,-3.2,-2,0.66,0.01,-0.03,0.75
1697352178.01,-0.1,0.01,1.17,-1.1,-3.2,-2,0.66,0.01,-0.03,0.75
1697352178.02,-0.1,0.01,1.17,-1.1,-3.2,-2,0.66,0.01,-0.03,0.75
1697352178.03,-0.1,0.01,1.17,-1.1,-3.2,-2,0.66,0.01,-0.03,0.75
1697352178.04,-0.1,0.01,1.17,-1.1,-3.2,-2,0.66,0.01,-0.03,0.75
1697352178.05,-0.1,0.01,1.17,-1.1,-3.2,-2,0.66,0.01,-0.03,0.75
1697352178.06,-0.1,0.01,1.17,-1.1,-3.2,-2,0.66,0.01,-0.03,0.75
1697352178.07,-0.1,0.01,1.17,-1.1,-3.2,-2,0.66,0.01,-0.03,0.75
1697352178.08,-0.1,0.01,1.17,-1.1,-3.2,-2,0.66,0.01,-0.03,0.75
1697352178.09,-0.1,0.01,1.17,-1.1,-3.2,-2,0.66,0.01,-0.03,0.75
1697352178.1,-0.1,0.01,1.17,-1.1,-3.2,-2,0.66,0.01,-0.03,0.75
1697352178.11,-0.1,0.01,1.17,-1.1,-3.2,-2,0.66,0.01,-0.03,0.75
1697352178.12,-0.1,0.01,1.17,-1.1,-3.2,-2,0.66,0.01,-0.03,0.75
1697352178.13,-0.1,0.01,1.17,-1.1,-3.2,-2,0.66,0.01,-0.03,0.75
1697352178.14,-0.1,0.01,1.17,-1.1,-3.2,-2,0.66,0.01,-0.03,0.75
1697352178.15,-0.1,0.01,1.17,-1.1,-3.2,-2,0.66,0.01,-0.03,0.75
1697352178.16,-0.1,0.01,1.17,-1.1,-3.2,-2,0.66,0.01,-0.03,0.75
1697352178.17,-0.1,0.01,1.17,-1.1,-3.2,-2,0.66,0.01,-0.03,0.75
1697352178.18,-0.1,0.01,1.17,-1.1,-3.2,-2,0.66,0.01,-0.03,0.75
1697352178.19,-0.1,0.01,1.17,-1.1,-3.2,-2,0.66,0.01,-0.03,0.75
1697352178.2,-0.1,0.01,1.17,-1.1,-3.2,-2,0.66,0.01,-0.03,0.75
1697352178.21,-0.1,0.01,1.17,-1.1,-3.2,-2,0.66,0.01,-0.03,0.75
1697352178.22,-0.1,0.01,1.17,-1.1,-3.2,-2,0.66,0.01,-0.03,0.75
1697352178.23,-0.1,0.01,1.17,-1.1,-3.2,-2,0.66,0.01,-0.03,0.75
1697352178.24,-0.1,0.01,1.17,-1.1,-3.2,-2,0.66,0.01,-0.03,0.75
1697352178.25,-0.1,0.01,1.17,-1.1,-3.2,-2,0.66,0.01,-0.03,0.75
1697352178.26,-0.1,0.01,1.17,-1.1,-3.2,-2,0.66,0.01,-0.03,0.75
1697352178.27,-0.1,0.01,1.17,-1.1,-3.2,-2,0.66,0.01,-0.03,0.75
1697352178.28,-0.1,0.01,1.17,-1.1,-3.2,-2,0.66,0.01,-0.03,0.75
1697352178.29,-0.1,0.01,1.17,-1.1,-3.2,-2,0.66,0.01,-0.03,0.75
1697352178.3,-0.1,0.01,1.17,-1.1,-3.2,-2,0.66,0.01,-0.03,0.75
1697352178.31,-0.1,0.01,1.17,-1.1,-3.2,-2,0.66,0.01,-0.03,0.75
1697352178.32,-0.1,0.01,1.17,-1.1,-3.2,-2,0.66,0.01,-0.03,0.75
1697352178.33,-0.1,0.01,1.17,-1.1,-3.2,-2,0.66,0.01,-0.03,0.75
1697352178.34,-0.1,0.01,1.17,-1.1,-3.2,-2,0.66,0.01,-0.03,0.75
1697352178.35,-0.1,0.01,1.17,-1.1,-3.2,-2,0.66,0.01,-0.03,0.75
1697352178.36,-0.1,0.01,1.17,-1.1,-3.2,-2,0.66,0.01,-0.03,0.75
1697352178.37,-0.1,0.01,1.17,-1.1,-3.2,-2,0.66,0.01,-0.03,0.75
1697352178.38,-0.1,0.01,1.17,-1.1,-3.2,-2,0.66,0.01,-0.03,0.75
1697352178.39,-0.1,0.01,1.17,-1.1,-3.2,-2,0.66,0.01,-0.03,0.75
1697352178.4,-0.1,0.01,1.17,-1.1,-3.2,-2,0.66,0.01,-0.03,0.75
1697352178.41,-0.1,0.01,1.17,-1.1,-3.2,-2,0.66,0.01,-0.03,0.75
1697352178.42,-0.1,0.01,1.17,-1.1,-3.2,-2,0.66,0.01,-0.03,0.75
1697352178.43,-0.1,0.01,1.17,-1.1,-3.2,-2,0.66,0.01,-0.03,0.75
1697352178.44,-0.1,0.01,1.17,-1.1,-3.2,-2,0.66,0.01,-0.03,0.75
1697352178.45,-0.1,0.01,1.17,-1.1,-3.2,-2,0.66,0.01,-0.03,0.75
1697352178.46,-0.1,0.01,1.17,-1.1,-3.2,-2,0.66,0.01,-0.03,0.75
1697352178.47,-0.1,0.01,1.17,-1.1,-3.2,-2,0.66,0.01,-0.03,0.75
1697352178.48,-0.1,0.01,1.17,-1.1,-3.2,-2,0.66,0.01,-0.03,0.75
1697352178.49,-0.1,0.01,1.17,-1.1,-3.2,-2,0.66,0.01,-0.03,0.75
1697352178.5,-0.1,0.01,1.17,-1.1,-3.2,-2,0.66,0.01,-0.03,0.75
1697352178.51,-0.1,0.01,1.17,-1.1,-3.2,-2,0.66,0.01,-0.03,0.75
1697352178.52,-0.1,0.01,1.17,-1.1,-3.2,-2,0.66,0.01,-0.03,0.75
1697352178.53,-0.1,0.01,1.17,-1.1,-3.2,-2,0.66,0.01,-0.03,0.75
1697352178.54,-0.1,0.01,1.17,-1.1,-3.2,-2,0.66,0.01,-0.03,0.75
1697352178.55,-0.1,0.01,1.17,-1.1,-3.2,-2,0.66,0.01,-0.03,0.75
1697352178.56,0.02,0.01,1.12,0.5,-3.5,1.6,0.68,0.01,-0.03,0.73
1697352178.57,0.01,0.04,0.64,-0.5,-3.6,1.5,0.68,0.01,-0.03,0.73
1697352178.58,-0.24,0.09,1.44,-1.4,-2.9,1.1,0.68,0.01,-0.03,0.73
1697352178.59,0.04,0.07,0.8,-1.9,-2,1.3,0.68,0.01,-0.03,0.73
1697352178.6,0.03,0.02,0.44,-0.7,-1,0.9,0.68,0.01,-0.03,0.73
1697352178.61,-0.29,0.09,1.6,0,0.5,0.8,0.68,0.01,-0.03,0.73
1697352178.62,-0.17,-0.05,1.27,0.9,2,1.4,0.68,0.01,-0.03,0.73
1697352178.63,0.24,-0.08,0.74,1.2,2.4,1.5,0.68,0.01,-0.03,0.73
1697352178.64,0.14,-0.06,0.8,1.1,2.1,1.4,0.68,0.01,-0.03,0.73
1697352178.65,-0.06,0.03,1.26,0.3,2.1,1.8,0.68,0.01,-0.03,0.73
1697352178.66,0.26,0.04,0.62,-0.4,1.1,2,0.68,0.01,-0.03,0.73
1697352178.67,0.26,0.04,0.62,0,0.2,2,0.68,0.01,-0.03,0.73
1697352178.68,-0.05,0.01,1.33,0.3,0,2.1,0.68,0.01,-0.03,0.73
1697352178.69,0.14,0.05,0.63,0.7,-0.6,1.8,0.68,0.01,-0.03,0.73
1697352178.7,0.14,0.05,0.63,0.6,-1.5,1.3,0.68,0.01,-0.03,0.73
1697352178.71,-0.09,0.04,1.33,0.1,-2.2,1.3,0.68,0.01,-0.03,0.73
1697352178.72,-0.04,0.08,1.16,0.2,-3.2,0.9,0.68,0.01,-0.03,0.74
1697352178.73,-0.09,0.08,1.2,-0.3,-2.9,0.6,0.68,0.01,-0.03,0.74
1697352178.74,0.04,0.12,0.77,-0.1,-1.9,0.7,0.68,0.01,-0.03,0.74
1697352178.75,-0.09,0.04,1.08,-0.1,-1.9,0.7,0.68,0.01,-0.03,0.74
1697352178.76,-0,0.01,0.93,-0.3,-0.2,0.6,0.68,0.01,-0.03,0.74
1697352178.77,0.02,0.01,0.91,-0.3,-0.2,0.6,0.68,0.01,-0.03,0.74
1697352178.78,-0.19,0,1.25,0.3,1.8,0.2,0.68,0.01,-0.03,0.74
1697352178.79,-0.01,-0.05,1.1,0.3,1.8,0.2,0.68,0.01,-0.03,0.74
1697352178.8,-0,-0.04,0.88,-0.1,2.2,0.5,0.68,0.01,-0.03,0.74
1697352178.81,-0.12,-0.04,1.33,-0.2,2.8,1,0.68,0.01,-0.03,0.74
1697352178.82,-0.18,-0.02,1.48,-0.4,2.8,0.5,0.68,0.01,-0.03,0.74
1697352178.83,0.1,0.07,0.85,-0.4,2.8,0.5,0.68,0.01,-0.03,0.74
1697352178.84,-0.05,0.08,1.1,-0.7,2.2,0.4,0.68,0.01,-0.03,0.74
1697352178.85,-0.15,0.01,1.35,-0.2,1.3,0.7,0.68,0.01,-0.03,0.74
1697352178.86,-0.04,-0.07,1.3,1.2,0.2,0.5,0.68,0.01,-0.03,0.74
1697352178.87,0.23,-0.13,0.59,2.1,-0.1,0.1,0.68,0.01,-0.03,0.74
1697352178.88,-0.03,-0.24,1.22,2.3,-0.4,-0.3,0.68,0.01,-0.03,0.74
1697352178.89,-0.12,-0.03,1.41,-0.2,-1.2,-0.7,0.68,0.01,-0.03,0.74
1697352178.9,0.21,0.07,0.47,-2.7,-1.3,-1.4,0.68,0.01,-0.03,0.74
1697352178.91,-0.14,0.07,1.16,-3.3,-1.5,-1.6,0.68,0.01,-0.03,0.74
1697352178.92,-0.14,0.07,1.16,-3.3,-1.5,-1.6,0.68,0.01,-0.03,0.74
1697352178.93,-0.01,-0.09,1.08,-0.1,-0.4,-1.6,0.68,0.01,-0.03,0.74
1697352178.94,-0.01,-0.09,1.08,-0.1,-0.4,-1.6,0.68,0.01,-0.03,0.74
1697352178.95,-0.01,-0.09,1.08,-0.1,-0.4,-1.6,0.68,0.01,-0.03,0.74
1697352178.96,-0.01,-0.09,1.08,-0.1,-0.4,-1.6,0.68,0.01,-0.03,0.74
1697352178.97,-0.01,-0.09,1.08,-0.1,-0.4,-1.6,0.68,0.01,-0.03,0.74
1697352178.98,-0.01,-0.09,1.08,-0.1,-0.4,-1.6,0.68,0.01,-0.03,0.74
1697352178.99,-0.01,-0.09,1.08,-0.1,-0.4,-1.6,0.68,0.01,-0.03,0.74
1697352179,-0.01,-0.09,1.08,-0.1,-0.4,-1.6,0.68,0.01,-0.03,0.74
1697352179.01,-0.01,-0.09,1.08,-0.1,-0.4,-1.6,0.68,0.01,-0.03,0.74
1697352179.02,-0.01,-0.09,1.08,-0.1,-0.4,-1.6,0.68,0.01,-0.03,0.74
1697352179.03,-0.01,-0.09,1.08,-0.1,-0.4,-1.6,0.68,0.01,-0.03,0.74
1697352179.04,-0.01,-0.09,1.08,-0.1,-0.4,-1.6,0.68,0.01,-0.03,0.74
1697352179.05,-0.01,-0.09,1.08,-0.1,-0.4,-1.6,0.68,0.01,-0.03,0.74
1697352179.06,-0.01,-0.09,1.08,-0.1,-0.4,-1.6,0.68,0.01,-0.03,0.74
1697352179.07,-0.01,-0.09,1.08,-0.1,-0.4,-1.6,0.68,0.01,-0.03,0.74
1697352179.08,-0.05,0.02,1.24,1,1.1,-1.6,0.68,0.01,-0.03,0.73
1697352179.09,-0.05,0.02,1.24,1.1,3.1,-2,0.68,0.01,-0.03,0.73
1697352179.1,0.1,-0.06,0.93,1.1,3.1,-2,0.68,0.01,-0.03,0.73
1697352179.11,-0.22,0.04,1.59,0.5,3.2,-1.8,0.68,0.01,-0.03,0.73
1697352179.12,0.15,-0.07,0.8,0.5,3.2,-1.8,0.68,0.01,-0.03,0.73
1697352179.13,-0.04,-0.08,1.05,0.1,2.9,-2.3,0.68,0.01,-0.03,0.73
1697352179.14,0.07,-0.06,0.74,-0.2,2.3,-2.3,0.68,0.01,-0.03,0.73
1697352179.15,-0.15,-0.02,1.43,-0.2,2.3,-2.3,0.68,0.01,-0.03,0.73
1697352179.16,0.23,0,0.69,-1.2,1.6,-2,0.68,0.01,-0.03,0.73
1697352179.17,0.03,-0.02,0.91,-1.2,0.4,-2,0.68,0.01,-0.03,0.73
1697352179.18,-0.02,-0.07,1.12,0.2,-0.9,-2.4,0.68,0.01,-0.03,0.73
1697352179.19,0.19,-0.08,0.38,-0.9,-1.9,-2.4,0.68,0.01,-0.03,0.73
1697352179.2,-0.16,-0.03,1.47,-2,-3.2,-2.1,0.68,0.01,-0.03,0.73
1697352179.21,0.04,0.02,0.79,-2.9,-4.2,-2.3,0.68,0.01,-0.03,0.73
1697352179.22,0.16,0.12,0.62,-3.2,-4.1,-2.4,0.68,0.01,-0.03,0.73
1697352179.23,-0.22,-0.07,1.17,-1.6,-3.7,-2.2,0.68,0.01,-0.03,0.73
1697352179.24,-0.15,-0.07,1.16,0.9,-1.9,-1.7,0.68,0.01,-0.03,0.73
1697352179.25,-0.2,-0.02,1.51,0.6,0,-1.7,0.68,0.01,-0.03,0.73
1697352179.26,0.11,-0.04,0.69,-0.6,2.1,-1.5,0.68,0.01,-0.03,0.73
1697352179.27,-0.19,-0.05,1.43,0,3.1,-1.5,0.68,0.01,-0.03,0.73
1697352179.28,0.13,-0.11,0.88,1.4,4,-1.2,0.68,0.01,-0.03,0.73
1697352179.29,0.19,-0.1,0.95,1,4.6,-0.9,0.68,0.01,-0.03,0.73
1697352179.3,0.02,0.03,1,0.4,4.1,-1.2,0.68,0.01,-0.03,0.73
1697352179.31,-0.04,0.05,1.17,-0.5,2.9,-1.3,0.68,0.01,-0.03,0.73
1697352179.32,-0.04,0.05,1.17,-0.9,1.4,-1,0.68,0.01,-0.03,0.73
1697352179.33,-0.2,0,1.5,-0.2,0,-1.1,0.68,0.01,-0.03,0.73
1697352179.34,-0.2,0,1.5,-0.2,0,-1.1,0.68,0.01,-0.03,0.73
1697352179.35,0.11,0.02,0.81,-0.6,-1.5,-1,0.68,0.01,-0.03,0.73
1697352179.36,0.13,0.01,0.77,-1.1,-2.6,-1.2,0.68,0.01,-0.03,0.73
1697352179.37,-0.19,-0.06,1.3,-1.6,-3,-1.2,0.68,0.01,-0.03,0.73
1697352179.38,-0.19,-0.06,1.3,-1.6,-3,-1.2,0.68,0.01,-0.03,0.73
1697352179.39,0.1,-0.02,0.56,-2.5,-2.2,-1.5,0.68,0.01,-0.03,0.73
1697352179.4,0.1,-0.02,0.56,-2.5,-2.2,-1.5,0.68,0.01,-0.03,0.73
1697352179.41,0.12,0.06,0.65,-3.6,0.7,-1.8,0.68,0.01,-0.03,0.73
1697352179.42,0.12,0.06,0.65,-3.6,0.7,-1.8,0.68,0.01,-0.03,0.73
1697352179.43,-0.12,-0.06,1.15,1.1,2.1,-2.1,0.68,0.01,-0.03,0.73
1697352179.44,-0.07,-0.11,1.08,1.9,2.4,-2.3,0.68,0.01,-0.03,0.73
1697352179.45,0.14,-0.23,0.69,1.1,2.5,-2.5,0.68,0.01,-0.03,0.73
1697352179.46,-0.07,-0.21,1.07,-1,2.1,-2.6,0.68,0.01,-0.03,0.73
1697352179.47,-0.07,-0.21,1.07,-1,2.1,-2.6,0.68,0.01,-0.03,0.73
1697352179.48,-0.07,-0.21,1.07,-1,2.1,-2.6,0.68,0.01,-0.03,0.73
1697352179.49,-0.07,-0.21,1.07,-1,2.1,-2.6,0.68,0.01,-0.03,0.73
1697352179.5,-0.07,-0.21,1.07,-1,2.1,-2.6,0.68,0.01,-0.03,0.73
1697352179.51,-0.07,-0.21,1.07,-1,2.1,-2.6,0.68,0.01,-0.03,0.73
1697352179.52,-0.07,-0.21,1.07,-1,2.1,-2.6,0.68,0.01,-0.03,0.73
1697352179.53,-0.07,-0.21,1.07,-1,2.1,-2.6,0.68,0.01,-0.03,0.73
1697352179.54,-0.07,-0.21,1.07,-1,2.1,-2.6,0.68,0.01,-0.03,0.73
1697352179.55,-0.07,-0.21,1.07,-1,2.1,-2.6,0.68,0.01,-0.03,0.73
1697352179.56,-0.07,-0.21,1.07,-1,2.1,-2.6,0.68,0.01,-0.03,0.73
1697352179.57,-0.07,-0.21,1.07,-1,2.1,-2.6,0.68,0.01,-0.03,0.73
1697352179.58,-0.07,-0.21,1.07,-1,2.1,-2.6,0.68,0.01,-0.03,0.73
1697352179.59,0.17,-0.1,0.71,1.1,1.5,-1.9,0.69,0.01,-0.03,0.73
1697352179.6,-0.17,-0.07,1.28,0,2.5,-1.9,0.69,0.01,-0.03,0.73
1697352179.61,-0.05,-0.07,1.34,-0.3,2.6,-1.8,0.69,0.01,-0.03,0.73
1697352179.62,-0.07,-0.05,1.31,-0.3,2.6,-1.8,0.69,0.01,-0.03,0.73
1697352179.63,0.2,-0.05,0.78,-0.7,1.1,-2,0.69,0.01,-0.03,0.73
1697352179.64,-0.09,0.04,1.42,0.1,0.1,-2.2,0.69,0.01,-0.03,0.73
1697352179.65,0.1,-0.03,1.06,0.2,-0.4,-2.2,0.69,0.01,-0.03,0.73
1697352179.66,0.16,-0.11,0.58,-1,-0.8,-2.1,0.69,0.01,-0.03,0.73
1697352179.67,-0.21,-0.04,1.56,-2.9,-1.4,-2.2,0.69,0.01,-0.03,0.73
1697352179.68,0.17,0.11,0.59,-2.3,-1.6,-1.9,0.69,0.01,-0.03,0.73
1697352179.69,0.1,0.03,0.76,0.7,-1.4,-2,0.69,0.01,-0.03,0.73
1697352179.7,0.05,-0.03,0.66,1.6,-0.9,-2,0.69,0.01,-0.03,0.73
1697352179.71,-0.16,-0.08,1.35,1.6,-0.9,-2,0.69,0.01,-0.03,0.73
1697352179.72,-0.16,-0.08,1.35,1.2,-0.3,-2.1,0.69,0.01,-0.03,0.73
1697352179.73,-0.01,-0.06,1.19,0.1,0.5,-2,0.69,0.01,-0.03,0.73
1697352179.74,0.04,-0.02,0.53,-0.9,0.7,-2.5,0.69,0.01,-0.03,0.73
1697352179.75,0.04,-0.02,0.53,-0.9,0.7,-2.5,0.69,0.01,-0.03,0.73
1697352179.76,-0.13,0.1,1.33,-2.6,1.2,-2.3,0.69,0.01,-0.03,0.73
1697352179.77,-0.17,-0.04,1.37,-1.7,2.5,-1.7,0.69,0.01,-0.03,0.73
1697352179.78,0.01,-0.13,1.26,1.1,3.3,-1.3,0.69,0.01,-0.03,0.73
1697352179.79,0.17,-0.16,0.66,2.8,2.7,-1.4,0.69,0.01,-0.03,0.73
1697352179.8,-0.05,-0.1,1.21,2.1,2.2,-1.7,0.69,0.01,-0.03,0.73
1697352179.81,0.18,-0.02,0.97,0.4,0.9,-1.7,0.69,0.01,-0.03,0.73
1697352179.82,0.1,-0.01,0.47,-1.1,-0.4,-1.8,0.69,0.01,-0.03,0.72
1697352179.83,0.04,0,1.16,-2,-1.9,-2,0.69,0.01,-0.03,0.72
1697352179.84,-0.16,0.05,1.27,-1.7,-1.9,-2.4,0.69,0.01,-0.03,0.72
1697352179.85,0.05,-0.1,0.61,0,-2.6,-2.3,0.69,0.01,-0.03,0.72
1697352179.86,-0.18,0.02,1.22,0.8,-2.9,-2,0.69,0.01,-0.03,0.72
1697352179.87,0.07,0,0.84,0.5,-2,-2.1,0.69,0.01,-0.03,0.72
1697352179.88,-0.04,-0.14,0.96,1.2,-1.2,-2.2,0.69,0.01,-0.03,0.72
1697352179.89,-0.13,-0.17,1.26,2.5,0,-2,0.69,0.01,-0.03,0.72
1697352179.9,0.06,-0.15,0.88,2.7,1,-2.1,0.69,0.01,-0.03,0.72
1697352179.91,0.07,-0.03,0.92,0.5,1.8,-2,0.69,0.01,-0.03,0.72
1697352179.92,-0.15,0.15,1.32,-2.7,2.2,-1.6,0.69,0.01,-0.03,0.72
1697352179.93,-0.2,0.02,1.62,-2.7,2.1,-1.2,0.69,0.01,-0.03,0.72
1697352179.94,0.08,-0.09,0.98,-0.1,1.6,-0.8,0.69,0.01,-0.03,0.72
1697352179.95,0.06,-0.1,0.65,1.5,0.9,-0.5,0.69,0.01,-0.03,0.72
1697352179.96,-0.16,-0.02,1.63,1.3,0.3,-0.4,0.69,0.01,-0.03,0.72
1697352179.97,-0.16,-0.02,1.63,1.3,0.3,-0.4,0.69,0.01,-0.03,0.72
1697352179.98,-0.16,-0.02,1.63,1.3,0.3,-0.4,0.69,0.01,-0.03,0.72
1697352179.99,-0.16,-0.02,1.63,1.3,0.3,-0.4,0.69,0.01,-0.03,0.72
1697352180,-0.16,-0.02,1.63,1.3,0.3,-0.4,0.69,0.01,-0.03,0.72
1697352180.01,-0.16,-0.02,1.63,1.3,0.3,-0.4,0.69,0.01,-0.03,0.72
1697352180.02,-0.16,-0.02,1.63,1.3,0.3,-0.4,0.69,0.01,-0.03,0.72
1697352180.03,-0.16,-0.02,1.63,1.3,0.3,-0.4,0.69,0.01,-0.03,0.72
1697352180.04,-0.16,-0.02,1.63,1.3,0.3,-0.4,0.69,0.01,-0.03,0.72
1697352180.05,-0.16,-0.02,1.63,1.3,0.3,-0.4,0.69,0.01,-0.03,0.72
1697352180.06,-0.16,-0.02,1.63,1.3,0.3,-0.4,0.69,0.01,-0.03,0.72
1697352180.07,-0.16,-0.02,1.63,1.3,0.3,-0.4,0.69,0.01,-0.03,0.72
1697352180.08,-0.16,-0.02,1.63,1.3,0.3,-0.4,0.69,0.01,-0.03,0.72
1697352180.09,-0.16,-0.02,1.63,1.3,0.3,-0.4,0.69,0.01,-0.03,0.72
1697352180.1,-0.16,-0.02,1.63,1.3,0.3,-0.4,0.69,0.01,-0.03,0.72
1697352180.11,-0.17,0.08,1.28,0.2,3.4,0.5,0.69,0.01,-0.03,0.72
1697352180.12,-0.04,0.02,1.24,2.8,2.3,0.4,0.69,0.01,-0.03,0.72
1697352180.13,-0.01,-0.1,0.72,3.4,1.5,0.3,0.69,0.01,-0.03,0.72
1697352180.14,-0.1,-0.19,1.34,2.3,0.4,0,0.69,0.01,-0.03,0.72
1697352180.15,-0,0.04,1.13,0.7,-0.8,-0.7,0.69,0.01,-0.03,0.72
1697352180.16,0.1,0.05,0.71,-0.9,-1.6,-0.9,0.69,0.01,-0.03,0.72
1697352180.17,-0.14,0.11,1.3,-1,-2.4,-0.7,0.69,0.01,-0.03,0.72
1697352180.18,0.2,0.06,0.68,0,-2.7,-0.6,0.69,0.01,-0.03,0.72
1697352180.19,0.05,0.01,0.64,0.7,-2.1,-0.5,0.69,0.01,-0.03,0.72
1697352180.2,-0.18,0.02,1.28,0.7,-1,-0.2,0.69,0.01,-0.03,0.72
1697352180.21,0.09,-0.07,0.7,0.3,0.4,0,0.69,0.01,-0.03,0.72
1697352180.22,-0.03,0.03,0.84,-0.3,1.9,0,0.69,0.01,-0.03,0.72
1697352180.23,-0.19,0.02,1.51,-0.5,2.4,0.4,0.69,0.01,-0.03,0.72
1697352180.24,-0.15,0.08,1.46,-1.2,2.9,0.9,0.69,0.01,-0.03,0.72
1697352180.25,0.16,0.11,0.63,0,3.2,1.3,0.69,0.01,-0.03,0.72
1697352180.26,-0.1,0.01,1.09,1.9,3.4,1.8,0.69,0.01,-0.03,0.72
1697352180.27,0.05,-0,1.13,2.3,2.7,2,0.69,0.01,-0.03,0.72
1697352180.28,0.05,0.03,0.81,2.6,1.6,1.8,0.69,0.01,-0.03,0.72
1697352180.29,-0.08,0.04,1.29,2.7,-0.1,2,0.69,0.01,-0.03,0.72
1697352180.3,0.22,-0.09,0.67,2.7,-0.1,2,0.69,0.01,-0.03,0.72
1697352180.31,0.09,0.05,0.98,1,-2.8,1.9,0.69,0.01,-0.03,0.72
1697352180.32,-0.06,0.1,1.01,1,-2.8,1.9,0.69,0.01,-0.03,0.72
1697352180.33,-0.23,0.12,1.43,0,-2.8,2.5,0.69,0.01,-0.03,0.72
1697352180.34,0.07,0.26,0.62,0,-1.9,3,0.69,0.01,-0.03,0.72
1697352180.35,-0.14,0.15,1.15,0,-1.9,3,0.69,0.01,-0.03,0.72
1697352180.36,-0.11,0.13,1,1.8,0.4,4.2,0.69,0.01,-0.03,0.72
1697352180.37,-0.11,0.13,1,1.8,0.4,4.2,0.69,0.01,-0.03,0.72
1697352180.38,0.21,0.16,0.32,1.2,1.9,4.9,0.69,0.01,-0.03,0.73
1697352180.39,-0.27,0.14,1.65,0,2.4,5.5,0.69,0.01,-0.03,0.73
1697352180.4,0.1,0.32,0.91,0.1,2.4,6.4,0.69,0.01,-0.03,0.73
1697352180.41,0.03,0.29,0.77,1.3,2.5,7.4,0.69,0.01,-0.03,0.73
1697352180.42,0.05,0.15,0.67,3.5,2.1,8.1,0.69,0.01,-0.03,0.73
1697352180.43,-0.06,0.09,1.29,-0.2,0.1,9,0.69,0.01,-0.03,0.73
1697352180.44,0.21,0.24,0.55,-1.4,-0.5,9.4,0.68,0.01,-0.03,0.73
1697352180.45,-0.05,0.33,1.05,-0.3,-1.5,9.9,0.68,0.01,-0.03,0.73
1697352180.46,0,0.35,1.11,1.2,-1.7,10.4,0.68,0.01,-0.03,0.73
1697352180.47,0.04,0.27,0.76,2,-1.6,10.8,0.68,0.01,-0.03,0.73
1697352180.48,-0.13,0.2,1.31,1.8,-1.6,10.6,0.68,0.01,-0.03,0.73
1697352180.49,0.05,0.14,0.88,0.4,-1.4,10.7,0.68,0.01,-0.03,0.73
1697352180.5,0.05,0.14,0.88,0.4,-1.4,10.7,0.68,0.01,-0.03,0.73
1697352180.51,0.05,0.14,0.88,0.4,-1.4,10.7,0.68,0.01,-0.03,0.73
1697352180.52,0.05,0.14,0.88,0.4,-1.4,10.7,0.68,0.01,-0.03,0.73
1697352180.53,0.05,0.14,0.88,0.4,-1.4,10.7,0.68,0.01,-0.03,0.73
1697352180.54,0.05,0.14,0.88,0.4,-1.4,10.7,0.68,0.01,-0.03,0.73
1697352180.55,0.05,0.14,0.88,0.4,-1.4,10.7,0.68,0.01,-0.03,0.73
1697352180.56,0.05,0.14,0.88,0.4,-1.4,10.7,0.68,0.01,-0.03,0.73
1697352180.57,0.05,0.14,0.88,0.4,-1.4,10.7,0.68,0.01,-0.03,0.73
1697352180.58,0.05,0.14,0.88,0.4,-1.4,10.7,0.68,0.01,-0.03,0.73
1697352180.59,0.05,0.14,0.88,0.4,-1.4,10.7,0.68,0.01,-0.03,0.73
1697352180.6,0.05,0.14,0.88,0.4,-1.4,10.7,0.68,0.01,-0.03,0.73
1697352180.61,0.05,0.14,0.88,0.4,-1.4,10.7,0.68,0.01,-0.03,0.73
1697352180.62,0.05,0.14,0.88,0.4,-1.4,10.7,0.68,0.01,-0.03,0.73
1697352180.63,-0.14,0.71,1.17,3.5,-2.8,31.7,0.66,0.01,-0.03,0.75
1697352180.64,-0.14,0.71,1.17,3.5,-2.8,31.7,0.66,0.01,-0.03,0.75
1697352180.65,-0.06,0.73,1.08,1.7,-1.7,35,0.66,0.01,-0.03,0.75
1697352180.66,-0.06,0.73,1.08,1.7,-1.7,35,0.66,0.01,-0.03,0.75
1697352180.67,-0.16,0.7,1.05,2.8,-1.2,36.1,0.66,0.01,-0.03,0.75
1697352180.68,-0.16,0.7,1.05,3.7,-0.5,36.5,0.65,0.01,-0.03,0.76
1697352180.69,0.08,0.63,0.8,1.9,0.4,36.8,0.65,0.01,-0.03,0.76
1697352180.7,0.08,0.63,0.8,1.9,0.4,36.8,0.65,0.01,-0.03,0.76
1697352180.71,-0.15,0.61,1.29,1.5,0.4,36.3,0.65,0.01,-0.03,0.76
1697352180.72,-0.18,0.59,1.28,0,0.5,35.7,0.64,0.01,-0.02,0.76
1697352180.73,0.02,0.68,1.02,-1.2,1,35.2,0.64,0.01,-0.02,0.77
1697352180.74,-0.01,0.73,0.71,-0.8,1,34.7,0.64,0.01,-0.03,0.77
1697352180.75,-0.14,0.74,1.39,-0.4,0.7,34.4,0.64,0.01,-0.03,0.77
1697352180.76,0.05,0.62,0.96,-0.6,0.6,34.4,0.63,0.01,-0.03,0.77
1697352180.77,-0.04,0.62,0.98,-1.6,0.3,34.2,0.63,0.01,-0.03,0.77
1697352180.78,-0.14,0.63,1.32,-2.8,0.3,33.9,0.63,0.01,-0.03,0.78
1697352180.79,0.1,0.6,0.67,-3.6,-0.3,33.8,0.63,0.01,-0.03,0.78
1697352180.8,-0.15,0.72,1.36,-2.9,-1.5,33.9,0.63,0.01,-0.03,0.78
1697352180.81,-0.04,0.7,0.9,-1.2,-1.3,34.1,0.62,0.01,-0.03,0.78
1697352180.82,0.16,0.51,0.47,-0.2,-0.7,33.8,0.62,0.01,-0.03,0.78
1697352180.83,0.06,0.51,0.67,-0.5,0.3,33.5,0.62,0.01,-0.03,0.79
1697352180.84,-0.18,0.48,1.51,-0.1,0.5,33,0.62,0.01,-0.03,0.79
1697352180.85,0.13,0.46,0.82,-0.4,0.9,33,0.61,0.01,-0.03,0.79
1697352180.86,-0.06,0.46,1.03,-1.2,0.7,32.8,0.61,0.01,-0.03,0.79
1697352180.87,-0.05,0.45,1.26,-1.7,0,32.4,0.61,0.01,-0.03,0.79
1697352180.88,0.22,0.46,0.84,-1.7,-0.3,32.2,0.61,0.01,-0.03,0.79
1697352180.89,-0.03,0.55,0.89,-0.6,-0.9,31.8,0.6,0.01,-0.03,0.8
1697352180.9,0.03,0.55,1.05,1,-1,31.5,0.6,0.01,-0.03,0.8
1697352180.91,0.06,0.49,0.61,1.9,-1.2,30.9,0.6,0.01,-0.03,0.8
1697352180.92,-0.02,0.43,0.75,1.9,-1.2,30.9,0.6,0.01,-0.03,0.8
1697352180.93,-0.19,0.46,1.61,-1.8,-1.7,29.7,0.6,0.01,-0.03,0.8
1697352180.94,0.27,0.46,0.48,-4,-1.6,29.4,0.59,0.01,-0.03,0.8
1697352180.95,-0.15,0.66,1.4,-2.7,-1.7,29.2,0.59,0.01,-0.03,0.81
1697352180.96,-0.1,0.71,1.15,0.9,-2,29.2,0.59,0.01,-0.03,0.81
1697352180.97,0.1,0.58,0.78,2.3,-2.1,29.2,0.59,0.01,-0.03,0.81
1697352180.98,-0.1,0.41,0.83,1.9,-2,29,0.59,0.01,-0.03,0.81
1697352180.99,-0.02,0.36,1.16,-1.1,-1,28.9,0.58,0.01,-0.03,0.81
1697352181,-0.03,0.33,1.26,-1.1,-1,28.9,0.58,0.01,-0.03,0.81
1697352181.01,0.1,0.39,0.41,-1.9,-0.5,28.5,0.58,0.01,-0.03,0.81
1697352181.02,0.1,0.39,0.41,-1.9,-0.5,28.5,0.58,0.01,-0.03,0.81
1697352181.03,0.1,0.39,0.41,-1.9,-0.5,28.5,0.58,0.01,-0.03,0.81
1697352181.04,0.1,0.39,0.41,-1.9,-0.5,28.5,0.58,0.01,-0.03,0.81
1697352181.05,0.1,0.39,0.41,-1.9,-0.5,28.5,0.58,0.01,-0.03,0.81
1697352181.06,0.1,0.39,0.41,-1.9,-0.5,28.5,0.58,0.01,-0.03,0.81
1697352181.07,0.1,0.39,0.41,-1.9,-0.5,28.5,0.58,0.01,-0.03,0.81
1697352181.08,0.1,0.39,0.41,-1.9,-0.5,28.5,0.58,0.01,-0.03,0.81
1697352181.09,0.1,0.39,0.41,-1.9,-0.5,28.5,0.58,0.01,-0.03,0.81
1697352181.1,0.1,0.39,0.41,-1.9,-0.5,28.5,0.58,0.01,-0.03,0.81
1697352181.11,0.1,0.39,0.41,-1.9,-0.5,28.5,0.58,0.01,-0.03,0.81
1697352181.12,0.1,0.39,0.41,-1.9,-0.5,28.5,0.58,0.01,-0.03,0.81
1697352181.13,0.1,0.39,0.41,-1.9,-0.5,28.5,0.58,0.01,-0.03,0.81
1697352181.14,0.1,0.39,0.41,-1.9,-0.5,28.5,0.58,0.01,-0.03,0.81
1697352181.15,0.1,0.39,0.41,-1.9,-0.5,28.5,0.58,0.01,-0.03,0.81
1697352181.16,0.1,0.39,0.41,-1.9,-0.5,28.5,0.58,0.01,-0.03,0.81
1697352181.17,0.1,0.39,0.41,-1.9,-0.5,28.5,0.58,0.01,-0.03,0.81
1697352181.18,0.1,0.39,0.41,-1.9,-0.5,28.5,0.58,0.01,-0.03,0.81
1697352181.19,0.1,0.39,0.41,-1.9,-0.5,28.5,0.58,0.01,-0.03,0.81
1697352181.2,-0.12,-0.27,1.2,-1.2,-1.5,-2.4,0.56,0,-0.03,0.83
1697352181.21,-0,-0.15,0.99,-0.5,-1.6,-3.2,0.56,0,-0.03,0.83
1697352181.22,-0.2,-0.04,1.38,0.8,-1.4,-2.9,0.56,0,-0.03,0.83
1697352181.23,0.15,-0.07,0.61,0,-0.1,-0.3,0.56,0,-0.03,0.83
1697352181.24,-0.07,0.01,1.12,0,0,0.6,0.56,0,-0.03,0.83
1697352181.25,-0.01,0.06,1.14,0.5,-0.1,1.7,0.56,0,-0.03,0.83
1697352181.26,0.1,0.06,0.56,1.7,0.1,2.4,0.56,0,-0.03,0.83
1697352181.27,-0.19,-0.18,1.42,0.5,0,2.6,0.56,0,-0.03,0.83
1697352181.28,0.21,-0.05,0.92,-1.5,0.5,2.3,0.56,0,-0.03,0.83
1697352181.29,-0.08,0.05,1.07,0,0,2,0.56,0,-0.03,0.83
1697352181.3,-0.06,0.1,0.86,2.6,-0.1,1.8,0.56,0,-0.03,0.83
1697352181.31,-0.12,0.04,1.31,3.7,-0.4,1.4,0.56,0,-0.03,0.83
1697352181.32,0.24,0,0.72,3.7,-0.4,1.4,0.56,0,-0.03,0.83
1697352181.33,-0.08,-0.02,0.91,1.3,-0.5,0.2,0.56,0,-0.03,0.83
1697352181.34,-0.06,0.1,1.2,1.2,-0.1,0,0.56,0,-0.03,0.83
1697352181.35,0.12,0.07,0.46,1,0.7,0.1,0.56,0,-0.03,0.83
1697352181.36,-0.26,0.04,1.36,0.8,0.6,0,0.56,0,-0.03,0.83
1697352181.37,-0.12,0.01,1.14,0.8,0.6,0,0.56,0,-0.03,0.83
1697352181.38,-0.05,-0.07,1.12,-2.3,0.2,-0.7,0.56,0,-0.03,0.83
1697352181.39,0.15,0.04,0.61,-2.3,0.2,-0.7,0.56,0,-0.03,0.83
1697352181.4,-0.17,0.13,1.58,-2.8,0.3,-0.7,0.56,0,-0.03,0.83
1697352181.41,0.18,-0.03,0.66,-0.8,-0.3,-0.9,0.56,0,-0.03,0.83
1697352181.42,0.18,-0.03,0.66,1,-0.8,-1.5,0.56,0,-0.03,0.83
1697352181.43,-0.13,-0.12,1,0.3,-1,-1.8,0.56,0,-0.03,0.83
1697352181.44,0,-0.26,0.76,-2.2,-0.1,-2.5,0.56,0,-0.03,0.83
1697352181.45,-0.18,-0.17,1.52,-3,0.6,-3.3,0.56,0,-0.03,0.83
1697352181.46,0.06,-0.16,0.76,-2.1,1.6,-4.1,0.56,0,-0.03,0.83
1697352181.47,-0.12,-0.15,1.14,-0.2,1.8,-5,0.56,0,-0.03,0.83
1697352181.48,-0.13,-0.26,1.29,1.3,2.1,-5.7,0.56,0,-0.03,0.83
1697352181.49,0.07,-0.36,0.63,0.6,2.1,-7.2,0.56,0,-0.03,0.83
1697352181.5,-0.23,-0.49,1.59,-1.3,1.3,-8.8,0.56,0,-0.03,0.83
1697352181.51,0.29,-0.38,0.39,-2.3,0.9,-10.4,0.56,0,-0.03,0.83
1697352181.52,-0.06,-0.44,1,-2.7,0.1,-12,0.56,0,-0.03,0.83
1697352181.53,0.19,-0.37,0.57,-2.3,-0.6,-13.9,0.57,0,-0.03,0.82
1697352181.54,-0.12,-0.39,1.18,-2.1,-1.1,-14.9,0.57,0,-0.03,0.82
1697352181.55,0.14,-0.36,0.82,-1.4,-1.2,-16.1,0.57,0,-0.03,0.82
1697352181.56,-0.14,-0.39,0.85,-0.1,-1.3,-17.4,0.57,0,-0.03,0.82
1697352181.57,-0.04,-0.57,1.36,-1,-1.5,-19.1,0.57,0,-0.03,0.82
1697352181.58,-0.01,-0.4,0.8,-1,-1.5,-19.1,0.57,0,-0.03,0.82
1697352181.59,-0.01,-0.4,0.8,-1,-1.5,-19.1,0.57,0,-0.03,0.82
1697352181.6,-0.01,-0.4,0.8,-1,-1.5,-19.1,0.57,0,-0.03,0.82
1697352181.61,-0.01,-0.4,0.8,-1,-1.5,-19.1,0.57,0,-0.03,0.82
1697352181.62,-0.01,-0.4,0.8,-1,-1.5,-19.1,0.57,0,-0.03,0.82
1697352181.63,-0.01,-0.4,0.8,-1,-1.5,-19.1,0.57,0,-0.03,0.82
1697352181.64,-0.01,-0.4,0.8,-1,-1.5,-19.1,0.57,0,-0.03,0.82
1697352181.65,-0.01,-0.4,0.8,-1,-1.5,-19.1,0.57,0,-0.03,0.82
1697352181.66,-0.01,-0.4,0.8,-1,-1.5,-19.1,0.57,0,-0.03,0.82
1697352181.67,-0.01,-0.4,0.8,-1,-1.5,-19.1,0.57,0,-0.03,0.82
1697352181.68,-0.01,-0.4,0.8,-1,-1.5,-19.1,0.57,0,-0.03,0.82
1697352181.69,-0.01,-0.4,0.8,-1,-1.5,-19.1,0.57,0,-0.03,0.82
1697352181.7,-0.01,-0.4,0.8,-1,-1.5,-19.1,0.57,0,-0.03,0.82
1697352181.71,0.04,-0.28,0.67,0.1,2.7,-19.1,0.59,0,-0.03,0.81
1697352181.72,0.04,-0.28,0.67,-2.6,2.4,-19.8,0.59,0,-0.03,0.81
1697352181.73,-0.08,-0.3,1,-3.6,2.5,-20.1,0.59,0,-0.03,0.81
1697352181.74,0.12,-0.24,0.91,-3.6,1.8,-20.2,0.59,0,-0.03,0.81
1697352181.75,0.12,-0.24,0.91,-2.2,0.7,-20.3,0.59,0,-0.03,0.8
1697352181.76,-0.03,-0.37,1.06,-0.1,-0.3,-20.4,0.59,0,-0.03,0.8
1697352181.77,0.01,-0.42,1.07,0.1,-1,-20.1,0.6,0,-0.03,0.8
1697352181.78,0.17,-0.56,0.49,-2.3,-0.4,-21.1,0.6,0,-0.03,0.8
1697352181.79,-0.26,-0.55,1.5,-2.9,0.3,-22.1,0.6,0,-0.03,0.8
1697352181.8,0.01,-0.5,0.68,-2,1.2,-23.5,0.6,0,-0.03,0.8
1697352181.81,-0.18,-0.58,0.9,-2,1.7,-25,0.6,0,-0.03,0.8
1697352181.82,-0.2,-0.69,1.43,-2,1.7,-25,0.6,0,-0.03,0.8
1697352181.83,-0.15,-0.89,1.18,-1.3,2.1,-28,0.61,0,-0.03,0.79
1697352181.84,0.06,-0.84,0.58,-3.3,1.9,-32.6,0.61,0,-0.03,0.79
1697352181.85,-0.23,-0.69,1.18,-3,0.9,-33.9,0.61,0,-0.03,0.79
1697352181.86,0.01,-0.92,1.07,-3,0.9,-33.9,0.61,0,-0.03,0.79
1697352181.87,0.1,-0.87,0.69,-4.2,-0.8,-37.6,0.62,0,-0.03,0.79
1697352181.88,-0.19,-0.77,1.41,-4.8,-1.6,-38.5,0.62,0,-0.03,0.78
1697352181.89,0.16,-0.79,0.88,-4.6,-1.8,-39.1,0.62,0,-0.04,0.78
1697352181.9,-0.13,-0.66,1.11,-3.1,-1.2,-39.4,0.62,0,-0.04,0.78
1697352181.91,0.04,-0.76,0.91,-2.5,-0.6,-39.5,0.63,0,-0.04,0.78
1697352181.92,-0.12,-0.79,1.43,-2,0.3,-40.2,0.63,0,-0.04,0.78
1697352181.93,-0.18,-0.64,0.58,-1.1,1.1,-41,0.63,0,-0.04,0.77
1697352181.94,-0.3,-0.89,1.34,-0.2,1.9,-41.7,0.64,0,-0.04,0.77
1697352181.95,0.02,-0.93,0.57,0.6,2.7,-43,0.64,0,-0.04,0.77
1697352181.96,-0.23,-1.01,1.08,0.6,2.5,-44,0.64,0,-0.04,0.77
1697352181.97,-0.13,-1.05,1.16,0.6,2.5,-44,0.64,0,-0.04,0.77
1697352181.98,-0.04,-1.1,0.64,-1.6,2.3,-46.5,0.65,0,-0.04,0.76
1697352181.99,-0.28,-0.97,1.16,-2.6,2.2,-47.4,0.65,0,-0.04,0.76
1697352182,-0.11,-0.77,1.28,-1.8,1.8,-47.4,0.66,0,-0.04,0.75
1697352182.01,0.06,-0.88,0.84,-1.8,1.8,-47.4,0.66,0,-0.04,0.75
1697352182.02,0.21,-0.82,0.85,-1.8,1.8,-47.4,0.66,0,-0.04,0.75
1697352182.03,-0.13,-0.91,1.28,1.7,-0.3,-47.5,0.66,0,-0.04,0.75
1697352182.04,0.09,-0.97,0.79,1.2,-1.5,-47.6,0.66,0,-0.04,0.75
1697352182.05,-0.15,-0.85,0.93,-0.5,-2.2,-48.2,0.67,0,-0.04,0.74
1697352182.06,-0.15,-0.85,0.93,-2.9,-2.8,-48.8,0.67,0,-0.04,0.74
1697352182.07,-0.07,-0.88,1.35,-2.5,-2.7,-49.2,0.67,0,-0.04,0.74
1697352182.08,-0.19,-0.62,0.7,0,-1.9,-49.1,0.68,0,-0.04,0.73
1697352182.09,-0.14,-0.66,1.29,2.5,-1.2,-48.4,0.68,0,-0.04,0.73
1697352182.1,-0.14,-0.66,1.29,2.5,-1.2,-48.4,0.68,0,-0.04,0.73
1697352182.11,-0.14,-0.66,1.29,2.5,-1.2,-48.4,0.68,0,-0.04,0.73
1697352182.12,-0.14,-0.66,1.29,2.5,-1.2,-48.4,0.68,0,-0.04,0.73
1697352182.13,-0.14,-0.66,1.29,2.5,-1.2,-48.4,0.68,0,-0.04,0.73
1697352182.14,-0.14,-0.66,1.29,2.5,-1.2,-48.4,0.68,0,-0.04,0.73
1697352182.15,-0.14,-0.66,1.29,2.5,-1.2,-48.4,0.68,0,-0.04,0.73
1697352182.16,-0.14,-0.66,1.29,2.5,-1.2,-48.4,0.68,0,-0.04,0.73
1697352182.17,-0.14,-0.66,1.29,2.5,-1.2,-48.4,0.68,0,-0.04,0.73
1697352182.18,-0.14,-0.66,1.29,2.5,-1.2,-48.4,0.68,0,-0.04,0.73
1697352182.19,-0.14,-0.66,1.29,2.5,-1.2,-48.4,0.68,0,-0.04,0.73
1697352182.2,-0.14,-0.66,1.29,2.5,-1.2,-48.4,0.68,0,-0.04,0.73
1697352182.21,-0.14,-0.66,1.29,2.5,-1.2,-48.4,0.68,0,-0.04,0.73
1697352182.22,-0.28,-0.62,1.32,-0.1,0.1,-45.9,0.72,0,-0.03,0.69
1697352182.23,0.03,-0.82,0.56,0,1.1,-46.6,0.72,0,-0.03,0.69
1697352182.24,-0.29,-0.92,1.13,0.6,2.2,-46.9,0.73,0,-0.03,0.69
1697352182.25,0,-0.82,1.18,1.6,3.2,-47.9,0.73,0,-0.03,0.68
1697352182.26,0.05,-0.74,0.83,1.6,3.2,-47.9,0.73,0,-0.03,0.68
1697352182.27,0.05,-0.74,0.83,-0.3,3.3,-48.5,0.73,0,-0.03,0.68
1697352182.28,-0.18,-0.62,1.24,-1.7,2.8,-48.6,0.74,0,-0.03,0.68
1697352182.29,0.17,-0.59,0.61,0.2,2.9,-47.6,0.74,0,-0.03,0.67
1697352182.3,0.2,-0.49,0.65,2.4,2.3,-46,0.74,0,-0.03,0.67
1697352182.31,0.2,-0.49,0.65,3.5,2.1,-43.8,0.74,0,-0.03,0.67
1697352182.32,0.24,-0.54,0.72,3.5,2.1,-43.8,0.75,0,-0.03,0.66
1697352182.33,-0.06,-0.44,1.2,3,1.1,-37,0.75,0,-0.03,0.66
1697352182.34,0.22,-0.54,0.61,3,1.1,-37,0.75,0.01,-0.03,0.66
1697352182.35,-0.17,-0.45,0.81,2.3,0.4,-33.9,0.75,0.01,-0.03,0.66
1697352182.36,0.02,-0.31,0.75,0.9,0.1,-31.4,0.75,0.01,-0.03,0.66
1697352182.37,-0.14,-0.34,0.98,0.7,0,-29.8,0.76,0.01,-0.03,0.65
1697352182.38,0.02,-0.45,1.12,3.2,-0.2,-28.9,0.76,0.01,-0.03,0.65
1697352182.39,0,-0.4,0.83,5.1,-0.2,-28.2,0.76,0.01,-0.03,0.65
1697352182.4,-0.21,-0.38,0.98,5.1,0,-28.4,0.76,0.01,-0.03,0.65
1697352182.41,-0.08,-0.32,1.14,3.4,0.7,-28,0.76,0.01,-0.03,0.65
1697352182.42,-0.11,-0.2,0.73,2,1.9,-27.4,0.76,0.01,-0.03,0.64
1697352182.43,-0.12,-0.15,1.34,0.4,3,-26.5,0.77,0.01,-0.03,0.64
1697352182.44,-0.09,-0.14,1.03,0,3.8,-25,0.77,0.01,-0.03,0.64
1697352182.45,-0.19,-0.21,1.39,0.9,4,-23.5,0.77,0.01,-0.03,0.64
1697352182.46,0.18,-0.1,0.35,0.8,4,-22.1,0.77,0.01,-0.03,0.64
1697352182.47,-0.08,-0.14,1.4,0,4,-20.2,0.77,0.01,-0.03,0.64
1697352182.48,0.03,-0.04,1.06,-0.5,3.7,-18.6,0.77,0.01,-0.03,0.63
1697352182.49,0.03,-0.04,1.06,-0.5,3.7,-18.6,0.77,0.01,-0.03,0.63
1697352182.5,0.2,-0.07,0.88,2.7,0.6,-15.1,0.77,0.01,-0.03,0.63
1697352182.51,-0.01,-0.04,0.94,5,-2,-12.6,0.77,0.01,-0.03,0.63
1697352182.52,-0.01,-0.02,1.23,4.2,-3.4,-10.9,0.77,0.01,-0.03,0.63
1697352182.53,0.11,0.02,0.58,1.9,-4.3,-8.7,0.78,0.01,-0.03,0.63
1697352182.54,-0.17,0.15,1.26,0.7,-4.5,-6.5,0.78,0.01,-0.03,0.63
1697352182.55,-0.03,0.19,1.05,0.6,-4.7,-4.3,0.78,0.01,-0.03,0.63
1697352182.56,0.03,0.21,1.05,1.5,-3.9,-2.3,0.78,0.01,-0.03,0.63
1697352182.57,0.03,0.21,1.05,3,-2.6,-1.1,0.78,0.01,-0.03,0.63
1697352182.58,-0.15,0.04,1.42,4.5,-1.5,-0.2,0.78,0.01,-0.03,0.63
1697352182.59,0.14,0.06,0.36,3.8,-0.9,-0.1,0.78,0.01,-0.03,0.63
1697352182.6,-0.12,0.23,1.14,1.4,-0.4,0.4,0.78,0.01,-0.03,0.63
1697352182.61,-0.05,0.23,0.75,1.4,-0.4,0.4,0.78,0.01,-0.03,0.63
1697352182.62,-0.05,0.23,0.75,0.9,0.5,1.3,0.78,0.01,-0.03,0.63
1697352182.63,-0.05,0.23,0.75,0.9,0.5,1.3,0.78,0.01,-0.03,0.63
1697352182.64,-0.05,0.23,0.75,0.9,0.5,1.3,0.78,0.01,-0.03,0.63
1697352182.65,-0.05,0.23,0.75,0.9,0.5,1.3,0.78,0.01,-0.03,0.63
1697352182.66,-0.05,0.23,0.75,0.9,0.5,1.3,0.78,0.01,-0.03,0.63
1697352182.67,-0.05,0.23,0.75,0.9,0.5,1.3,0.78,0.01,-0.03,0.63
1697352182.68,-0.05,0.23,0.75,0.9,0.5,1.3,0.78,0.01,-0.03,0.63
1697352182.69,-0.05,0.23,0.75,0.9,0.5,1.3,0.78,0.01,-0.03,0.63
1697352182.7,-0.05,0.23,0.75,0.9,0.5,1.3,0.78,0.01,-0.03,0.63
1697352182.71,-0.05,0.23,0.75,0.9,0.5,1.3,0.78,0.01,-0.03,0.63
1697352182.72,-0.05,0.23,0.75,0.9,0.5,1.3,0.78,0.01,-0.03,0.63
1697352182.73,-0.05,0.23,0.75,0.9,0.5,1.3,0.78,0.01,-0.03,0.63
1697352182.74,-0.05,0.23,0.75,0.9,0.5,1.3,0.78,0.01,-0.03,0.63
1697352182.75,-0.05,0.23,0.75,0.9,0.5,1.3,0.78,0.01,-0.03,0.63
1697352182.76,-0.07,1.05,0.98,6.5,-2,43.7,0.76,0.01,-0.02,0.65
1697352182.77,-0.21,1,1.07,8.1,-2.2,46.2,0.76,0.01,-0.02,0.65
1697352182.78,0.08,0.96,0.66,9.3,-2.2,47.8,0.75,0.01,-0.02,0.66
1697352182.79,0,0.96,0.89,8.2,-1.6,49.1,0.75,0.02,-0.02,0.66
1697352182.8,-0.17,0.93,1.07,5.7,-0.9,49.7,0.75,0.02,-0.02,0.66
1697352182.81,-0.07,0.83,1.11,2.2,-0.9,50.5,0.74,0.02,-0.02,0.67
1697352182.82,-0.15,1.02,0.93,-0.8,-1.1,51.1,0.74,0.02,-0.02,0.67
1697352182.83,-0.24,1.02,1.4,-3.1,-0.7,51.8,0.74,0.02,-0.02,0.67
1697352182.84,-0.04,1.13,0.74,-3.5,-1,52.6,0.74,0.02,-0.02,0.68
1697352182.85,-0.15,1.2,0.68,-1.6,-0.7,52.9,0.73,0.02,-0.02,0.68
1697352182.86,-0.17,1.05,0.91,0.6,-0.6,53.8,0.73,0.02,-0.02,0.68
1697352182.87,-0.05,0.94,1.05,1.5,0,53.6,0.73,0.02,-0.02,0.68
1697352182.88,-0.12,0.86,0.71,0.8,0,53.3,0.72,0.01,-0.02,0.69
1697352182.89,-0.02,0.97,1.12,-2.2,0.9,53,0.72,0.01,-0.02,0.69
1697352182.9,-0.06,0.98,0.58,-3.3,1.1,52.4,0.72,0.01,-0.02,0.69
1697352182.91,-0.06,0.98,0.58,-3.3,1.1,52.4,0.72,0.01,-0.02,0.7
1697352182.92,-0.01,0.97,0.87,-0.9,1.5,52.3,0.71,0.01,-0.02,0.7
1697352182.93,-0.17,0.89,1.07,1.9,1.9,51.7,0.71,0.01,-0.02,0.7
1697352182.94,-0.16,0.61,1.47,3.4,2.4,51.2,0.71,0.01,-0.02,0.71
1697352182.95,-0.06,0.56,1.32,1.7,2.8,50,0.7,0.01,-0.02,0.71
1697352182.96,-0.03,0.59,0.67,-1.4,3,48.8,0.7,0.01,-0.02,0.71
1697352182.97,-0.23,0.66,1.51,-4,3.4,47.5,0.7,0.01,-0.02,0.72
1697352182.98,0.05,0.89,0.73,-4.9,3.2,46.7,0.69,0.01,-0.02,0.72
1697352182.99,-0.14,0.95,1.26,-3.9,3.2,46.3,0.69,0.01,-0.02,0.72
1697352183,0.06,0.92,0.91,-0.5,2.9,46.2,0.69,0.01,-0.02,0.73
1697352183.01,0.06,0.92,0.91,-0.5,2.9,46.2,0.69,0.01,-0.02,0.73
1697352183.02,-0.04,0.66,1.22,3.2,1.5,46.4,0.68,0.01,-0.02,0.73
1697352183.03,0.03,0.69,0.76,1.3,0.1,46.2,0.68,0.01,-0.02,0.73
1697352183.04,-0.05,0.83,1.18,-1.5,-0.9,46.2,0.68,0.01,-0.02,0.74
1697352183.05,0.08,0.83,0.54,-2.3,-2.1,46.6,0.67,0.01,-0.02,0.74
1697352183.06,-0.18,0.87,1.29,-0.6,-2.2,46.8,0.67,0.01,-0.02,0.74
1697352183.07,0.05,0.78,0.77,-0.6,-2.2,46.8,0.67,0.01,-0.02,0.75
1697352183.08,-0.23,0.77,0.83,2.3,-1.1,46.9,0.66,0.01,-0.02,0.75
1697352183.09,-0.23,0.77,0.83,2.3,-1.1,46.9,0.66,0.01,-0.02,0.75
1697352183.1,-0.08,0.84,0.59,1.3,2,48.1,0.66,0.01,-0.02,0.75
1697352183.11,-0.08,0.84,0.59,1.3,2,48.1,0.65,0.01,-0.02,0.76
1697352183.12,-0.18,0.92,1.12,1.3,2.9,49.2,0.65,0.01,-0.02,0.76
1697352183.13,-0.08,1.03,0.95,0.6,3.1,50.7,0.65,0.01,-0.02,0.76
1697352183.14,-0.08,1.03,0.95,0,3.8,51.9,0.64,0.01,-0.02,0.77
1697352183.15,-0.08,1.03,0.95,0,3.8,51.9,0.64,0.01,-0.02,0.77
1697352183.16,-0.08,1.03,0.95,0,3.8,51.9,0.64,0.01,-0.02,0.77
1697352183.17,-0.08,1.03,0.95,0,3.8,51.9,0.64,0.01,-0.02,0.77
1697352183.18,-0.08,1.03,0.95,0,3.8,51.9,0.64,0.01,-0.02,0.77
1697352183.19,-0.08,1.03,0.95,0,3.8,51.9,0.64,0.01,-0.02,0.77
1697352183.2,-0.08,1.03,0.95,0,3.8,51.9,0.64,0.01,-0.02,0.77
1697352183.21,-0.08,1.03,0.95,0,3.8,51.9,0.64,0.01,-0.02,0.77
1697352183.22,-0.08,1.03,0.95,0,3.8,51.9,0.64,0.01,-0.02,0.77
1697352183.23,-0.08,1.03,0.95,0,3.8,51.9,0.64,0.01,-0.02,0.77
1697352183.24,-0.08,1.03,0.95,0,3.8,51.9,0.64,0.01,-0.02,0.77
1697352183.25,-0.08,1.03,0.95,0,3.8,51.9,0.64,0.01,-0.02,0.77
1697352183.26,-0.08,1.03,0.95,0,3.8,51.9,0.64,0.01,-0.02,0.77
1697352183.27,-0.01,0.95,0.64,-8.1,0.7,54.4,0.6,0.01,-0.02,0.8
1697352183.28,0,1.03,0.66,-7.4,1.3,53.5,0.59,0.01,-0.02,0.81
1697352183.29,-0.17,1.11,0.97,-3,2.4,52.6,0.59,0.01,-0.02,0.81
1697352183.3,-0.08,0.71,1.23,1.6,3,51.9,0.58,0.01,-0.02,0.81
1697352183.31,0.03,0.46,0.71,2.8,2.8,49.4,0.58,0.01,-0.02,0.81
1697352183.32,0.17,0.18,0.34,-1.5,2.5,46.3,0.58,0.01,-0.02,0.82
1697352183.33,-0.09,0.13,1.62,-7.2,1.9,42.5,0.57,0.01,-0.02,0.82
1697352183.34,-0.06,0.34,0.73,-11.5,1.1,38.3,0.57,0.01,-0.02,0.82
1697352183.35,-0.03,0.52,1.09,-12.1,0.5,34.6,0.57,0,-0.02,0.82
1697352183.36,-0.02,0.58,1.06,-8.6,-0.4,31.2,0.56,0,-0.03,0.83
1697352183.37,-0.02,0.58,1.06,-8.6,-0.4,31.2,0.56,0,-0.03,0.83
1697352183.38,-0.05,0.13,0.83,2.1,-0.2,24.9,0.56,0,-0.03,0.83
1697352183.39,-0.05,0.13,0.83,2.1,-0.2,24.9,0.56,0,-0.03,0.83
1697352183.4,-0.18,-0.21,1.27,0.1,1.1,19.9,0.56,0,-0.03,0.83
1697352183.41,-0.18,-0.21,1.27,0.1,1.1,19.9,0.56,0,-0.03,0.83
1697352183.42,-0.18,-0.21,1.27,0.1,1.1,19.9,0.55,0,-0.03,0.83
1697352183.43,0,0.17,0.77,-7.7,1.8,16.7,0.55,0,-0.03,0.83
1697352183.44,0,0.17,0.77,-7.7,1.8,16.7,0.55,0,-0.03,0.83
1697352183.45,-0.02,0.02,1.13,1.3,1.7,16.2,0.55,0,-0.03,0.84
1697352183.46,-0.02,0.02,1.13,1.3,1.7,16.2,0.55,0,-0.03,0.84
1697352183.47,0.1,-0.07,0.82,0.7,1.4,15.2,0.55,0,-0.03,0.84
1697352183.48,0.04,-0.2,0.86,-1.9,0.8,13.8,0.55,0,-0.03,0.84
1697352183.49,0.04,-0.2,0.86,-4,0.7,11.6,0.54,0,-0.03,0.84
1697352183.5,-0.14,-0.05,1.28,-4.7,0.4,9.5,0.54,0,-0.03,0.84
1697352183.51,0.06,-0.07,1.14,-4.1,0.5,7.5,0.54,0,-0.03,0.84
1697352183.52,-0.07,0.12,0.91,-2.4,0.2,5.9,0.54,-0,-0.03,0.84
1697352183.53,0.03,0.12,1.18,-0.9,0.1,4.6,0.54,-0,-0.03,0.84
1697352183.54,0.06,0.02,0.7,-0.8,0.1,3.2,0.54,-0,-0.03,0.84
1697352183.55,0.08,-0.11,0.76,-2.7,-0.4,1.8,0.54,-0,-0.03,0.84
1697352183.56,-0.01,-0.2,1.48,-3.6,-1.1,0,0.54,-0,-0.03,0.84
1697352183.57,0.07,-0.35,0.61,-4,-1.1,-2.2,0.54,-0,-0.03,0.84
1697352183.58,-0.12,-0.43,1.02,-4.9,-1,-4.9,0.54,-0,-0.03,0.84
1697352183.59,0.07,-0.43,1.21,-5.1,-0.8,-7.9,0.54,-0,-0.03,0.84
1697352183.6,-0.08,-0.44,0.9,-4.3,-0.5,-10.5,0.54,-0,-0.03,0.84
1697352183.61,-0.12,-0.49,1.22,-4.1,-0.1,-11.1,0.54,-0,-0.03,0.84
1697352183.62,0.07,-0.64,0.23,-4.2,-0.2,-13.2,0.55,-0,-0.03,0.84
1697352183.63,-0.14,-0.72,1.57,-5,0.1,-15.6,0.55,-0,-0.03,0.84
1697352183.64,0.13,-0.61,0.55,-6.5,0.6,-17.8,0.55,-0,-0.03,0.84
1697352183.65,-0.15,-0.71,1.54,-6.5,-0.2,-20.3,0.55,-0,-0.03,0.83
1697352183.66,-0.15,-0.71,1.54,-6.5,-0.2,-20.3,0.55,-0,-0.03,0.83
1697352183.67,-0.15,-0.71,1.54,-6.5,-0.2,-20.3,0.55,-0,-0.03,0.83
1697352183.68,-0.15,-0.71,1.54,-6.5,-0.2,-20.3,0.55,-0,-0.03,0.83
1697352183.69,-0.15,-0.71,1.54,-6.5,-0.2,-20.3,0.55,-0,-0.03,0.83
1697352183.7,-0.15,-0.71,1.54,-6.5,-0.2,-20.3,0.55,-0,-0.03,0.83
1697352183.71,-0.15,-0.71,1.54,-6.5,-0.2,-20.3,0.55,-0,-0.03,0.83
1697352183.72,-0.15,-0.71,1.54,-6.5,-0.2,-20.3,0.55,-0,-0.03,0.83
1697352183.73,-0.15,-0.71,1.54,-6.5,-0.2,-20.3,0.55,-0,-0.03,0.83
1697352183.74,-0.15,-0.71,1.54,-6.5,-0.2,-20.3,0.55,-0,-0.03,0.83
1697352183.75,-0.15,-0.71,1.54,-6.5,-0.2,-20.3,0.55,-0,-0.03,0.83
1697352183.76,-0.15,-0.71,1.54,-6.5,-0.2,-20.3,0.55,-0,-0.03,0.83
1697352183.77,-0.15,-0.71,1.54,-6.5,-0.2,-20.3,0.55,-0,-0.03,0.83
1697352183.78,-0.15,-0.71,1.54,-6.5,-0.2,-20.3,0.55,-0,-0.03,0.83
1697352183.79,-0.11,-1,1.28,-3.4,-1.7,-49.3,0.59,-0,-0.04,0.81
1697352183.8,-0.04,-1.18,0.02,-2.1,-0.8,-51.2,0.59,-0,-0.04,0.81
1697352183.81,-0.21,-0.84,1.43,-3.1,-0.6,-50.8,0.59,-0,-0.04,0.8
1697352183.82,-0.01,-1.16,0.76,-0.8,-0.1,-52.4,0.6,-0,-0.04,0.8
1697352183.83,-0.2,-1.02,1.49,-1.1,0.5,-53.5,0.6,-0,-0.04,0.8
1697352183.84,0.18,-1.1,0.55,-2.5,1.2,-54,0.6,-0,-0.04,0.8
1697352183.85,-0.3,-1.12,1.2,-1.5,1.7,-55.4,0.61,-0,-0.04,0.79
1697352183.86,-0.29,-0.99,0.85,-1.1,2,-56.3,0.61,-0,-0.04,0.79
1697352183.87,-0.12,-1.14,1.05,-0.7,2,-57.7,0.62,-0,-0.04,0.79
1697352183.88,-0.2,-1.13,0.98,-1.3,1.3,-58.7,0.62,-0,-0.04,0.78
1697352183.89,0.01,-1.09,1.18,-1.1,0.7,-59.4,0.62,-0,-0.04,0.78
1697352183.9,-0.04,-1,0.57,-1.2,0.5,-59.3,0.63,-0,-0.04,0.78
1697352183.91,-0.15,-0.99,1.36,-0.7,0.6,-59.1,0.63,-0,-0.04,0.77
1697352183.92,-0.15,-0.93,1.06,-0.5,0.8,-59,0.64,-0,-0.04,0.77
1697352183.93,-0.15,-0.94,0.66,0.5,0.6,-58.4,0.64,-0,-0.04,0.77
1697352183.94,-0.17,-1.07,1.28,1.5,0.4,-58,0.64,-0,-0.04,0.77
1697352183.95,-0.14,-0.96,0.55,1.1,0.3,-57.7,0.65,-0,-0.04,0.76
1697352183.96,-0.14,-0.96,0.55,1.1,0.3,-57.7,0.65,-0,-0.04,0.76
1697352183.97,-0.18,-0.99,0.9,-1.4,1.6,-56.8,0.66,-0,-0.04,0.75
1697352183.98,-0.08,-1.04,1.09,-1.4,1.6,-56.8,0.66,-0,-0.04,0.75
1697352183.99,-0.15,-0.92,0.92,-1.8,3.1,-55.9,0.66,-0,-0.04,0.75
1697352184,-0.19,-0.98,1.2,-1,2.6,-55.9,0.66,-0,-0.04,0.75
1697352184.01,-0.01,-1.05,0.9,0.7,1.7,-56.1,0.67,-0,-0.04,0.74
1697352184.02,-0.01,-1.05,0.9,0.7,1.7,-56.1,0.67,-0,-0.04,0.74
1697352184.03,-0.21,-0.95,1.52,0.9,0.2,-56.8,0.68,-0,-0.04,0.73
1697352184.04,-0.12,-0.92,1.32,0.9,0.2,-56.8,0.68,-0,-0.04,0.73
1697352184.05,0.21,-1.01,0.72,-1.4,-1.7,-55,0.69,-0,-0.04,0.73
1697352184.06,-0.13,-0.85,1.29,-2,-2.2,-53.9,0.69,-0,-0.04,0.73
1697352184.07,-0.13,-0.85,1.29,-2,-2.2,-53.9,0.69,0,-0.04,0.72
1697352184.08,-0.17,-0.7,0.69,1.5,0.1,-52.7,0.69,0,-0.04,0.72
1697352184.09,-0.17,-0.7,0.69,1.5,0.1,-52.7,0.7,0,-0.04,0.72
1697352184.1,-0.2,-1,0.95,4,2.4,-53.6,0.7,0,-0.04,0.71
1697352184.11,-0.2,-1,0.95,2.5,3.7,-54.4,0.7,0,-0.04,0.71
1697352184.12,-0.3,-1.13,1.13,-0.5,4.3,-55.4,0.71,0,-0.04,0.71
1697352184.13,-0.04,-0.91,0.89,-2.1,4.5,-55.7,0.71,0,-0.04,0.7
1697352184.14,-0.15,-0.95,0.81,-0.9,4,-56.1,0.71,0,-0.04,0.7
1697352184.15,-0.04,-0.81,1.34,1.1,3,-56.1,0.72,0,-0.04,0.7
1697352184.16,0.02,-0.9,0.78,2.3,2.1,-55.1,0.72,0,-0.04,0.69
1697352184.17,-0.06,-0.96,1.43,1.9,0.3,-54.6,0.72,0,-0.04,0.69
1697352184.18,0.18,-0.95,0.65,1,-0.3,-53.8,0.73,0,-0.04,0.68
1697352184.19,0.18,-0.95,0.65,1,-0.3,-53.8,0.73,0,-0.04,0.68
1697352184.2,0.18,-0.95,0.65,1,-0.3,-53.8,0.73,0,-0.04,0.68
1697352184.21,0.18,-0.95,0.65,1,-0.3,-53.8,0.73,0,-0.04,0.68
1697352184.22,0.18,-0.95,0.65,1,-0.3,-53.8,0.73,0,-0.04,0.68
1697352184.23,0.18,-0.95,0.65,1,-0.3,-53.8,0.73,0,-0.04,0.68
1697352184.24,0.18,-0.95,0.65,1,-0.3,-53.8,0.73,0,-0.04,0.68
1697352184.25,0.18,-0.95,0.65,1,-0.3,-53.8,0.73,0,-0.04,0.68
1697352184.26,0.18,-0.95,0.65,1,-0.3,-53.8,0.73,0,-0.04,0.68
1697352184.27,0.18,-0.95,0.65,1,-0.3,-53.8,0.73,0,-0.04,0.68
1697352184.28,0.18,-0.95,0.65,1,-0.3,-53.8,0.73,0,-0.04,0.68
1697352184.29,0.18,-0.95,0.65,1,-0.3,-53.8,0.73,0,-0.04,0.68
1697352184.3,0.18,-0.95,0.65,1,-0.3,-53.8,0.73,0,-0.04,0.68
1697352184.31,0.06,-0.45,0.62,5,-2,-36.9,0.77,0,-0.03,0.64
1697352184.32,0.06,-0.45,0.62,5,-2,-36.9,0.77,0,-0.03,0.64
1697352184.33,0.06,-0.45,0.62,5,-2,-36.9,0.77,0,-0.03,0.64
1697352184.34,-0.13,-0.16,1.17,2.4,-2.4,-31.7,0.77,0,-0.03,0.64
1697352184.35,-0.13,0.02,1.02,2.6,-2.5,-30.6,0.77,0.01,-0.03,0.63
1697352184.36,-0.14,0.01,0.73,3.2,-2.1,-28.5,0.77,0.01,-0.03,0.63
1697352184.37,-0.1,-0.02,1.26,5.4,-1.6,-25.9,0.78,0.01,-0.03,0.63
1697352184.38,-0.1,-0.01,0.99,6.6,-0.8,-23,0.78,0.01,-0.03,0.63
1697352184.39,-0.02,0.25,1.4,6.6,-0.8,-23,0.78,0.01,-0.03,0.63
1697352184.4,0.32,0.4,0.19,7,0.2,-14.9,0.78,0.01,-0.03,0.63
1697352184.41,0.1,0.38,0.87,6.2,0.4,-8.9,0.78,0.01,-0.03,0.63
1697352184.42,0.1,0.38,0.87,6.2,0.4,-8.9,0.78,0.01,-0.03,0.63
1697352184.43,0.09,0.47,1.08,4.9,1.2,5.6,0.78,0.01,-0.03,0.63
1697352184.44,0.09,0.47,1.08,4.9,1.2,5.6,0.78,0.01,-0.03,0.63
1697352184.45,0.09,0.37,1.08,6,0.9,10.7,0.78,0.01,-0.03,0.63
1697352184.46,0.09,0.37,1.08,6,0.9,10.7,0.78,0.01,-0.03,0.63
1697352184.47,0.08,0.21,1.14,5.2,0.9,11.4,0.78,0.01,-0.03,0.63
1697352184.48,0.08,0.21,1.14,3.1,0.5,11.2,0.78,0.01,-0.03,0.63
1697352184.49,0.13,0.25,0.93,1,0.2,10.2,0.78,0.01,-0.03,0.63
1697352184.5,0.04,0.41,0.9,1,0.2,10.2,0.78,0.01,-0.03,0.63
1697352184.51,0.08,0.38,1.18,1,-0.1,9.3,0.77,0.01,-0.03,0.63
1697352184.52,0.29,0.41,0.76,1.2,-0.7,8.9,0.77,0.01,-0.03,0.63
1697352184.53,0.14,0.47,1.34,1.2,-1.7,8.4,0.77,0.01,-0.03,0.63
1697352184.54,0.18,0.38,0.86,0.7,-2.5,8.6,0.77,0.01,-0.03,0.63
1697352184.55,0.09,0.44,0.93,-0.5,-2.2,9.2,0.77,0.01,-0.03,0.63
1697352184.56,0.05,0.48,1.24,-0.8,-2.3,10.3,0.77,0.01,-0.03,0.63
1697352184.57,-0.04,0.34,0.88,-0.2,-1.6,12,0.77,0.01,-0.03,0.64
1697352184.58,-0.05,0.39,0.98,-0.3,-1.1,14,0.77,0.01,-0.03,0.64
1697352184.59,0.02,0.38,1.2,-1.8,-0.6,16.4,0.77,0.01,-0.03,0.64
1697352184.6,-0.03,0.5,0.74,-2.9,0,18.5,0.77,0.01,-0.03,0.64
1697352184.61,0.08,0.56,1.19,-2.9,0.9,20.5,0.77,0.01,-0.03,0.64
1697352184.62,0.17,0.55,0.83,-0.6,1.3,22.4,0.77,0.01,-0.03,0.64
1697352184.63,0.08,0.48,1.14,1.4,1.1,24.2,0.76,0.01,-0.03,0.64
1697352184.64,0.24,0.45,0.8,2.1,-0.1,25.8,0.76,0.01,-0.03,0.65
1697352184.65,0.14,0.44,0.79,2.4,-0.9,26.5,0.76,0.01,-0.03,0.65
1697352184.66,0.08,0.44,1.03,2.3,-1.4,26.8,0.76,0.01,-0.03,0.65
1697352184.67,0.03,0.47,1.31,1.6,-1.9,27,0.76,0.01,-0.03,0.65
1697352184.68,0.12,0.6,0.66,0.1,-2.7,28,0.76,0.01,-0.03,0.65
1697352184.69,-0.1,0.64,1.44,0.3,-2.6,28.9,0.75,0.01,-0.03,0.66
1697352184.7,-0.1,0.64,1.44,0.3,-2.6,28.9,0.75,0.01,-0.03,0.66
1697352184.71,-0.1,0.64,1.44,0.3,-2.6,28.9,0.75,0.01,-0.03,0.66
1697352184.72,-0.1,0.64,1.44,0.3,-2.6,28.9,0.75,0.01,-0.03,0.66
1697352184.73,-0.1,0.64,1.44,0.3,-2.6,28.9,0.75,0.01,-0.03,0.66
1697352184.74,-0.1,0.64,1.44,0.3,-2.6,28.9,0.75,0.01,-0.03,0.66
1697352184.75,-0.1,0.64,1.44,0.3,-2.6,28.9,0.75,0.01,-0.03,0.66
1697352184.76,-0.1,0.64,1.44,0.3,-2.6,28.9,0.75,0.01,-0.03,0.66
1697352184.77,-0.1,0.64,1.44,0.3,-2.6,28.9,0.75,0.01,-0.03,0.66
1697352184.78,-0.1,0.64,1.44,0.3,-2.6,28.9,0.75,0.01,-0.03,0.66
1697352184.79,-0.1,0.64,1.44,0.3,-2.6,28.9,0.75,0.01,-0.03,0.66
1697352184.8,-0.1,0.64,1.44,0.3,-2.6,28.9,0.75,0.01,-0.03,0.66
1697352184.81,-0.1,0.64,1.44,0.3,-2.6,28.9,0.75,0.01,-0.03,0.66
1697352184.82,-0.1,0.64,1.44,0.3,-2.6,28.9,0.75,0.01,-0.03,0.66
1697352184.83,-0.1,0.64,1.44,0.3,-2.6,28.9,0.75,0.01,-0.03,0.66
1697352184.84,0.18,0.38,0.87,1,-3.3,35.4,0.73,0.01,-0.03,0.69
1697352184.85,0.18,0.55,0.68,-5.3,-3.7,34.3,0.72,0.01,-0.03,0.69
1697352184.86,0.18,0.55,0.68,-6.9,-3.1,33.5,0.72,0.01,-0.03,0.69
1697352184.87,-0.04,0.73,1.33,-4.5,-2.4,32.5,0.72,0.01,-0.03,0.69
1697352184.88,0.12,0.62,0.8,-0.7,-0.6,31.4,0.72,0.01,-0.03,0.7
1697352184.89,0.01,0.52,0.86,0.9,0.5,30.5,0.72,0.01,-0.03,0.7
1697352184.9,-0.07,0.3,1.28,0.5,2.1,29.3,0.71,0.01,-0.03,0.7
1697352184.91,0.2,0.27,0.63,-0.1,2.5,27.8,0.71,0.01,-0.03,0.7
1697352184.92,0.01,0.32,1.26,-1.1,2.4,26.6,0.71,0.01,-0.03,0.7
1697352184.93,0.09,0.3,1.07,-1.8,2.6,26,0.71,0.01,-0.03,0.7
1697352184.94,0.04,0.43,1.24,-0.8,2.3,25.3,0.71,0.01,-0.03,0.71
1697352184.95,0.27,0.32,0.64,-0.8,2,24.4,0.7,0.01,-0.03,0.71
1697352184.96,-0.04,0.42,1.15,-2.3,1.1,24.2,0.7,0.01,-0.03,0.71
1697352184.97,0.22,0.37,0.63,-1.6,1.4,23.7,0.7,0.01,-0.03,0.71
1697352184.98,0.01,0.53,1.13,0.5,1.1,23.7,0.7,0.01,-0.03,0.71
1697352184.99,-0.01,0.48,1.25,2.2,0.4,24.4,0.7,0.01,-0.03,0.71
1697352185,0.16,0.39,1.09,1.1,0.1,24.8,0.7,0.01,-0.03,0.72
1697352185.01,0.09,0.34,0.83,1.1,0.1,24.8,0.7,0.01,-0.03,0.72
1697352185.02,0.02,0.45,1.16,0.6,0.1,24.9,0.69,0.01,-0.03,0.72
1697352185.03,0.04,0.28,1.2,0.6,0.1,24.9,0.69,0.01,-0.03,0.72
1697352185.04,0.2,0.38,0.7,0,-0.8,25.5,0.69,0.01,-0.03,0.72
1697352185.05,-0.04,0.34,1.27,0,-1.2,25.6,0.69,0.01,-0.03,0.72
1697352185.06,0.18,0.4,0.8,0.1,-1.1,25.1,0.69,0.01,-0.03,0.73
1697352185.07,0.13,0.34,0.76,0.7,-0.4,24.4,0.69,0.01,-0.03,0.73
1697352185.08,-0.05,0.39,1.17,0.7,0.4,23.8,0.68,0.01,-0.03,0.73
1697352185.09,0.19,0.27,0.93,0.7,0.4,23.8,0.68,0.01,-0.03,0.73
1697352185.1,0.03,0.36,1.16,0,1,22.4,0.68,0.01,-0.03,0.73
1697352185.11,0.23,0.37,0.32,-1.7,1.8,21.9,0.68,0.01,-0.03,0.73
1697352185.12,-0.06,0.48,1.23,-1.2,1,21.7,0.68,0.01,-0.03,0.73
1697352185.13,0.17,0.4,0.78,-1.4,0.8,21.8,0.68,0.01,-0.03,0.74
1697352185.14,0.08,0.48,0.89,-1.4,0.8,21.8,0.68,0.01,-0.03,0.74
1697352185.15,-0.08,0.37,1.42,-0.4,0.3,21.4,0.68,0.01,-0.03,0.74
1697352185.16,0.25,0.28,0.71,-0.4,0.3,21.4,0.67,0.01,-0.03,0.74
1697352185.17,0.25,0.28,0.71,-0.2,0.2,20.8,0.67,0.01,-0.03,0.74
1697352185.18,0.24,0.22,0.68,-0.4,0.5,20,0.67,0.01,-0.03,0.74
1697352185.19,0.08,0.14,1,-1.5,0.6,19,0.67,0.01,-0.03,0.74
1697352185.2,-0.06,0.21,1.3,-1.6,0.8,18,0.67,0.01,-0.03,0.74
1697352185.21,0.15,0.2,0.89,-0.9,1.4,17,0.67,0.01,-0.03,0.74
1697352185.22,0.17,0.19,0.93,0,1.6,16.2,0.67,0.01,-0.03,0.74
1697352185.23,-0,0.21,1.23,2.1,1.7,15.3,0.67,0.01,-0.03,0.74
1697352185.24,-0,0.21,1.23,2.1,1.7,15.3,0.67,0.01,-0.03,0.74
1697352185.25,-0,0.21,1.23,2.1,1.7,15.3,0.67,0.01,-0.03,0.74
1697352185.26,-0,0.21,1.23,2.1,1.7,15.3,0.67,0.01,-0.03,0.74
1697352185.27,-0,0.21,1.23,2.1,1.7,15.3,0.67,0.01,-0.03,0.74
1697352185.28,-0,0.21,1.23,2.1,1.7,15.3,0.67,0.01,-0.03,0.74
1697352185.29,-0,0.21,1.23,2.1,1.7,15.3,0.67,0.01,-0.03,0.74
1697352185.3,-0,0.21,1.23,2.1,1.7,15.3,0.67,0.01,-0.03,0.74
1697352185.31,-0,0.21,1.23,2.1,1.7,15.3,0.67,0.01,-0.03,0.74
1697352185.32,-0,0.21,1.23,2.1,1.7,15.3,0.67,0.01,-0.03,0.74
1697352185.33,-0,0.21,1.23,2.1,1.7,15.3,0.67,0.01,-0.03,0.74
1697352185.34,-0,0.21,1.23,2.1,1.7,15.3,0.67,0.01,-0.03,0.74
1697352185.35,-0,0.21,1.23,2.1,1.7,15.3,0.67,0.01,-0.03,0.74
1697352185.36,0.25,0.15,0.84,-1.3,0.3,8.6,0.66,0.01,-0.03,0.75
1697352185.37,-0.19,0.22,1.46,0.3,1,9,0.66,0,-0.03,0.75
1697352185.38,0.03,0.19,1,2.9,2.2,9.2,0.65,0,-0.03,0.76
1697352185.39,0.18,0.04,0.67,2.9,2.2,9.2,0.65,0,-0.03,0.76
1697352185.4,0.13,-0.09,0.95,0.8,3.5,9,0.65,0,-0.03,0.76
1697352185.41,0.13,-0.09,0.95,0.8,3.5,9,0.65,0,-0.03,0.76
1697352185.42,0.04,0,0.81,-0.9,2.4,9,0.65,0,-0.03,0.76
1697352185.43,-0.1,0.12,1.44,-0.9,2.4,9,0.65,0,-0.03,0.76
1697352185.44,0.02,0.3,0.93,3,1.1,8.9,0.65,0,-0.03,0.76
1697352185.45,-0.11,0.17,1.24,3.3,0,8.8,0.65,0,-0.03,0.76
1697352185.46,0.32,-0.02,0.54,0.9,-0.4,8.1,0.65,0,-0.03,0.76
1697352185.47,0.32,-0.02,0.54,0.9,-0.4,8.1,0.65,0,-0.03,0.76
1697352185.48,0.09,0.12,0.78,-1.4,-1.3,7.6,0.65,0,-0.03,0.76
1697352185.49,0.17,0.19,0.73,-1.7,-1.5,7.5,0.65,0,-0.03,0.76
1697352185.5,-0.07,0.24,1.39,-1.7,-1.5,7.5,0.65,0,-0.03,0.76
1697352185.51,0.06,0.21,1.02,-0.3,-2.1,7.3,0.65,0,-0.03,0.76
1697352185.52,0.15,0.17,0.73,-0.1,-1.8,7.6,0.65,0,-0.03,0.76
1697352185.53,-0.06,0.22,1.26,0.7,-1.4,7.2,0.65,0,-0.03,0.76
1697352185.54,-0.12,0.12,1.26,1.3,-1.2,7.5,0.65,0,-0.03,0.76
1697352185.55,0.18,-0.07,0.87,1.5,-0.4,7.8,0.65,0,-0.03,0.76
1697352185.56,-0.01,-0.02,0.93,1,0.1,7.8,0.65,0,-0.03,0.76
1697352185.57,-0.22,0.09,1.44,-0.8,0.8,7.7,0.64,0,-0.03,0.76
1697352185.58,-0.07,0.25,1.16,-1.3,2,8.1,0.64,0,-0.03,0.76
1697352185.59,0.2,0.16,0.61,-0.3,1.9,8.5,0.64,0,-0.03,0.76
1697352185.6,0.06,0.21,0.95,0.6,1.7,8.8,0.64,0,-0.03,0.77
1697352185.61,-0.15,0.17,1.23,1.3,0.6,8.8,0.64,0,-0.03,0.77
1697352185.62,0.24,0.08,0.7,0.5,-0.2,9.1,0.64,0,-0.03,0.77
1697352185.63,0.19,0.09,0.9,-0.5,-0.6,8.8,0.64,0,-0.03,0.77
1697352185.64,0.07,0.18,1.02,-0.7,-1.6,8.5,0.64,0,-0.03,0.77
1697352185.65,-0.11,0.23,1.36,-1.1,-2,8.4,0.64,0,-0.03,0.77
1697352185.66,0.1,0.25,0.79,-0.8,-2.3,8.6,0.64,0,-0.03,0.77
1697352185.67,0.02,0.23,1.12,0.4,-1.6,8.7,0.64,0,-0.03,0.77
1697352185.68,-0.05,0.16,0.99,1.5,-0.6,8.9,0.64,0,-0.03,0.77
1697352185.69,-0.24,0.13,1.55,1.6,0,9.2,0.64,0,-0.03,0.77
1697352185.7,0.05,0.08,0.89,1.8,0.9,9.5,0.64,0,-0.03,0.77
1697352185.71,0.13,-0.01,0.71,1.3,1.8,9.7,0.64,0,-0.03,0.77
1697352185.72,-0.1,0.17,1.31,-0.4,1.9,9.7,0.64,0,-0.03,0.77
1697352185.73,0.04,0.24,0.98,-1.1,1.2,9.6,0.63,0,-0.03,0.77
1697352185.74,0.24,0.23,0.93,-1.1,1.2,9.6,0.63,0,-0.03,0.77
1697352185.75,0.24,0.23,0.93,-0.8,1.1,9.9,0.63,0,-0.03,0.77
1697352185.76,0.24,0.23,0.93,-0.8,1.1,9.9,0.63,0,-0.03,0.77
1697352185.77,0.24,0.23,0.93,-0.8,1.1,9.9,0.63,0,-0.03,0.77
1697352185.78,0.24,0.23,0.93,-0.8,1.1,9.9,0.63,0,-0.03,0.77
1697352185.79,0.24,0.23,0.93,-0.8,1.1,9.9,0.63,0,-0.03,0.77
1697352185.8,0.24,0.23,0.93,-0.8,1.1,9.9,0.63,0,-0.03,0.77
1697352185.81,0.24,0.23,0.93,-0.8,1.1,9.9,0.63,0,-0.03,0.77
1697352185.82,0.24,0.23,0.93,-0.8,1.1,9.9,0.63,0,-0.03,0.77
1697352185.83,0.24,0.23,0.93,-0.8,1.1,9.9,0.63,0,-0.03,0.77
1697352185.84,0.24,0.23,0.93,-0.8,1.1,9.9,0.63,0,-0.03,0.77
1697352185.85,0.24,0.23,0.93,-0.8,1.1,9.9,0.63,0,-0.03,0.77
1697352185.86,0.24,0.23,0.93,-0.8,1.1,9.9,0.63,0,-0.03,0.77
1697352185.87,0.24,0.23,0.93,-0.8,1.1,9.9,0.63,0,-0.03,0.77
1697352185.88,0.12,0.61,0.88,0.9,1.8,28.7,0.62,0.01,-0.03,0.79
1697352185.89,0.04,0.66,1,2.4,0.9,29.5,0.62,0.01,-0.03,0.79
1697352185.9,-0.07,0.66,1.07,3.3,0.2,29.9,0.61,0.01,-0.03,0.79
1697352185.91,0.02,0.62,1.07,2.7,-0.4,29.7,0.61,0.01,-0.03,0.79
1697352185.92,0.2,0.48,0.75,0.8,-1.3,29.4,0.61,0.01,-0.03,0.79
1697352185.93,-0.09,0.64,1.15,-0.7,-2.5,28.9,0.61,0.01,-0.03,0.79
1697352185.94,-0.03,0.59,1.17,-1.9,-3.2,28.1,0.61,0.01,-0.03,0.8
1697352185.95,-0.09,0.64,1.03,-2.6,-2.9,27.4,0.6,0.01,-0.03,0.8
1697352185.96,0.07,0.71,0.82,-1.4,-2.6,27.5,0.6,0.01,-0.03,0.8
1697352185.97,-0.03,0.76,1.03,1.3,-2.1,27.8,0.6,0.01,-0.03,0.8
1697352185.98,-0.11,0.6,1.32,3.5,-2,27.9,0.6,0.01,-0.03,0.8
1697352185.99,-0.07,0.55,1.02,2.4,-1.2,27.9,0.6,0.01,-0.03,0.8
1697352186,0.23,0.37,0.82,-0.1,-0.2,28.4,0.59,0.01,-0.03,0.8
1697352186.01,0.2,0.35,0.65,-0.8,-0.1,28.6,0.59,0.01,-0.03,0.81
1697352186.02,-0,0.54,1,-2,0.6,28.6,0.59,0.01,-0.03,0.81
1697352186.03,-0.12,0.64,1.08,-1.9,1.1,28.8,0.59,0.01,-0.03,0.81
1697352186.04,-0.01,0.53,1.1,-1.9,1.1,28.8,0.59,0.01,-0.03,0.81
1697352186.05,0.21,0.51,0.81,1.9,1.5,29.7,0.58,0.01,-0.03,0.81
1697352186.06,0.06,0.48,0.94,1.9,1.5,29.7,0.58,0.01,-0.03,0.81
1697352186.07,-0,0.46,1.04,1.5,1.6,30.2,0.58,0.01,-0.03,0.82
1697352186.08,0.19,0.43,0.75,1.2,0.8,29.8,0.58,0.01,-0.03,0.82
1697352186.09,0.19,0.43,0.75,1.2,0.8,29.8,0.58,0.01,-0.03,0.82
1697352186.1,0.19,0.43,0.75,1.2,0.8,29.8,0.58,0.01,-0.03,0.82
1697352186.11,0.19,0.43,0.75,1.2,0.8,29.8,0.58,0.01,-0.03,0.82
1697352186.12,0.19,0.43,0.75,1.2,0.8,29.8,0.58,0.01,-0.03,0.82
1697352186.13,0.19,0.43,0.75,1.2,0.8,29.8,0.58,0.01,-0.03,0.82
1697352186.14,0.19,0.43,0.75,1.2,0.8,29.8,0.58,0.01,-0.03,0.82
1697352186.15,0.19,0.43,0.75,1.2,0.8,29.8,0.58,0.01,-0.03,0.82
1697352186.16,0.19,0.43,0.75,1.2,0.8,29.8,0.58,0.01,-0.03,0.82
1697352186.17,0.19,0.43,0.75,1.2,0.8,29.8,0.58,0.01,-0.03,0.82
1697352186.18,0.19,0.43,0.75,1.2,0.8,29.8,0.58,0.01,-0.03,0.82
1697352186.19,0.19,0.43,0.75,1.2,0.8,29.8,0.58,0.01,-0.03,0.82
1697352186.2,0.23,0.62,0.92,3.8,2.2,29.5,0.55,0,-0.03,0.83
1697352186.21,0.23,0.62,0.92,3.8,2.2,29.5,0.55,0,-0.03,0.83
1697352186.22,-0.1,0.42,1.14,0.7,0.1,29.8,0.55,0,-0.03,0.84
1697352186.23,0.22,0.49,0.63,-1.6,0,30,0.55,0,-0.03,0.84
1697352186.24,-0.08,0.55,0.92,-2.4,-0.2,30.1,0.54,0,-0.03,0.84
1697352186.25,0.02,0.62,0.63,-2.5,-0.4,30.1,0.54,0,-0.03,0.84
1697352186.26,-0.2,0.68,1.23,-0.7,0.4,30.3,0.54,0,-0.03,0.84
1697352186.27,-0.14,0.61,0.98,0.6,1.2,30.2,0.54,0,-0.03,0.84
1697352186.28,0.06,0.65,0.84,2.2,2.2,30.2,0.53,0,-0.03,0.84
1697352186.29,-0.07,0.52,0.97,2.6,2.9,29.8,0.53,0,-0.03,0.85
1697352186.3,-0.14,0.48,1.15,0,3.3,29.6,0.53,0,-0.03,0.85
1697352186.31,-0.08,0.41,0.85,-2.5,4.2,29,0.53,0,-0.03,0.85
1697352186.32,0.1,0.5,0.68,-3.9,5,28.8,0.53,0,-0.03,0.85
1697352186.33,-0.1,0.68,1.14,-2.7,4.5,29,0.52,0,-0.03,0.85
1697352186.34,0.07,0.65,0.9,0.4,4.7,29.2,0.52,0,-0.03,0.85
1697352186.35,-0.12,0.58,1.05,1.7,4.9,29,0.52,0,-0.03,0.85
1697352186.36,-0.07,0.46,1.11,-0.2,4.8,28.8,0.52,-0,-0.03,0.86
1697352186.37,0.16,0.38,0.76,-3.2,4.5,28.8,0.51,-0,-0.03,0.86
1697352186.38,-0.13,0.56,1.21,-4.2,4,28.9,0.51,-0,-0.03,0.86
1697352186.39,-0.09,0.66,1.13,-3,3.5,29.3,0.51,-0,-0.03,0.86
1697352186.4,0.16,0.69,0.64,-0.9,3.3,29.6,0.51,-0,-0.03,0.86
1697352186.41,-0,0.56,0.94,0.9,3,29.6,0.51,-0,-0.03,0.86
1697352186.42,-0.08,0.6,1.04,1.6,2,29.6,0.5,-0,-0.03,0.86
1697352186.43,-0.01,0.5,1.09,1.8,1.4,29.9,0.5,-0,-0.03,0.86
1697352186.44,-0.01,0.5,1.09,1.8,1.4,29.9,0.5,-0,-0.03,0.87
1697352186.45,0,0.41,0.79,-0.7,1.1,29.2,0.5,-0,-0.03,0.87
1697352186.46,0.07,0.42,0.82,-0.7,1.1,29.2,0.5,-0,-0.03,0.87
