time,accel_x,accel_y,accel_z,gyro_x,gyro_y,gyro_z,quat_w,quat_x,quat_y,quat_z
1697352540.85,-0.04,0.54,1.28,-1,0.3,58.4,0.74,0,0.02,0.67
1697352540.86,-0.04,0.54,1.28,-0.2,-1.3,57.6,0.74,0,0.02,0.67
1697352540.87,-0.01,0.55,1.36,1.3,-2,57.4,0.74,0,0.02,0.68
1697352540.88,0.03,0.55,1.13,2,-2.6,57.2,0.73,0,0.02,0.68
1697352540.89,-0.09,0.53,1.6,2,-2.6,57.2,0.73,0,0.02,0.68
1697352540.9,-0.01,0.47,1.18,0.3,-2.1,57.6,0.73,0,0.02,0.69
1697352540.91,-0.02,0.41,0.84,-2.4,-0.5,57.9,0.72,0,0.02,0.69
1697352540.92,-0.05,0.46,0.8,-4.4,0.6,58.3,0.72,0,0.02,0.7
1697352540.93,0.04,0.48,0.33,-5.5,2.1,58.7,0.71,0,0.01,0.7
1697352540.94,-0.01,0.44,0.62,-5.8,2.9,58.9,0.71,0,0.01,0.7
1697352540.95,0.08,0.56,0.25,-5.8,2.9,58.9,0.71,0,0.01,0.7
1697352540.96,-0.05,0.53,1,-6.7,4.6,59.1,0.7,0,0.01,0.71
1697352540.97,0.06,0.69,1.32,-4.3,4.8,59.3,0.7,0,0.01,0.71
1697352540.98,0.08,0.85,1.33,1,2.5,59.6,0.7,0,0.01,0.72
1697352540.99,0.04,0.57,1.27,6.6,-0.1,59.2,0.69,0,0.01,0.72
1697352541,0.05,0.45,1.25,7.8,-2.8,59.3,0.69,0,0.02,0.73
1697352541.01,0.03,0.3,1.24,7.8,-2.8,59.3,0.69,0,0.02,0.73
1697352541.02,-0.03,0.34,1.41,-0.4,-4.3,59.3,0.68,0,0.02,0.73
1697352541.03,-0.01,0.47,1.27,-2.7,-3.6,59.4,0.68,0,0.01,0.74
1697352541.04,-0.02,0.59,1.21,-2.7,-2.7,59.7,0.67,0,0.01,0.74
1697352541.05,0.03,0.66,0.82,-0.7,-1.4,59.9,0.67,0,0.01,0.74
1697352541.06,-0.03,0.61,0.79,1.1,-0.4,60.1,0.66,0,0.01,0.75
1697352541.07,0.04,0.51,0.82,2,-0.2,60.1,0.66,0,0.01,0.75
1697352541.08,0.03,0.6,1.38,2,-0.2,60.1,0.66,0,0.01,0.75
1697352541.09,-0.04,0.48,1.31,1.7,-0.3,60.4,0.66,0,0.01,0.76
1697352541.1,-0.04,0.48,1.31,1.7,-0.3,60.4,0.66,0,0.01,0.76
1697352541.11,-0.04,0.48,1.31,1.7,-0.3,60.4,0.66,0,0.01,0.76
1697352541.12,-0.04,0.48,1.31,1.7,-0.3,60.4,0.66,0,0.01,0.76
1697352541.13,-0.04,0.48,1.31,1.7,-0.3,60.4,0.66,0,0.01,0.76
1697352541.14,-0.04,0.48,1.31,1.7,-0.3,60.4,0.66,0,0.01,0.76
1697352541.15,-0.04,0.48,1.31,1.7,-0.3,60.4,0.66,0,0.01,0.76
1697352541.16,-0.04,0.48,1.31,1.7,-0.3,60.4,0.66,0,0.01,0.76
1697352541.17,-0.04,0.48,1.31,1.7,-0.3,60.4,0.66,0,0.01,0.76
1697352541.18,-0.04,0.48,1.31,1.7,-0.3,60.4,0.66,0,0.01,0.76
1697352541.19,-0.04,0.48,1.31,1.7,-0.3,60.4,0.66,0,0.01,0.76
1697352541.2,-0.04,0.48,1.31,1.7,-0.3,60.4,0.66,0,0.01,0.76
1697352541.21,-0.04,0.48,1.31,1.7,-0.3,60.4,0.66,0,0.01,0.76
1697352541.22,-0.04,0.48,1.31,1.7,-0.3,60.4,0.66,0,0.01,0.76
1697352541.23,-0.11,0.75,0.79,1.4,5.4,65,0.6,0.01,0.02,0.8
1697352541.24,0.04,0.7,0.68,1.9,5.1,65.2,0.59,0.01,0.02,0.81
1697352541.25,-0.01,0.62,0.79,3.6,3.5,65.4,0.59,0.01,0.02,0.81
1697352541.26,0.02,0.57,0.82,3.4,1.5,65.1,0.58,0.01,0.02,0.81
1697352541.27,-0,0.59,0.58,1.8,-0.3,64.4,0.58,0.01,0.02,0.82
1697352541.28,0.04,0.63,0.66,-1.2,-2.1,64,0.57,0.01,0.02,0.82
1697352541.29,-0.05,0.63,0.93,-3.4,-3,62.9,0.57,0.01,0.02,0.82
1697352541.3,-0.08,0.6,1.03,-5.4,-3.8,62.5,0.56,0.01,0.02,0.83
1697352541.31,-0.05,0.42,0.93,-7.2,-4.5,62.2,0.56,0.01,0.01,0.83
1697352541.32,-0.11,0.77,1.06,-9.5,-5.3,62.4,0.55,0.01,0.01,0.83
1697352541.33,-0.02,0.56,1.08,-12.6,-6.4,62.2,0.55,0.01,0.01,0.84
1697352541.34,-0.12,0.78,0.95,-12.4,-6.6,61.5,0.54,0.01,0.01,0.84
1697352541.35,-0.02,0.52,1.41,-9.1,-5.2,60.8,0.54,0.01,0.01,0.84
1697352541.36,-0.04,0.76,1.05,-2.2,-3.6,59.7,0.53,0.01,0.01,0.84
1697352541.37,-0.15,0.35,1.7,3.7,0.2,58.6,0.53,0.01,0.01,0.84
1697352541.38,-0.01,0.11,1.03,7,3.5,57.9,0.53,0.01,0.01,0.85
1697352541.39,-0.13,0.05,1.25,6,6.4,56.7,0.52,0.01,0.01,0.85
1697352541.4,-0.07,0.14,1,-0.7,8.6,57.3,0.52,0.01,0.01,0.86
1697352541.41,-0.1,0.43,1.47,-4.5,9.6,58.2,0.51,0.01,0.01,0.86
1697352541.42,0,0.49,1.1,-1,8.6,58.5,0.51,0.01,0.01,0.86
1697352541.43,0,0.49,1.1,-1,8.6,58.5,0.51,0,0.01,0.86
1697352541.44,-0.01,0.29,1.27,3.4,4.5,55.6,0.5,0,0.01,0.87
1697352541.45,0.17,0.15,0.7,3.4,4.5,55.6,0.5,0,0.01,0.87
1697352541.46,0.09,0.13,0.99,0.4,0.4,50.3,0.49,0,0.01,0.87
1697352541.47,0.09,0.13,0.99,0.4,0.4,50.3,0.49,0,0.01,0.87
1697352541.48,0.07,0.25,0.87,-0.3,-1.2,47.7,0.49,0,0.01,0.87
1697352541.49,0.13,0.35,0.79,0,-2.8,45.5,0.48,0,0.01,0.88
1697352541.5,0.02,0.4,0.53,0.5,-3,44,0.48,0,0.01,0.88
1697352541.51,0.02,0.4,0.53,1,-2.1,42.8,0.48,0.01,0.01,0.88
1697352541.52,-0.04,0.29,0.62,0,-1.1,42,0.47,0.01,0.01,0.88
1697352541.53,-0.05,0.24,0.71,-1.8,0.2,41.2,0.47,0.01,0.01,0.88
1697352541.54,-0.17,0.14,1.05,-3.8,0.7,40,0.47,0.01,0.01,0.88
1697352541.55,-0,0.18,0.88,-4.7,2,38.5,0.46,0,0.01,0.89
1697352541.56,-0.06,0.12,0.85,-3.3,2.8,36.6,0.46,0,0.01,0.89
1697352541.57,-0.1,0.04,1.14,-2.7,2.8,36,0.46,0,0.01,0.89
1697352541.58,-0.09,-0.11,1.06,-2.7,2.8,36,0.46,0,0.01,0.89
1697352541.59,0.01,-0.15,0.91,2.2,4.3,29.5,0.45,0,0.01,0.89
1697352541.6,-0.05,-0.15,1.09,0.5,4.1,27.4,0.45,0,0.01,0.89
1697352541.61,-0.05,-0.15,1.09,0.5,4.1,27.4,0.45,0,0.01,0.89
1697352541.62,-0.05,-0.15,1.09,0.5,4.1,27.4,0.45,0,0.01,0.89
1697352541.63,-0.05,-0.15,1.09,0.5,4.1,27.4,0.45,0,0.01,0.89
1697352541.64,-0.05,-0.15,1.09,0.5,4.1,27.4,0.45,0,0.01,0.89
1697352541.65,-0.05,-0.15,1.09,0.5,4.1,27.4,0.45,0,0.01,0.89
1697352541.66,-0.05,-0.15,1.09,0.5,4.1,27.4,0.45,0,0.01,0.89
1697352541.67,-0.05,-0.15,1.09,0.5,4.1,27.4,0.45,0,0.01,0.89
1697352541.68,-0.05,-0.15,1.09,0.5,4.1,27.4,0.45,0,0.01,0.89
1697352541.69,-0.05,-0.15,1.09,0.5,4.1,27.4,0.45,0,0.01,0.89
1697352541.7,-0.05,-0.15,1.09,0.5,4.1,27.4,0.45,0,0.01,0.89
1697352541.71,-0.05,-0.15,1.09,0.5,4.1,27.4,0.45,0,0.01,0.89
1697352541.72,-0.05,-0.15,1.09,0.5,4.1,27.4,0.45,0,0.01,0.89
1697352541.73,-0.05,-0.15,1.09,0.5,4.1,27.4,0.45,0,0.01,0.89
1697352541.74,-0.05,-0.15,1.09,0.5,4.1,27.4,0.45,0,0.01,0.89
1697352541.75,-0.05,-0.15,1.09,0.5,4.1,27.4,0.45,0,0.01,0.89
1697352541.76,-0.05,-0.15,1.09,0.5,4.1,27.4,0.45,0,0.01,0.89
1697352541.77,-0.05,-0.15,1.09,0.5,4.1,27.4,0.45,0,0.01,0.89
1697352541.78,-0.04,-0.42,0.63,-4.7,-0.4,-9.9,0.43,-0,0.01,0.9
1697352541.79,-0.04,-0.42,0.63,-4.7,-0.4,-9.9,0.43,-0,0.01,0.9
1697352541.8,-0.08,-0.42,0.87,-2.7,-0.9,-12.3,0.44,-0,0.01,0.9
1697352541.81,-0.09,-0.42,0.99,-1.2,-0.6,-13.9,0.44,-0,0.01,0.9
1697352541.82,-0.04,-0.51,0.74,-0.2,-0.6,-16.2,0.44,-0,0.01,0.9
1697352541.83,-0.04,-0.51,0.74,-0.2,-0.6,-16.2,0.44,-0,0.01,0.9
1697352541.84,-0.15,-0.64,0.98,-0.2,-1,-18.5,0.44,-0,0.01,0.9
1697352541.85,-0.13,-0.73,1.15,-1.6,-1.2,-21.2,0.44,-0,0.01,0.9
1697352541.86,-0.05,-0.5,0.96,-1.2,-1.1,-23,0.44,-0,0.01,0.9
1697352541.87,-0.18,-0.35,0.94,1.3,-0.3,-24.7,0.45,-0,0.01,0.9
1697352541.88,-0.08,-0.44,0.97,3.3,0.7,-26.4,0.45,-0,0.01,0.89
1697352541.89,-0.09,-0.44,0.95,2.9,1.5,-27.6,0.45,-0,0.01,0.89
1697352541.9,-0.13,-0.44,1.02,0.3,2,-28.1,0.45,-0,0.01,0.89
1697352541.91,-0.15,-0.38,1.22,-2.3,2.3,-28.3,0.45,-0,0.01,0.89
1697352541.92,-0.19,-0.29,1.28,-3.8,2.5,-28.7,0.46,-0,0.01,0.89
1697352541.93,-0.13,-0.16,1.12,-3.8,2.5,-28.7,0.46,-0,0.01,0.89
1697352541.94,0.03,-0.29,0.41,-2.8,2.8,-28.3,0.46,-0,0.01,0.89
1697352541.95,-0.16,-0.33,1.17,-1.4,1.9,-28.4,0.46,-0,0.01,0.89
1697352541.96,-0.09,-0.38,0.92,-0.4,1.2,-28.8,0.47,-0,0.01,0.88
1697352541.97,-0.14,-0.5,1.12,-0.2,0.6,-30.1,0.47,-0,0.01,0.88
1697352541.98,-0.06,-0.48,1.09,-0.7,-0.4,-31.4,0.47,-0,0.01,0.88
1697352541.99,-0.12,-0.57,0.76,-1.1,-1.6,-32.8,0.47,-0,0.01,0.88
1697352542,-0.19,-0.45,0.95,-1.1,-1.6,-32.8,0.47,-0,0.01,0.88
1697352542.01,-0.07,-0.4,0.96,-3.4,-1.8,-35.8,0.48,-0,0.01,0.88
1697352542.02,-0.13,-0.41,1.17,-3,-1.6,-36.3,0.48,-0,0.01,0.88
1697352542.03,-0.14,-0.4,0.96,0.6,-1.6,-37.6,0.49,-0,0.01,0.87
1697352542.04,-0.12,-0.53,0.84,0.3,-1.3,-37.9,0.49,-0,0.01,0.87
1697352542.05,-0.25,-0.5,1.08,0,-0.7,-38.3,0.49,-0,0.01,0.87
1697352542.06,-0.22,-0.55,1.06,-0.7,-0.2,-38.6,0.49,-0,0,0.87
1697352542.07,-0.14,-0.56,1.03,-1.1,0.5,-39.2,0.5,-0,0,0.87
1697352542.08,-0.14,-0.56,1.03,-1.1,0.5,-39.2,0.5,-0,0,0.87
1697352542.09,-0.23,-0.43,1.27,-0.4,1.1,-39.6,0.5,-0,0,0.87
1697352542.1,-0.23,-0.43,1.27,-0.4,1.1,-39.6,0.5,-0,0,0.87
1697352542.11,-0.09,-0.45,0.96,1.3,0.6,-40.5,0.51,-0,0.01,0.86
1697352542.12,-0.1,-0.44,1.02,0.7,0,-40.6,0.51,-0,0.01,0.86
1697352542.13,-0.13,-0.48,1.17,0.7,0,-40.6,0.51,-0,0.01,0.86
1697352542.14,-0.11,-0.39,1.1,-0.5,-1.3,-40.5,0.52,-0,0.01,0.85
1697352542.15,-0.12,-0.31,1.12,0,-1.4,-40.6,0.52,-0,0.01,0.85
1697352542.16,-0.04,-0.34,0.84,0.7,-1.2,-40.6,0.53,-0,0.01,0.85
1697352542.17,-0.04,-0.34,0.84,0.7,-1.2,-40.6,0.53,-0,0.01,0.85
1697352542.18,-0.04,-0.34,0.84,0.7,-1.2,-40.6,0.53,-0,0.01,0.85
1697352542.19,-0.04,-0.34,0.84,0.7,-1.2,-40.6,0.53,-0,0.01,0.85
1697352542.2,-0.04,-0.34,0.84,0.7,-1.2,-40.6,0.53,-0,0.01,0.85
1697352542.21,-0.04,-0.34,0.84,0.7,-1.2,-40.6,0.53,-0,0.01,0.85
1697352542.22,-0.04,-0.34,0.84,0.7,-1.2,-40.6,0.53,-0,0.01,0.85
1697352542.23,-0.04,-0.34,0.84,0.7,-1.2,-40.6,0.53,-0,0.01,0.85
1697352542.24,-0.04,-0.34,0.84,0.7,-1.2,-40.6,0.53,-0,0.01,0.85
1697352542.25,-0.04,-0.34,0.84,0.7,-1.2,-40.6,0.53,-0,0.01,0.85
1697352542.26,-0.04,-0.34,0.84,0.7,-1.2,-40.6,0.53,-0,0.01,0.85
1697352542.27,-0.04,-0.34,0.84,0.7,-1.2,-40.6,0.53,-0,0.01,0.85
1697352542.28,-0.04,-0.34,0.84,0.7,-1.2,-40.6,0.53,-0,0.01,0.85
1697352542.29,-0.04,-0.34,0.84,0.7,-1.2,-40.6,0.53,-0,0.01,0.85
1697352542.3,-0.11,-0.37,0.7,-1.1,0.5,-47.3,0.57,-0,0.01,0.82
1697352542.31,-0.15,-0.35,1.22,-1.4,0,-46.8,0.57,-0,0.01,0.82
1697352542.32,-0.08,-0.35,1.06,-1.1,-0.4,-46.2,0.57,-0,0.01,0.82
1697352542.33,-0.06,-0.41,1.15,-1.6,-0.9,-45.1,0.58,-0,0,0.82
1697352542.34,0.05,-0.31,1.08,-1.3,-1.8,-44,0.58,-0,0,0.81
1697352542.35,0.1,-0.45,1.1,-1.2,-2.1,-43.5,0.58,-0,0,0.81
1697352542.36,0.2,-0.38,1.14,0.5,-3,-40.6,0.59,-0,0,0.81
1697352542.37,0.29,-0.44,0.82,1.2,-2.4,-39.9,0.59,-0,0,0.81
1697352542.38,0.02,-0.53,0.95,0.6,-1.4,-40.6,0.59,-0,0,0.81
1697352542.39,-0.22,-0.66,1.4,-1.3,-0.3,-42,0.6,-0,0,0.8
1697352542.4,-0.21,-0.52,0.9,-1.3,1.3,-44.1,0.6,-0,0,0.8
1697352542.41,-0.18,-0.37,0.95,1,2.8,-45.5,0.6,-0,0,0.8
1697352542.42,-0.18,-0.41,0.98,4.9,3,-46.9,0.6,-0,0,0.8
1697352542.43,-0.1,-0.35,1.08,4.9,3,-46.9,0.61,-0,0,0.8
1697352542.44,-0.09,-0.46,1.41,5.5,1.8,-47.6,0.61,-0,0.01,0.79
1697352542.45,0.26,-0.53,0.88,3.1,0.4,-47.5,0.62,-0,0.01,0.79
1697352542.46,0.32,-0.3,0.86,-1.5,-0.5,-46.9,0.62,-0,0.01,0.79
1697352542.47,0.36,-0.34,1.05,-4.6,-1.9,-45.1,0.62,-0,0.01,0.79
1697352542.48,0.36,-0.34,1.05,-4.6,-1.9,-45.1,0.62,-0,0,0.78
1697352542.49,0.13,-0.47,1.15,-1.6,-4,-42.2,0.63,-0,0,0.78
1697352542.5,0.13,-0.47,1.15,-1.6,-4,-42.2,0.63,-0,0,0.78
1697352542.51,-0.27,-0.73,0.89,2.1,-2.7,-40.5,0.63,-0,0,0.77
1697352542.52,-0.27,-0.73,0.89,2.1,-2.7,-40.5,0.63,-0,0,0.77
1697352542.53,-0.11,-0.39,0.71,3.5,-0.6,-42.7,0.64,-0,0,0.77
1697352542.54,0,-0.65,0.83,1.8,2.8,-45.2,0.64,-0,0,0.77
1697352542.55,-0.1,-0.41,0.93,0.2,3,-45.9,0.64,-0,0,0.77
1697352542.56,0.07,-0.35,1.09,0.9,2.8,-46.3,0.65,-0,0,0.76
1697352542.57,0.15,-0.35,0.88,1.1,2.2,-46.6,0.65,-0,0.01,0.76
1697352542.58,0.11,-0.4,1.05,1.2,1,-46.7,0.65,-0,0.01,0.76
1697352542.59,0.07,-0.49,0.98,0.5,0.2,-46.9,0.66,-0,0.01,0.76
1697352542.6,-0.05,-0.55,0.93,-0.8,-0.8,-47.1,0.66,-0,0.01,0.75
1697352542.61,-0.04,-0.58,1.01,-2.2,-0.9,-47.6,0.66,-0,0.01,0.75
1697352542.62,-0.27,-0.45,0.8,-2.4,-0.6,-48.6,0.67,-0,0,0.75
1697352542.63,-0.28,-0.38,1.45,-2.4,-0.6,-48.6,0.67,-0,0,0.75
1697352542.64,-0.01,-0.4,0.95,-0.3,1.2,-49,0.67,-0,0,0.74
1697352542.65,-0.17,-0.38,0.84,1,2,-48.4,0.67,-0,0,0.74
1697352542.66,-0.13,-0.48,1.26,1.2,2.2,-47.8,0.68,-0,0.01,0.74
1697352542.67,-0.07,-0.49,1.08,0.8,2.4,-47.4,0.68,-0,0.01,0.73
1697352542.68,-0.18,-0.54,1.25,0.5,2.4,-46.8,0.68,-0,0.01,0.73
1697352542.69,-0.18,-0.54,1.25,0.5,2.4,-46.8,0.68,-0,0.01,0.73
1697352542.7,-0.18,-0.54,1.25,0.5,2.4,-46.8,0.68,-0,0.01,0.73
1697352542.71,-0.18,-0.54,1.25,0.5,2.4,-46.8,0.68,-0,0.01,0.73
1697352542.72,-0.18,-0.54,1.25,0.5,2.4,-46.8,0.68,-0,0.01,0.73
1697352542.73,-0.18,-0.54,1.25,0.5,2.4,-46.8,0.68,-0,0.01,0.73
1697352542.74,-0.18,-0.54,1.25,0.5,2.4,-46.8,0.68,-0,0.01,0.73
1697352542.75,-0.18,-0.54,1.25,0.5,2.4,-46.8,0.68,-0,0.01,0.73
1697352542.76,-0.18,-0.54,1.25,0.5,2.4,-46.8,0.68,-0,0.01,0.73
1697352542.77,-0.18,-0.54,1.25,0.5,2.4,-46.8,0.68,-0,0.01,0.73
1697352542.78,-0.18,-0.54,1.25,0.5,2.4,-46.8,0.68,-0,0.01,0.73
1697352542.79,-0.18,-0.54,1.25,0.5,2.4,-46.8,0.68,-0,0.01,0.73
1697352542.8,-0.18,-0.54,1.25,0.5,2.4,-46.8,0.68,-0,0.01,0.73
1697352542.81,-0.18,-0.54,1.25,0.5,2.4,-46.8,0.72,-0,0.01,0.7
1697352542.82,-0.1,-0.34,1.11,-1.7,-1.1,-46.7,0.72,-0,0.01,0.69
1697352542.83,-0.09,-0.38,1.03,-0.7,0.8,-46.1,0.73,-0,0.01,0.69
1697352542.84,-0.09,-0.38,1.03,-0.7,0.8,-46.1,0.73,-0,0.01,0.69
1697352542.85,-0.15,-0.43,1.02,-0.9,2,-45.9,0.73,-0,0.01,0.68
1697352542.86,-0.12,-0.45,1.08,-0.5,2,-45.7,0.74,-0,0.01,0.68
1697352542.87,-0.12,-0.42,1.13,0.2,1.7,-45.2,0.74,-0,0.01,0.68
1697352542.88,-0.12,-0.42,1.13,0.2,1.7,-45.2,0.74,-0,0.01,0.67
1697352542.89,-0.02,-0.45,1.03,1.1,0.8,-45.2,0.74,-0,0.01,0.67
1697352542.9,-0.02,-0.45,1.03,0.3,0.3,-45.1,0.74,-0,0.01,0.67
1697352542.91,-0.13,-0.57,0.66,-1,0.8,-45,0.75,-0,0.01,0.67
1697352542.92,-0.13,-0.4,1.23,-2.1,0.7,-44.5,0.75,-0,0.01,0.66
1697352542.93,-0.01,-0.32,0.99,-2,0.6,-44,0.75,-0,0.01,0.66
1697352542.94,0.13,-0.42,0.91,-1.3,-0.1,-43.6,0.75,-0,0.01,0.66
1697352542.95,0.09,-0.35,0.94,-0.4,-0.3,-43.1,0.76,-0,0.01,0.65
1697352542.96,0,-0.36,0.73,0.8,0.6,-42.9,0.76,-0,0.01,0.65
1697352542.97,-0.08,-0.45,0.88,1.5,1.4,-43.5,0.76,-0,0.01,0.65
1697352542.98,-0.05,-0.46,0.92,0.7,2,-43.9,0.76,-0,0.01,0.64
1697352542.99,0,-0.41,1.04,-0.2,2.4,-43.9,0.77,-0.01,0.01,0.64
1697352543,-0.06,-0.48,1.21,0.4,2,-44.7,0.77,-0.01,0.01,0.64
1697352543.01,0.03,-0.39,1.15,0.6,2,-44.9,0.77,-0.01,0.01,0.63
1697352543.02,0.09,-0.41,1.04,1.3,0.9,-45.2,0.78,-0.01,0.01,0.63
1697352543.03,0.05,-0.49,0.95,1.3,0.5,-45.3,0.78,-0.01,0.01,0.63
1697352543.04,0.05,-0.42,0.93,1.2,-0.2,-45.5,0.78,-0.01,0.01,0.63
1697352543.05,0.07,-0.46,0.81,1.2,-0.2,-45.5,0.78,-0.01,0.01,0.63
1697352543.06,0.11,-0.47,0.88,-0.8,-2.2,-45.8,0.79,-0.01,0.01,0.62
1697352543.07,-0.01,-0.43,0.88,-1.6,-2.5,-46,0.79,-0.01,0.01,0.62
1697352543.08,0.04,-0.45,1.07,-2.6,-2.9,-46.2,0.79,-0.01,0.01,0.62
1697352543.09,-0.01,-0.4,1.21,-1.9,-2.9,-46.3,0.79,-0.01,0.01,0.61
1697352543.1,0.09,-0.42,1.03,-0.8,-2.4,-46,0.79,-0.01,0.01,0.61
1697352543.11,-0.07,-0.38,1.23,0.2,-1.7,-45.7,0.8,-0.01,0.01,0.6
1697352543.12,0.03,-0.41,1.01,0.3,-1,-45.5,0.8,-0,0.01,0.6
1697352543.13,0.03,-0.41,1.01,0.3,-1,-45.5,0.8,-0,0.01,0.6
1697352543.14,0.07,-0.43,0.94,-0.2,0.4,-44.6,0.81,-0.01,0.01,0.59
1697352543.15,0.07,-0.43,0.94,-0.2,0.4,-44.6,0.81,-0.01,0.01,0.59
1697352543.16,-0.09,-0.5,1.1,0,1,-44.2,0.81,-0.01,0.01,0.59
1697352543.17,-0.09,-0.5,1.1,1.9,1.7,-45.1,0.81,-0.01,0.01,0.59
1697352543.18,-0.21,-0.46,1.75,0.9,2.7,-44.2,0.81,-0.01,0.01,0.58
1697352543.19,0.11,-0.51,0.89,2.8,3.8,-45.7,0.81,-0.01,0.01,0.58
1697352543.2,-0.04,-0.57,1.14,0.6,3.7,-46.4,0.82,-0.01,0.01,0.58
1697352543.21,-0.04,-0.57,1.14,0.6,3.7,-46.4,0.82,-0.01,0.01,0.58
1697352543.22,-0.04,-0.57,1.14,0.6,3.7,-46.4,0.82,-0.01,0.01,0.58
1697352543.23,-0.04,-0.57,1.14,0.6,3.7,-46.4,0.82,-0.01,0.01,0.58
1697352543.24,-0.04,-0.57,1.14,0.6,3.7,-46.4,0.82,-0.01,0.01,0.58
1697352543.25,-0.04,-0.57,1.14,0.6,3.7,-46.4,0.82,-0.01,0.01,0.58
1697352543.26,-0.04,-0.57,1.14,0.6,3.7,-46.4,0.82,-0.01,0.01,0.58
1697352543.27,-0.04,-0.57,1.14,0.6,3.7,-46.4,0.82,-0.01,0.01,0.58
1697352543.28,-0.04,-0.57,1.14,0.6,3.7,-46.4,0.82,-0.01,0.01,0.58
1697352543.29,-0.04,-0.57,1.14,0.6,3.7,-46.4,0.82,-0.01,0.01,0.58
1697352543.3,-0.04,-0.57,1.14,0.6,3.7,-46.4,0.82,-0.01,0.01,0.58
1697352543.31,-0.04,-0.57,1.14,0.6,3.7,-46.4,0.82,-0.01,0.01,0.58
1697352543.32,-0.04,-0.57,1.14,0.6,3.7,-46.4,0.82,-0.01,0.01,0.58
1697352543.33,-0.04,-0.57,1.14,0.6,3.7,-46.4,0.82,-0.01,0.01,0.58
1697352543.34,-0.04,-0.57,1.14,0.6,3.7,-46.4,0.82,-0.01,0.01,0.58
1697352543.35,-0.04,-0.57,1.14,0.6,3.7,-46.4,0.82,-0.01,0.01,0.58
1697352543.36,-0.04,-0.57,1.14,0.6,3.7,-46.4,0.82,-0.01,0.01,0.58
1697352543.37,-0.04,-0.57,1.14,0.6,3.7,-46.4,0.82,-0.01,0.01,0.58
1697352543.38,-0.04,-0.57,1.14,0.6,3.7,-46.4,0.82,-0.01,0.01,0.58
1697352543.39,-0.04,-0.57,1.14,0.6,3.7,-46.4,0.82,-0.01,0.01,0.58
1697352543.4,-0.04,-0.57,1.14,0.6,3.7,-46.4,0.82,-0.01,0.01,0.58
1697352543.41,-0.04,-0.57,1.14,0.6,3.7,-46.4,0.82,-0.01,0.01,0.58
1697352543.42,-0.04,-0.57,1.14,0.6,3.7,-46.4,0.82,-0.01,0.01,0.58
1697352543.43,-0.04,-0.57,1.14,0.6,3.7,-46.4,0.82,-0.01,0.01,0.58
1697352543.44,-0.04,-0.57,1.14,0.6,3.7,-46.4,0.82,-0.01,0.01,0.58
1697352543.45,-0.04,-0.57,1.14,0.6,3.7,-46.4,0.82,-0.01,0.01,0.58
1697352543.46,-0.04,-0.57,1.14,0.6,3.7,-46.4,0.82,-0.01,0.01,0.58
1697352543.47,-0.04,-0.57,1.14,0.6,3.7,-46.4,0.82,-0.01,0.01,0.58
1697352543.48,-0.04,-0.57,1.14,0.6,3.7,-46.4,0.82,-0.01,0.01,0.58
1697352543.49,-0.04,-0.57,1.14,0.6,3.7,-46.4,0.82,-0.01,0.01,0.58
1697352543.5,-0.04,-0.57,1.14,0.6,3.7,-46.4,0.82,-0.01,0.01,0.58
1697352543.51,-0.04,-0.57,1.14,0.6,3.7,-46.4,0.82,-0.01,0.01,0.58
1697352543.52,-0.04,-0.57,1.14,3.6,2.3,-47.2,0.89,-0,0,0.47
1697352543.53,0.05,-0.66,1.19,3.5,2.3,-47.5,0.89,-0,0,0.46
1697352543.54,0.09,-0.59,0.69,1.3,2.1,-48.5,0.89,-0,0,0.46
1697352543.55,0.05,-0.54,0.81,-0.3,1.9,-48.8,0.89,-0,0,0.45
1697352543.56,0.01,-0.35,1.4,-1,1.4,-49.1,0.89,-0,0,0.45
1697352543.57,0.13,-0.37,1.25,0,1.2,-48.9,0.9,-0,0,0.45
1697352543.58,0.13,-0.35,1.35,2.2,1,-48.9,0.9,-0,0.01,0.44
1697352543.59,0.03,-0.39,1.19,3.9,0.3,-48.9,0.9,-0,0.01,0.44
1697352543.6,0.07,-0.68,0.65,4.4,-0.3,-48.8,0.9,-0,0.01,0.43
1697352543.61,0.13,-0.63,0.63,2.2,-0.7,-49.1,0.9,-0,0.01,0.43
1697352543.62,0.02,-0.59,1.16,-0.3,-1.3,-49.2,0.9,-0,0.01,0.43
1697352543.63,0.12,-0.45,1.12,-1.9,-2.4,-49.2,0.91,-0,0,0.42
1697352543.64,0.12,-0.4,0.92,0.2,-3,-49.6,0.91,-0,0,0.42
1697352543.65,0.07,-0.52,1.11,0.3,-2.4,-49.4,0.91,-0,0,0.41
1697352543.66,0.1,-0.57,1.25,-1.7,-1,-49.3,0.91,-0,0,0.41
1697352543.67,0.04,-0.59,0.93,-5.4,0.9,-49.3,0.91,-0,0,0.41
1697352543.68,-0.01,-0.55,0.92,-7.6,2.6,-49.2,0.91,-0,0,0.41
1697352543.69,0.14,-0.41,0.92,-8.2,4.6,-48.9,0.92,-0.01,0,0.4
1697352543.7,0,-0.34,1.41,-8.2,4.6,-48.9,0.92,-0.01,0,0.4
1697352543.71,0.25,-0.23,0.8,-3,6.3,-48.5,0.92,-0.01,0,0.39
1697352543.72,0.29,-0.39,0.46,0.3,6,-49.4,0.92,-0.01,0,0.39
1697352543.73,0.25,-0.71,0.67,0.1,5.6,-48.6,0.92,-0.01,0.01,0.38
1697352543.74,0.2,-0.57,0.87,1,4.5,-49.4,0.93,-0.01,0.01,0.38
1697352543.75,0.23,-0.75,0.64,0.3,3.4,-50,0.93,-0.01,0.01,0.37
1697352543.76,0.23,-0.75,0.64,0.3,3.4,-50,0.93,-0.01,0.01,0.37
1697352543.77,0.12,-0.65,0.48,2.1,0.6,-49.6,0.93,-0.01,0.01,0.37
1697352543.78,0.14,-0.47,1.3,2.1,0.6,-49.6,0.93,-0.01,0.01,0.37
1697352543.79,0.14,-0.47,1.3,2.1,0.6,-49.6,0.93,-0.01,0.01,0.37
1697352543.8,0.12,-0.6,0.7,1.9,-0.5,-48.2,0.93,-0.01,0.01,0.36
1697352543.81,0.14,-0.61,0.89,1.9,0.1,-48.2,0.94,-0.01,0.01,0.35
1697352543.82,0.12,-0.54,0.99,2.3,1.2,-48.8,0.94,-0.01,0.01,0.34
1697352543.83,-0.1,-0.43,0.84,2.3,1.2,-48.8,0.94,-0.01,0.01,0.34
1697352543.84,-0.01,-0.51,1.05,4.2,3.9,-49.4,0.94,-0.01,0.01,0.34
1697352543.85,0.05,-0.47,0.61,4.2,3.9,-49.4,0.94,-0.01,0.01,0.34
1697352543.86,-0.04,-0.49,1.38,5.6,5.8,-50.2,0.94,-0.01,0.01,0.33
1697352543.87,0.06,-0.61,1.42,4.3,5.8,-50.4,0.94,-0.01,0.01,0.33
1697352543.88,0.06,-0.61,1.42,4.3,5.8,-50.4,0.95,-0.01,0.01,0.32
1697352543.89,0.09,-0.5,1.16,2,5.2,-50.4,0.95,-0.01,0.01,0.32
1697352543.9,0.19,-0.58,1.06,-0.2,3.9,-49.7,0.95,-0.01,0.01,0.31
1697352543.91,0.24,-0.44,0.85,-1.3,2.3,-49.2,0.95,-0.01,0.01,0.31
1697352543.92,0.24,-0.44,0.85,-1.3,2.3,-49.2,0.95,-0.01,0.01,0.31
1697352543.93,0.24,-0.44,0.85,-1.3,2.3,-49.2,0.95,-0.01,0.01,0.31
1697352543.94,0.24,-0.44,0.85,-1.3,2.3,-49.2,0.95,-0.01,0.01,0.31
1697352543.95,0.24,-0.44,0.85,-1.3,2.3,-49.2,0.95,-0.01,0.01,0.31
1697352543.96,0.24,-0.44,0.85,-1.3,2.3,-49.2,0.95,-0.01,0.01,0.31
1697352543.97,0.24,-0.44,0.85,-1.3,2.3,-49.2,0.95,-0.01,0.01,0.31
1697352543.98,0.24,-0.44,0.85,-1.3,2.3,-49.2,0.95,-0.01,0.01,0.31
1697352543.99,0.24,-0.44,0.85,-1.3,2.3,-49.2,0.95,-0.01,0.01,0.31
1697352544,0.24,-0.44,0.85,-1.3,2.3,-49.2,0.95,-0.01,0.01,0.31
1697352544.01,0.24,-0.44,0.85,-1.3,2.3,-49.2,0.95,-0.01,0.01,0.31
1697352544.02,0.24,-0.44,0.85,-1.3,2.3,-49.2,0.95,-0.01,0.01,0.31
1697352544.03,0.24,-0.44,0.85,-1.3,2.3,-49.2,0.95,-0.01,0.01,0.31
1697352544.04,0.01,-0.47,1.18,1.2,2,-47.9,0.97,-0.01,0.01,0.26
1697352544.05,0.03,-0.49,1.34,1.1,2.1,-48.3,0.97,-0.01,0.01,0.26
1697352544.06,0.15,-0.34,1.06,0.7,1.6,-48,0.97,-0.01,0.01,0.25
1697352544.07,0.11,-0.36,0.78,0.8,0.7,-47.3,0.97,-0.01,0.01,0.25
1697352544.08,0.26,-0.37,0.58,1.5,-0.4,-45.7,0.97,-0.01,0.01,0.24
1697352544.09,0.23,-0.53,0.85,1.9,-1,-44.3,0.97,-0.01,0.01,0.24
1697352544.1,0.23,-0.53,0.85,1.9,-1,-44.3,0.97,-0.01,0.01,0.24
1697352544.11,0.19,-0.48,0.85,-1.1,-2.3,-41.1,0.97,-0.01,0.01,0.23
1697352544.12,0.22,-0.45,1.05,-0.6,-2.3,-40.5,0.97,-0.01,0.01,0.23
1697352544.13,0.22,-0.45,1.05,-0.6,-2.3,-40.5,0.97,-0.01,0.01,0.23
1697352544.14,0.09,-0.42,0.83,1.6,-0.5,-39.9,0.97,-0.01,0.01,0.22
1697352544.15,0.09,-0.42,0.83,1.6,-0.5,-39.9,0.98,-0.01,0.01,0.22
1697352544.16,0.07,-0.41,1.26,0.9,1.5,-40.2,0.98,-0.01,0.01,0.22
1697352544.17,0.07,-0.41,1.26,0.9,1.5,-40.2,0.98,-0.01,0.01,0.21
1697352544.18,0.13,-0.38,1.03,-1,2.4,-40,0.98,-0.01,0.01,0.21
1697352544.19,0.11,-0.21,1.14,-1,3,-39.4,0.98,-0.01,0.01,0.21
1697352544.2,0.11,-0.1,0.95,0,3.5,-38.2,0.98,-0.01,0.01,0.2
1697352544.21,0.24,-0.21,0.9,0.6,3.1,-37,0.98,-0.01,0.01,0.2
1697352544.22,0.21,-0.12,1.3,0.2,3,-35.3,0.98,-0.01,0.01,0.2
1697352544.23,0.19,-0.23,0.85,-0.4,2.5,-33.4,0.98,-0.01,0.01,0.19
1697352544.24,0.21,-0.17,1.09,-0.5,2.5,-31.8,0.98,-0.01,0.01,0.19
1697352544.25,0.14,-0.14,0.76,-0.4,2.4,-31.5,0.98,-0.01,0.01,0.19
1697352544.26,0.13,-0.19,0.86,0,2.3,-29.7,0.98,-0.01,0.01,0.19
1697352544.27,0.16,-0.07,1.06,0.4,2.4,-26.2,0.98,-0.01,0.01,0.18
1697352544.28,0.16,-0.08,0.84,0.9,2.2,-24.5,0.98,-0.01,0.01,0.18
1697352544.29,0.11,-0.16,1.11,1.4,2.5,-23.1,0.98,-0.01,0.01,0.18
1697352544.3,0.18,0.01,0.86,1.3,2.5,-21.5,0.98,-0.01,0.01,0.18
1697352544.31,0.17,-0.07,0.78,1.5,2.8,-20.1,0.98,-0.01,0.01,0.17
1697352544.32,0.24,-0.08,1.12,1.5,2.6,-18.8,0.98,-0.01,0.01,0.17
1697352544.33,0.23,-0.06,0.85,2.1,2.1,-17.6,0.99,-0.01,0.01,0.17
1697352544.34,0.29,0.02,0.86,3.4,1.6,-16.1,0.99,-0.01,0.01,0.17
1697352544.35,0.29,0.02,0.86,3.4,1.6,-16.1,0.99,-0.01,0.01,0.17
1697352544.36,0.24,0.09,1.02,2.9,0.5,-13.5,0.99,-0.01,0.01,0.17
1697352544.37,0.24,0.09,1.02,2.9,0.5,-13.5,0.99,-0.01,0.01,0.17
1697352544.38,0.11,0.03,0.91,3.9,0.8,-10.1,0.99,-0,0,0.16
1697352544.39,0.11,0.03,0.91,3.9,0.8,-10.1,0.99,-0,0,0.16
1697352544.4,0.17,0.09,0.89,3.3,1.9,-6.4,0.99,-0,0,0.16
1697352544.41,0.17,0.09,0.89,3.3,1.9,-6.4,0.99,-0,0.01,0.16
1697352544.42,0.09,0.1,1.07,2.6,1.6,-4.5,0.99,-0,0.01,0.16
1697352544.43,0.09,0.1,1.07,1.2,2.2,-3.1,0.99,-0,0.01,0.16
1697352544.44,0.09,0.1,1.07,1.2,2.2,-3.1,0.99,-0,0.01,0.16
1697352544.45,0.09,0.1,1.07,1.2,2.2,-3.1,0.99,-0,0.01,0.16
1697352544.46,0.09,0.1,1.07,1.2,2.2,-3.1,0.99,-0,0.01,0.16
1697352544.47,0.09,0.1,1.07,1.2,2.2,-3.1,0.99,-0,0.01,0.16
1697352544.48,0.09,0.1,1.07,1.2,2.2,-3.1,0.99,-0,0.01,0.16
1697352544.49,0.09,0.1,1.07,1.2,2.2,-3.1,0.99,-0,0.01,0.16
1697352544.5,0.09,0.1,1.07,1.2,2.2,-3.1,0.99,-0,0.01,0.16
1697352544.51,0.09,0.1,1.07,1.2,2.2,-3.1,0.99,-0,0.01,0.16
1697352544.52,0.09,0.1,1.07,1.2,2.2,-3.1,0.99,-0,0.01,0.16
1697352544.53,0.09,0.1,1.07,1.2,2.2,-3.1,0.99,-0,0.01,0.16
1697352544.54,0.09,0.1,1.07,1.2,2.2,-3.1,0.99,-0,0.01,0.16
1697352544.55,0.09,0.1,1.07,1.2,2.2,-3.1,0.99,-0,0.01,0.16
1697352544.56,0.12,0.11,1.14,0,1,6.7,0.99,-0,0.01,0.17
1697352544.57,0.1,0.21,0.96,-1.2,0.4,7.1,0.99,-0,0.01,0.17
1697352544.58,0.11,0.16,1.28,-1.2,-0.4,8.2,0.99,-0,0.01,0.17
1697352544.59,0.14,0.12,0.89,-1.5,0,8.3,0.99,-0,0.01,0.17
1697352544.6,0.19,0.24,0.67,0.5,0,8.3,0.99,0,0.01,0.17
1697352544.61,0.1,0.15,0.99,2.4,-0.2,8.3,0.99,0,0.01,0.17
1697352544.62,0.04,0.01,1.19,2.5,-0.3,7.7,0.99,0,0.01,0.17
1697352544.63,0.21,0.06,0.99,2.4,-0.2,7.1,0.99,0,0.01,0.17
1697352544.64,0.14,-0.06,1.12,0.7,-0.2,6.6,0.99,0,0.01,0.17
1697352544.65,0.04,-0.04,1.12,-0.1,-0.3,6.6,0.99,0,0,0.17
1697352544.66,0.19,0.14,0.86,-3.7,-0.4,6.3,0.99,0,0,0.17
1697352544.67,0.21,0.29,1.06,-4,-0.3,6.1,0.99,0,0,0.17
1697352544.68,0.14,0.19,0.99,-2.2,-0.4,6.3,0.98,0,0,0.17
1697352544.69,0.11,0.14,1.18,0.8,-0.6,6.7,0.98,0,0,0.17
1697352544.7,0.15,0.03,0.87,2.9,-0.5,6.9,0.98,0,0,0.17
1697352544.71,0.05,-0.06,1.18,2.5,-0.8,7,0.98,0,0,0.18
1697352544.72,0.17,-0.06,1.06,0.6,-1.2,6.5,0.98,0,0,0.18
1697352544.73,0.17,-0.06,1.06,0.6,-1.2,6.5,0.98,0,0,0.18
1697352544.74,0.07,0.09,1.05,-1.1,-0.8,5.9,0.98,0,0,0.18
1697352544.75,0.07,0.09,1.05,-1.1,-0.8,5.9,0.98,0,0,0.18
1697352544.76,0.06,0.04,1,1.7,0,5.5,0.98,0,0,0.18
1697352544.77,0.06,0.04,1,1.7,0,5.5,0.98,0,0,0.18
1697352544.78,0.21,-0.05,1.3,3,0.2,5.4,0.98,0,0,0.18
1697352544.79,0.08,0.01,0.73,1.6,0.5,5.1,0.98,0,0,0.18
1697352544.8,0.08,0.01,0.73,-0.3,1.3,5,0.98,0,0,0.18
1697352544.81,0.11,0.06,0.78,-1.1,1.5,4.5,0.98,0,0,0.18
1697352544.82,0.24,0.11,1.28,-1.7,1.1,4.2,0.98,0,0,0.18
1697352544.83,0.01,0,1.08,-1.2,0.5,4.3,0.98,0,0,0.18
1697352544.84,0.14,0.13,0.91,-0.7,0,4.4,0.98,0,0,0.18
1697352544.85,0.14,-0.05,0.96,-1.9,-0.9,3.9,0.98,0,0,0.18
1697352544.86,0.15,-0.03,1.16,-3.3,-1.5,3.9,0.98,0,0,0.18
1697352544.87,0.21,-0.06,0.87,-4.1,-2.6,3.8,0.98,0,0,0.18
1697352544.88,0.19,0.18,0.98,-3.3,-3,4,0.98,0,0,0.18
1697352544.89,0.17,0.2,0.78,-0.7,-3,4,0.98,0,0,0.18
1697352544.9,0.17,0.12,1.15,0.8,-2.8,4.3,0.98,0,0,0.18
1697352544.91,0.11,0.02,1.2,1.5,-2,4.5,0.98,0,-0,0.18
1697352544.92,0.11,-0.05,0.9,1.7,-1.2,4.6,0.98,0,-0,0.18
1697352544.93,0.01,-0.02,1.14,0.9,-0.6,4.7,0.98,0,-0,0.18
1697352544.94,0.18,-0.03,1.2,0.9,-0.6,4.7,0.98,0,-0,0.18
1697352544.95,0.18,-0.03,1.2,0.9,-0.6,4.7,0.98,0,-0,0.18
1697352544.96,0.18,-0.03,1.2,0.9,-0.6,4.7,0.98,0,-0,0.18
1697352544.97,0.18,-0.03,1.2,0.9,-0.6,4.7,0.98,0,-0,0.18
1697352544.98,0.18,-0.03,1.2,0.9,-0.6,4.7,0.98,0,-0,0.18
1697352544.99,0.18,-0.03,1.2,0.9,-0.6,4.7,0.98,0,-0,0.18
1697352545,0.18,-0.03,1.2,0.9,-0.6,4.7,0.98,0,-0,0.18
1697352545.01,0.18,-0.03,1.2,0.9,-0.6,4.7,0.98,0,-0,0.18
1697352545.02,0.18,-0.03,1.2,0.9,-0.6,4.7,0.98,0,-0,0.18
1697352545.03,0.18,-0.03,1.2,0.9,-0.6,4.7,0.98,0,-0,0.18
1697352545.04,0.18,-0.03,1.2,0.9,-0.6,4.7,0.98,0,-0,0.18
1697352545.05,0.18,-0.03,1.2,0.9,-0.6,4.7,0.98,0,-0,0.18
1697352545.06,0.18,-0.03,1.2,0.9,-0.6,4.7,0.98,0,-0,0.18
1697352545.07,0.18,-0.03,1.2,0.9,-0.6,4.7,0.98,0,-0,0.18
1697352545.08,-0,0.16,0.95,-0.6,1.9,4.5,0.98,0,-0,0.19
1697352545.09,0.01,0.02,1.21,-0.2,2.9,4.9,0.98,0,-0,0.19
1697352545.1,0.03,0.01,0.99,-0.2,2.9,4.9,0.98,0,-0,0.19
1697352545.11,-0.02,0.04,1,-2.3,4.1,6.1,0.98,0,-0,0.19
1697352545.12,0.03,0.12,0.96,-2.3,4.1,6.1,0.98,0,-0,0.19
1697352545.13,0.03,-0.05,1.27,-2.1,3.7,7,0.98,0,-0,0.19
1697352545.14,0.03,-0.05,1.27,0.7,2.7,6.7,0.98,0,-0,0.19
1697352545.15,0.03,-0.01,0.88,1,2,6.2,0.98,0,0,0.19
1697352545.16,0.03,0.24,0.91,1,0.5,5.6,0.98,0,0,0.19
1697352545.17,0.03,0.24,0.91,2,0,5.8,0.98,0,0,0.19
1697352545.18,0.02,0.04,1.18,3.7,0.4,5.2,0.98,0,0,0.19
1697352545.19,0.06,0.05,0.45,4.5,-0.1,4.3,0.98,0,0,0.19
1697352545.2,-0.14,-0.07,1.3,1.6,-0.4,4.7,0.98,0,0,0.2
1697352545.21,0.11,0.06,0.93,0.5,-1.3,4.8,0.98,0,0,0.2
1697352545.22,0.09,0.03,0.69,-0.7,-1.4,4.5,0.98,0,0,0.2
1697352545.23,-0.14,0.24,0.91,-2.4,-0.6,4.8,0.98,0,0,0.2
1697352545.24,0.03,0.15,1.33,-2.2,0.3,5.5,0.98,0,0,0.2
1697352545.25,0.19,0.21,1.16,-1,0.6,5.8,0.98,0,0,0.2
1697352545.26,-0,0.14,0.92,-0.6,0.8,5.8,0.98,0,0,0.2
1697352545.27,0.14,-0.04,1.12,1,0.7,5.3,0.98,0,0,0.2
1697352545.28,0.14,0.08,0.39,0.5,0.9,5.4,0.98,0,0,0.2
1697352545.29,-0.18,0.11,1.24,-0.8,1.3,5.5,0.98,0,0,0.2
1697352545.3,0.02,0.03,1.15,-1.9,1.1,5,0.98,0,0,0.2
1697352545.31,0.14,0.11,0.84,-1.1,1.3,5.1,0.98,0,0,0.2
1697352545.32,0.03,0.13,0.73,-0.8,1.4,5.5,0.98,0,0,0.2
1697352545.33,-0.01,0.09,1.07,-0.6,1.7,6,0.98,0,0,0.2
1697352545.34,0.08,-0.04,1.35,0.8,1.3,6.2,0.98,0,0,0.2
1697352545.35,0.12,0.04,1.01,1.4,0.9,6.5,0.98,0,0,0.2
1697352545.36,0.03,0.25,1.22,1.4,0.9,6.5,0.98,0,0,0.2
1697352545.37,0.03,0.25,1.22,-0.5,0.3,6.4,0.98,0,0,0.2
1697352545.38,0.06,0.14,1.32,2.6,-0.2,6.5,0.98,0,0,0.2
1697352545.39,0.1,0.01,0.82,3.4,-0.4,6.9,0.98,0,0,0.2
1697352545.4,0.1,0.01,0.82,3.4,-0.4,6.9,0.98,0,0,0.2
1697352545.41,0.03,0.14,1.4,2.9,-0.5,6.9,0.98,0,0,0.21
1697352545.42,0.03,0.17,0.83,2,-0.5,7.1,0.98,0,0,0.21
1697352545.43,-0.15,0.22,1.26,-5.2,0.8,9.5,0.98,0,0,0.21
1697352545.44,-0.15,0.22,1.26,-5.2,0.8,9.5,0.98,0,0,0.21
1697352545.45,-0.01,0.49,1.29,-2.9,1.1,11,0.98,0,0,0.21
1697352545.46,-0.01,0.49,1.29,-2.9,1.1,11,0.98,0,0,0.21
1697352545.47,-0.01,0.49,1.29,-2.9,1.1,11,0.98,0,0,0.21
1697352545.48,-0.01,0.49,1.29,-2.9,1.1,11,0.98,0,0,0.21
1697352545.49,-0.01,0.49,1.29,-2.9,1.1,11,0.98,0,0,0.21
1697352545.5,-0.01,0.49,1.29,-2.9,1.1,11,0.98,0,0,0.21
1697352545.51,-0.01,0.49,1.29,-2.9,1.1,11,0.98,0,0,0.21
1697352545.52,-0.01,0.49,1.29,-2.9,1.1,11,0.98,0,0,0.21
1697352545.53,-0.01,0.49,1.29,-2.9,1.1,11,0.98,0,0,0.21
1697352545.54,-0.01,0.49,1.29,-2.9,1.1,11,0.98,0,0,0.21
1697352545.55,-0.01,0.49,1.29,-2.9,1.1,11,0.98,0,0,0.21
1697352545.56,-0.01,0.49,1.29,-2.9,1.1,11,0.98,0,0,0.21
1697352545.57,-0.01,0.49,1.29,-2.9,1.1,11,0.98,0,0,0.21
1697352545.58,0.15,0.54,1.46,4,-5.7,28.4,0.97,0.01,-0,0.23
1697352545.59,0.23,0.64,0.68,3.8,-5.7,30.1,0.97,0.01,-0,0.23
1697352545.6,0.24,0.59,0.46,3,-5.8,31.5,0.97,0.01,-0,0.23
1697352545.61,0.1,0.6,1.5,2.7,-6.4,32.1,0.97,0.01,-0,0.24
1697352545.62,0.22,0.6,0.42,1.4,-6.2,32.3,0.97,0.01,-0,0.24
1697352545.63,0.04,0.41,1.32,1.4,-6.2,32.3,0.97,0.01,-0,0.24
1697352545.64,0.15,0.42,1.04,-1,-5.4,32.1,0.97,0.01,-0,0.24
1697352545.65,0.22,0.53,0.43,-3.8,-4.6,31.6,0.97,0.01,-0.01,0.25
1697352545.66,0.05,0.64,0.98,-5.1,-3.6,31.2,0.97,0.01,-0.01,0.25
1697352545.67,0.07,0.61,1.57,-4.4,-2.5,31.5,0.97,0.01,-0.01,0.25
1697352545.68,0.07,0.51,0.76,-1.7,-1.1,31.3,0.97,0.01,-0.01,0.26
1697352545.69,0.1,0.39,0.71,-0.3,0,31.3,0.97,0.01,-0.01,0.26
1697352545.7,0.14,0.15,1.44,0.5,1.3,30.8,0.97,0.01,-0.01,0.26
1697352545.71,0.03,0.09,1.27,-0.7,2,29.9,0.96,0.01,-0.01,0.26
1697352545.72,0.04,0.07,1.41,-3.2,2.3,28.5,0.96,0.01,-0.01,0.27
1697352545.73,0.19,0.09,0.92,-4.4,2.5,27.2,0.96,0.01,-0.01,0.27
1697352545.74,0.08,0.15,0.62,-5,2.2,25.8,0.96,0,-0.01,0.27
1697352545.75,0.04,0.15,1.21,-4.1,1.5,24.4,0.96,0,-0.01,0.27
1697352545.76,0.11,0.18,1.09,-2.6,1.2,22.5,0.96,0,-0.01,0.28
1697352545.77,0.02,0.12,0.47,-0.7,1,20.9,0.96,0,-0.01,0.28
1697352545.78,-0.15,0.03,1.41,0.5,1.2,19.2,0.96,0,-0.01,0.28
1697352545.79,0.01,-0.04,0.96,1,1.5,17.3,0.96,0,-0.01,0.28
1697352545.8,-0.08,0.17,0.36,1,1.5,17.3,0.96,0,-0.01,0.28
1697352545.81,-0.13,0.09,1.39,-0.1,1.8,15.4,0.96,0,-0,0.28
1697352545.82,-0.13,0.09,1.39,-0.1,1.8,15.4,0.96,0,-0,0.28
1697352545.83,0.13,0.17,0.64,-0.1,2.1,14.8,0.96,0,-0,0.28
1697352545.84,-0.06,0.19,0.86,1.3,2.2,15,0.96,0,-0,0.29
1697352545.85,-0.06,0.19,0.86,1.3,2.2,15,0.96,0,-0,0.29
1697352545.86,0.03,0.14,0.88,0.7,2,15.3,0.96,0,-0,0.29
1697352545.87,0.03,0.14,0.88,0.1,1.3,15.3,0.96,0,-0,0.29
1697352545.88,0.12,0.27,0.57,-0.6,0.2,15.8,0.96,0,-0,0.29
1697352545.89,-0.02,0.29,1.25,-0.8,-1.2,16.1,0.96,0,-0,0.29
1697352545.9,-0.08,0.26,1.43,0.2,-2.4,16.4,0.96,0,-0,0.29
1697352545.91,-0.12,0.24,0.98,1.4,-3.4,17.2,0.96,0,-0,0.3
1697352545.92,-0.02,0.19,1.27,1.4,-3.2,17.6,0.95,0,-0.01,0.3
1697352545.93,-0.01,0.26,0.55,1.6,-2.4,18,0.95,0,-0.01,0.3
1697352545.94,-0.13,0.26,1.65,2,-0.8,18.4,0.95,0.01,-0.01,0.3
1697352545.95,0.05,0.29,0.55,2.5,0.9,18.3,0.95,0.01,-0.01,0.3
1697352545.96,0.02,0.36,0.9,1.4,1.7,18.7,0.95,0.01,-0.01,0.3
1697352545.97,0.02,0.36,0.9,1.4,1.7,18.7,0.95,0.01,-0.01,0.3
1697352545.98,0.02,0.36,0.9,1.4,1.7,18.7,0.95,0.01,-0.01,0.3
1697352545.99,0.02,0.36,0.9,1.4,1.7,18.7,0.95,0.01,-0.01,0.3
1697352546,0.02,0.36,0.9,1.4,1.7,18.7,0.95,0.01,-0.01,0.3
1697352546.01,0.02,0.36,0.9,1.4,1.7,18.7,0.95,0.01,-0.01,0.3
1697352546.02,0.02,0.36,0.9,1.4,1.7,18.7,0.95,0.01,-0.01,0.3
1697352546.03,0.02,0.36,0.9,1.4,1.7,18.7,0.95,0.01,-0.01,0.3
1697352546.04,0.02,0.36,0.9,1.4,1.7,18.7,0.95,0.01,-0.01,0.3
1697352546.05,0.02,0.36,0.9,1.4,1.7,18.7,0.95,0.01,-0.01,0.3
1697352546.06,0.02,0.36,0.9,1.4,1.7,18.7,0.95,0.01,-0.01,0.3
1697352546.07,0.02,0.36,0.9,1.4,1.7,18.7,0.95,0.01,-0.01,0.3
1697352546.08,0.02,0.36,0.9,1.4,1.7,18.7,0.95,0.01,-0.01,0.3
1697352546.09,0.02,0.36,0.9,1.4,1.7,18.7,0.95,0.01,-0.01,0.3
1697352546.1,0.02,0.36,0.9,1.4,1.7,18.7,0.95,0.01,-0.01,0.3
1697352546.11,0.02,0.36,0.9,1.4,1.7,18.7,0.95,0.01,-0.01,0.3
1697352546.12,0.02,0.36,0.9,1.4,1.7,18.7,0.95,0.01,-0.01,0.3
1697352546.13,0.02,0.36,0.9,1.4,1.7,18.7,0.95,0.01,-0.01,0.3
1697352546.14,0.02,0.36,0.9,1.4,1.7,18.7,0.95,0.01,-0.01,0.3
1697352546.15,0.02,0.36,0.9,1.4,1.7,18.7,0.95,0.01,-0.01,0.3
1697352546.16,0.02,0.36,0.9,1.4,1.7,18.7,0.95,0.01,-0.01,0.3
1697352546.17,0.02,0.36,0.9,1.4,1.7,18.7,0.95,0.01,-0.01,0.3
1697352546.18,-0.09,0.2,0.81,3.1,0.8,24.6,0.94,0,-0,0.34
1697352546.19,-0.09,0.2,0.81,1.4,-0.2,24.8,0.94,0,-0,0.34
1697352546.2,0,0.3,0.97,0.1,-1.2,25,0.94,0,-0,0.34
1697352546.21,-0.22,0.41,1.45,0.3,-1.6,25.1,0.94,0,-0,0.35
1697352546.22,-0.22,0.41,1.45,2.3,-0.9,25.2,0.94,0,-0,0.35
1697352546.23,0.06,0.31,0.88,4.1,-0.1,25.5,0.94,0,-0,0.35
1697352546.24,-0.06,0.27,0.49,4.4,1.1,25.5,0.93,0,-0,0.36
1697352546.25,-0.09,0.32,1.14,0.8,2,25.5,0.93,0,0,0.36
1697352546.26,0.03,0.35,0.92,-0.4,1.9,25.4,0.93,0,0,0.36
1697352546.27,0.04,0.45,0.91,-1.4,1.5,25.1,0.93,0,0,0.36
1697352546.28,-0.08,0.52,0.99,-1.4,1.5,25.1,0.93,0,0,0.36
1697352546.29,-0.18,0.46,1.2,-0.2,1.5,25,0.93,0,0,0.37
1697352546.3,-0.08,0.44,0.67,0.9,1.6,24.8,0.93,0,0,0.37
1697352546.31,-0.3,0.28,1.34,2.7,1.5,24.4,0.93,0,0,0.37
1697352546.32,-0.07,0.3,0.63,2.8,1.3,23.8,0.93,0,0,0.37
1697352546.33,-0.27,0.18,1.06,1.4,0.9,23.2,0.93,0,0,0.37
1697352546.34,-0.16,0.28,1.01,-0.6,0.9,22.3,0.93,0,0,0.37
1697352546.35,-0.14,0.37,0.78,-2.7,0,22.5,0.93,0,0,0.38
1697352546.36,0.01,0.53,1.04,-2.5,-0.1,22.9,0.93,0,0,0.38
1697352546.37,0.06,0.52,1.08,-1.5,-0.4,24.3,0.93,0,0,0.38
1697352546.38,-0.18,0.53,0.68,0,-0.2,25.7,0.92,0,0,0.38
1697352546.39,-0.12,0.53,1.03,0.9,0,27.3,0.92,0,0,0.38
1697352546.4,-0.04,0.48,1.33,1.7,0.6,28.8,0.92,0,0,0.39
1697352546.41,-0.04,0.48,1.33,1.7,0.6,28.8,0.92,0,0,0.39
1697352546.42,-0.04,0.63,0.51,4,2.6,32.1,0.92,0,0,0.39
1697352546.43,-0.19,0.58,1.28,4.6,3.4,33.9,0.92,0,0,0.39
1697352546.44,-0.05,0.6,0.92,4.7,3.7,35.9,0.92,0,0,0.4
1697352546.45,-0.14,0.87,0.9,4.7,3.7,35.9,0.92,0,0,0.4
1697352546.46,-0.2,0.94,1.13,4,3,39.1,0.92,0,0,0.4
1697352546.47,-0.18,1.01,1.11,4.8,2.3,41.7,0.91,0,0,0.41
1697352546.48,-0.13,0.82,0.99,7.9,1.3,46.5,0.91,0.01,0,0.41
1697352546.49,-0.19,0.65,1.05,7.9,1.3,46.5,0.91,0.01,0,0.41
1697352546.5,-0.27,0.77,1.08,6.7,1,48,0.91,0.01,0,0.42
1697352546.51,-0.27,0.77,1.08,3.6,0.4,49,0.91,0.01,0,0.42
1697352546.52,-0.14,0.99,0.97,1.5,-0.4,50.3,0.9,0.01,0,0.43
1697352546.53,-0.14,0.99,0.97,-0.4,-0.4,51.8,0.9,0.01,0,0.43
1697352546.54,-0.25,0.99,1.36,0.1,-0.9,53.1,0.9,0.01,0,0.43
1697352546.55,-0.25,0.99,1.36,2.4,-0.8,54.4,0.9,0.01,0,0.44
1697352546.56,-0.3,0.73,0.78,4.9,-0.1,55.1,0.9,0.01,0,0.44
1697352546.57,-0.3,0.73,0.78,5.4,0.9,55,0.9,0.01,0,0.44
1697352546.58,-0.3,0.73,0.78,5.4,0.9,55,0.9,0.01,0,0.44
1697352546.59,-0.3,0.73,0.78,5.4,0.9,55,0.9,0.01,0,0.44
1697352546.6,-0.3,0.73,0.78,5.4,0.9,55,0.9,0.01,0,0.44
1697352546.61,-0.3,0.73,0.78,5.4,0.9,55,0.9,0.01,0,0.44
1697352546.62,-0.3,0.73,0.78,5.4,0.9,55,0.9,0.01,0,0.44
1697352546.63,-0.3,0.73,0.78,5.4,0.9,55,0.9,0.01,0,0.44
1697352546.64,-0.3,0.73,0.78,5.4,0.9,55,0.9,0.01,0,0.44
1697352546.65,-0.3,0.73,0.78,5.4,0.9,55,0.9,0.01,0,0.44
1697352546.66,-0.3,0.73,0.78,5.4,0.9,55,0.9,0.01,0,0.44
1697352546.67,-0.3,0.73,0.78,5.4,0.9,55,0.9,0.01,0,0.44
1697352546.68,-0.3,0.73,0.78,5.4,0.9,55,0.9,0.01,0,0.44
1697352546.69,-0.3,0.73,0.78,5.4,0.9,55,0.9,0.01,0,0.44
1697352546.7,-0.3,0.73,0.78,5.4,0.9,55,0.9,0.01,0,0.44
1697352546.71,-0.3,0.73,0.78,5.4,0.9,55,0.9,0.01,0,0.44
1697352546.72,-0.3,0.73,0.78,5.4,0.9,55,0.9,0.01,0,0.44
1697352546.73,-0.3,0.73,0.78,5.4,0.9,55,0.9,0.01,0,0.44
1697352546.74,-0.3,0.73,0.78,5.4,0.9,55,0.9,0.01,0,0.44
1697352546.75,-0.3,0.73,0.78,5.4,0.9,55,0.9,0.01,0,0.44
1697352546.76,-0.3,0.73,0.78,5.4,0.9,55,0.9,0.01,0,0.44
1697352546.77,-0.3,0.73,0.78,5.4,0.9,55,0.9,0.01,0,0.44
1697352546.78,-0.3,0.73,0.78,5.4,0.9,55,0.9,0.01,0,0.44
1697352546.79,-0.3,0.73,0.78,5.4,0.9,55,0.9,0.01,0,0.44
1697352546.8,-0.3,0.73,0.78,5.4,0.9,55,0.9,0.01,0,0.44
1697352546.81,-0.3,0.73,0.78,5.4,0.9,55,0.9,0.01,0,0.44
1697352546.82,-0.3,0.73,0.78,5.4,0.9,55,0.9,0.01,0,0.44
1697352546.83,-0.3,0.73,0.78,5.4,0.9,55,0.9,0.01,0,0.44
1697352546.84,-0.3,0.73,0.78,5.4,0.9,55,0.9,0.01,0,0.44
1697352546.85,-0.12,0.78,0.97,-0.4,-0.5,60.8,0.82,0.01,0.01,0.57
1697352546.86,-0.07,0.76,0.62,-0.6,-0.5,60.6,0.82,0.01,0.01,0.57
1697352546.87,-0.07,0.76,0.62,-0.6,-0.5,60.6,0.82,0.01,0.01,0.58
1697352546.88,-0.18,0.8,1.07,-0.8,-0.5,60.5,0.81,0.01,0.01,0.58
1697352546.89,-0.21,0.82,1.54,-1.3,-0.5,60.4,0.81,0.01,0.01,0.59
1697352546.9,-0.18,0.8,1.03,-1.3,-0.5,60.4,0.81,0.01,0.01,0.59
1697352546.91,-0.18,0.8,1.03,-0.2,-0.3,60.5,0.8,0.01,0.01,0.59
1697352546.92,-0.15,0.8,0.71,1.4,-0.7,60.2,0.8,0.01,0.01,0.6
1697352546.93,-0.19,0.69,1.16,2.2,-0.2,60.5,0.8,0.01,0.01,0.6
1697352546.94,-0.18,0.66,1.11,1.5,0,60.4,0.8,0.01,0.01,0.6
1697352546.95,-0.1,0.63,0.51,0.1,0.4,60.5,0.79,0.01,0.01,0.61
1697352546.96,0.01,0.64,1.3,-0.5,0.8,60.2,0.79,0.01,0.01,0.62
1697352546.97,0.1,0.81,0.4,-0.9,0.6,59.4,0.78,0.01,0.01,0.62
1697352546.98,-0.1,0.82,1.17,-0.9,0.4,59,0.78,0.01,0,0.62
1697352546.99,-0.1,0.82,1.17,-1,0.1,58.8,0.78,0.01,0,0.63
1697352547,-0.27,0.83,0.99,-1.2,0,58.7,0.77,0.01,0,0.63
1697352547.01,-0.19,0.86,1.13,-1.4,0.6,59.5,0.77,0.01,0,0.64
1697352547.02,-0.2,0.8,0.93,-1.2,0.9,60.1,0.77,0.01,0,0.64
1697352547.03,-0.34,0.76,1.25,-1,1.7,60.8,0.76,0.01,0,0.64
1697352547.04,-0.2,0.83,0.72,-0.9,2.2,61.2,0.76,0.01,0,0.64
1697352547.05,-0.19,0.78,1.14,-0.5,2.5,61.5,0.76,0.01,0,0.65
1697352547.06,-0.15,0.83,0.96,0.2,2.5,61.4,0.76,0.01,0,0.65
1697352547.07,-0.21,0.7,1.19,0.3,2.3,61.2,0.75,0.01,0,0.66
1697352547.08,-0.06,0.72,0.98,0,2,61.1,0.75,0.01,0,0.66
1697352547.09,-0.22,0.7,1.38,-0.5,1.9,60.7,0.75,0.01,0.01,0.66
1697352547.1,-0.16,0.81,1.04,-1.6,1.1,60.6,0.74,0.01,0.01,0.67
1697352547.11,-0.14,0.83,0.79,-0.9,0.5,60.5,0.74,0.01,0.01,0.67
1697352547.12,-0.26,0.81,1.2,0.5,0.6,60.3,0.74,0.01,0.01,0.68
1697352547.13,-0.07,0.75,1.04,1.5,0.7,60.3,0.73,0.01,0.01,0.68
1697352547.14,-0.08,0.69,1.09,1.1,1.1,60.2,0.73,0.01,0.01,0.68
1697352547.15,0.05,0.72,0.76,0,1,59.7,0.73,0.01,0.01,0.69
1697352547.16,0.01,0.79,1.3,-1,0.6,59,0.72,0.01,0.01,0.69
1697352547.17,0.12,0.76,0.94,-1.2,0,58.5,0.72,0.01,0.01,0.7
1697352547.18,0.17,0.81,0.67,0.5,-0.2,58.1,0.71,0.01,0.01,0.7
1697352547.19,-0.12,0.76,0.97,1.8,-0.2,57.8,0.71,0.01,0.01,0.7
1697352547.2,-0.2,0.67,0.95,1.6,0.2,58.4,0.71,0.01,0.01,0.71
1697352547.21,-0.23,0.66,0.99,0.2,0.9,59.3,0.7,0.01,0.01,0.71
1697352547.22,-0.15,0.76,1.11,-1.4,1.4,60.1,0.7,0.01,0.01,0.72
1697352547.23,-0.2,0.78,1.04,-2.3,2,61,0.7,0.01,0.01,0.72
1697352547.24,-0.16,0.83,1.13,-2.3,2,61,0.69,0.01,0.01,0.72
1697352547.25,-0.16,0.83,1.13,-2.3,2,61,0.69,0.01,0.01,0.72
1697352547.26,-0.16,0.83,1.13,-2.3,2,61,0.69,0.01,0.01,0.72
1697352547.27,-0.16,0.83,1.13,-2.3,2,61,0.69,0.01,0.01,0.72
1697352547.28,-0.16,0.83,1.13,-2.3,2,61,0.69,0.01,0.01,0.72
1697352547.29,-0.16,0.83,1.13,-2.3,2,61,0.69,0.01,0.01,0.72
1697352547.3,-0.16,0.83,1.13,-2.3,2,61,0.69,0.01,0.01,0.72
1697352547.31,-0.16,0.83,1.13,-2.3,2,61,0.69,0.01,0.01,0.72
1697352547.32,-0.16,0.83,1.13,-2.3,2,61,0.69,0.01,0.01,0.72
1697352547.33,-0.16,0.83,1.13,-2.3,2,61,0.69,0.01,0.01,0.72
1697352547.34,-0.16,0.83,1.13,-2.3,2,61,0.69,0.01,0.01,0.72
1697352547.35,-0.16,0.83,1.13,-2.3,2,61,0.69,0.01,0.01,0.72
1697352547.36,-0.16,0.83,1.13,-2.3,2,61,0.69,0.01,0.01,0.72
1697352547.37,-0.16,0.73,0.72,-1.1,2.5,59.2,0.64,0.01,0.01,0.77
1697352547.38,-0.22,0.87,1.42,-1.8,3.3,60,0.64,0.01,0.01,0.77
1697352547.39,-0.01,0.9,1.05,-0.3,3.4,60.6,0.63,0.01,0.01,0.77
1697352547.4,0.01,0.71,1.23,1.6,3.2,60.7,0.63,0.01,0.01,0.78
1697352547.41,0.03,0.61,0.92,2.8,2.3,60,0.63,0.01,0.01,0.78
1697352547.42,0.08,0.63,0.9,1.1,1.5,59.4,0.62,0.01,0.01,0.78
1697352547.43,-0.01,0.61,1.32,-1.1,0.5,58.4,0.62,0.01,0.01,0.79
1697352547.44,0.13,0.72,0.83,-2.3,0,57.1,0.61,0.01,0.01,0.79
1697352547.45,-0.01,0.71,0.88,-1.7,-0.5,56.2,0.61,0.01,0.01,0.79
1697352547.46,-0.08,0.65,0.93,-1.7,-0.5,56.2,0.61,0.01,0.01,0.8
1697352547.47,-0.07,0.52,0.81,0,-0.3,54.9,0.6,0.01,0.01,0.8
1697352547.48,-0.03,0.45,1.08,-0.9,0.1,53.8,0.6,0.01,0.01,0.8
1697352547.49,0.01,0.36,1.07,-2.8,0.3,52.2,0.59,0.01,0.01,0.8
1697352547.5,0.04,0.37,0.87,-4,0.5,50.5,0.59,0.01,0.01,0.81
1697352547.51,0.02,0.41,0.63,-4.4,1.3,47.9,0.59,0.01,0.01,0.81
1697352547.52,-0.03,0.49,0.93,-2.7,1.3,46,0.59,0.01,0.01,0.81
1697352547.53,0.12,0.45,1.21,-0.3,1.1,43.9,0.58,0.01,0.01,0.82
1697352547.54,0.13,0.41,1.09,0.7,1,42.2,0.57,0.01,0.01,0.82
1697352547.55,0.15,0.35,0.87,0.6,1,40.6,0.57,0.01,0.01,0.82
1697352547.56,0.04,0.33,0.9,0,0.9,39.9,0.57,0.01,0.01,0.82
1697352547.57,-0,0.37,0.9,-0.8,0.9,39.6,0.56,0.01,0.01,0.83
1697352547.58,-0.07,0.47,0.93,-1,0.7,39.8,0.56,0.01,0.01,0.83
1697352547.59,-0.06,0.53,1.14,-0.3,0.6,40.6,0.56,0.01,0.01,0.83
1697352547.6,-0.01,0.43,1.03,0.3,0.6,41,0.56,0.01,0.01,0.83
1697352547.61,0.04,0.36,0.92,1,1,41,0.55,0.01,0.01,0.83
1697352547.62,-0.06,0.29,1.02,1,1,41,0.55,0.01,0.01,0.83
1697352547.63,0.06,0.29,1.14,0.1,1.1,38.8,0.55,0.01,0.01,0.84
1697352547.64,0.12,0.18,1.21,-0.8,1,37,0.54,0.01,0.01,0.84
1697352547.65,0.12,0.18,1.21,-0.8,1,37,0.54,0.01,0.01,0.84
1697352547.66,0.07,0.35,0.94,-0.3,0.1,34,0.54,0.01,0.01,0.84
1697352547.67,0.07,0.35,0.94,-0.3,0.1,34,0.54,0.01,0.01,0.84
1697352547.68,0.09,0.26,1.04,0.6,0,32.5,0.54,0.01,0.01,0.84
1697352547.69,0.09,0.26,1.04,0.7,0,30.7,0.53,0.01,0.01,0.85
1697352547.7,0.06,0.22,0.95,0.7,0,30.7,0.53,0.01,0.01,0.85
1697352547.71,0.07,0.25,0.8,-2.6,-0.4,27.9,0.53,0.01,0.01,0.85
1697352547.72,-0.03,0.26,0.99,-4,-0.6,26.7,0.53,0.01,0.01,0.85
1697352547.73,0.1,0.3,0.92,-3.9,-0.6,25.6,0.52,0.01,0,0.85
1697352547.74,0.11,0.26,0.99,-2.3,-0.7,24.8,0.52,0.01,0,0.85
1697352547.75,0.14,0.31,0.86,-0.7,-0.8,24.1,0.52,0.01,0,0.85
1697352547.76,0.03,0.28,0.94,0.8,-0.8,23.4,0.52,0.01,0,0.85
1697352547.77,0.09,0.16,1.05,0,-0.5,22.9,0.52,0.01,0,0.85
1697352547.78,0.09,0.16,1.05,0,-0.5,22.9,0.52,0.01,0,0.85
1697352547.79,0.09,0.16,1.05,0,-0.5,22.9,0.52,0.01,0,0.85
1697352547.8,0.09,0.16,1.05,0,-0.5,22.9,0.52,0.01,0,0.85
1697352547.81,0.09,0.16,1.05,0,-0.5,22.9,0.52,0.01,0,0.85
1697352547.82,0.09,0.16,1.05,0,-0.5,22.9,0.52,0.01,0,0.85
1697352547.83,0.09,0.16,1.05,0,-0.5,22.9,0.52,0.01,0,0.85
1697352547.84,0.09,0.16,1.05,0,-0.5,22.9,0.52,0.01,0,0.85
1697352547.85,0.09,0.16,1.05,0,-0.5,22.9,0.52,0.01,0,0.85
1697352547.86,0.09,0.16,1.05,0,-0.5,22.9,0.52,0.01,0,0.85
1697352547.87,0.09,0.16,1.05,0,-0.5,22.9,0.52,0.01,0,0.85
1697352547.88,0.09,0.16,1.05,0,-0.5,22.9,0.52,0.01,0,0.85
1697352547.89,0.09,0.16,1.05,0,-0.5,22.9,0.52,0.01,0,0.85
1697352547.9,0.12,0.16,1.08,1.4,0,14.2,0.5,0.01,0.01,0.87
1697352547.91,0.06,0.1,0.89,0.5,0,14.1,0.5,0.01,0.01,0.87
1697352547.92,0.06,0.1,0.89,0.5,0,14.1,0.5,0.01,0.01,0.87
1697352547.93,0,0.18,0.92,-3.7,0.1,13.9,0.49,0.01,0.01,0.87
1697352547.94,0.12,0.08,0.96,-4.5,0.4,13.8,0.49,0.01,0,0.87
1697352547.95,0.12,0.13,0.67,-3.9,0.6,13.4,0.49,0.01,0,0.87
1697352547.96,0.12,0.13,0.67,-3.9,0.6,13.4,0.49,0.01,0,0.87
1697352547.97,-0.04,0.16,1.04,-2.8,0.8,12.5,0.49,0.01,0,0.87
1697352547.98,0.16,-0.04,1.06,-1,1.7,10.3,0.49,0.01,0,0.87
1697352547.99,0.12,-0.12,0.81,-2.5,1.2,7.6,0.49,0.01,0,0.87
1697352548,0.12,-0.12,0.81,-2.5,1.2,7.6,0.49,0.01,0,0.87
1697352548.01,0.15,-0.09,1.07,-2.8,0.3,6.6,0.49,0.01,0,0.87
1697352548.02,0.15,-0.09,1.07,-2.1,-0.7,5.4,0.49,0.01,0,0.87
1697352548.03,0.02,-0.1,0.81,-1.2,-1.5,4.3,0.49,0.01,0,0.87
1697352548.04,0.04,-0.16,0.6,-1.8,-1.8,3,0.49,0.01,0,0.87
1697352548.05,-0.09,-0.19,1.13,-2.7,-1.5,1.7,0.49,0.01,0,0.87
1697352548.06,0.08,-0.29,1.21,-4,-0.9,-0.1,0.49,0.01,0,0.87
1697352548.07,0.13,-0.26,0.95,-4.5,-0.8,-2.5,0.49,0.01,0,0.87
1697352548.08,-0.07,-0.36,0.77,-3.8,-0.8,-5.1,0.49,0.01,-0,0.87
1697352548.09,-0.1,-0.34,1.11,-3.3,-0.8,-7.7,0.49,0.01,-0,0.87
1697352548.1,-0.06,-0.54,1.6,-3.7,-0.9,-10.6,0.49,0.01,-0,0.87
1697352548.11,-0.01,-0.59,0.66,-6,-0.6,-14.4,0.49,0.01,-0,0.87
1697352548.12,0.03,-0.55,0.68,-8,-0.4,-17.1,0.49,0,-0,0.87
1697352548.13,0.02,-0.68,1.45,-8.6,-0.2,-20,0.49,0,-0,0.87
1697352548.14,0.1,-0.79,0.7,-7.7,0,-22.6,0.49,0,-0,0.87
1697352548.15,-0.01,-0.68,0.7,-6.3,-0.5,-25.1,0.5,0,-0.01,0.87
1697352548.16,-0.03,-0.62,1.2,-4.8,-1.1,-27.5,0.5,0,-0.01,0.87
1697352548.17,0.05,-0.68,0.95,-4.2,-1.1,-29.3,0.5,0,-0.01,0.87
1697352548.18,0,-0.77,0.87,-4.1,-1.2,-29.7,0.5,0,-0.01,0.86
1697352548.19,-0.18,-0.56,1.1,-3.8,-1.1,-32.3,0.5,0,-0.01,0.86
1697352548.2,0.24,-0.68,0.51,-3.9,-1.1,-33.7,0.51,0,-0.01,0.86
1697352548.21,-0.03,-0.67,1.12,-2.3,-0.2,-34.4,0.51,0,-0.01,0.86
1697352548.22,-0.01,-0.45,0.99,1.4,0.2,-36,0.51,0,-0.01,0.86
1697352548.23,0.1,-0.64,0.8,2.2,0.4,-35.4,0.52,0,-0.01,0.86
1697352548.24,0.1,-0.51,1.31,3.6,0.4,-36.1,0.52,0,-0.01,0.85
1697352548.25,0.15,-0.45,0.93,1.2,0,-34.9,0.52,0,-0.01,0.85
1697352548.26,-0.05,-0.39,1.18,0.2,-0.1,-33.3,0.52,0,-0.01,0.85
1697352548.27,0.07,-0.18,1.31,0.6,0,-32.2,0.52,0,-0.01,0.85
1697352548.28,0.07,-0.18,1.31,0.6,0,-32.2,0.53,0,-0.01,0.85
1697352548.29,0.01,-0.31,1.11,2.1,0.4,-29.2,0.53,0,-0.01,0.85
1697352548.3,0.01,-0.31,1.11,2.1,0.4,-29.2,0.53,0,-0.01,0.85
1697352548.31,0.01,-0.31,1.11,2.1,0.4,-29.2,0.53,0,-0.01,0.85
1697352548.32,0.01,-0.31,1.11,2.1,0.4,-29.2,0.53,0,-0.01,0.85
1697352548.33,0.01,-0.31,1.11,2.1,0.4,-29.2,0.53,0,-0.01,0.85
1697352548.34,0.01,-0.31,1.11,2.1,0.4,-29.2,0.53,0,-0.01,0.85
1697352548.35,0.01,-0.31,1.11,2.1,0.4,-29.2,0.53,0,-0.01,0.85
1697352548.36,0.01,-0.31,1.11,2.1,0.4,-29.2,0.53,0,-0.01,0.85
1697352548.37,0.01,-0.31,1.11,2.1,0.4,-29.2,0.53,0,-0.01,0.85
1697352548.38,0.01,-0.31,1.11,2.1,0.4,-29.2,0.53,0,-0.01,0.85
1697352548.39,0.01,-0.31,1.11,2.1,0.4,-29.2,0.53,0,-0.01,0.85
1697352548.4,0.01,-0.31,1.11,2.1,0.4,-29.2,0.53,0,-0.01,0.85
1697352548.41,0.01,-0.31,1.11,2.1,0.4,-29.2,0.53,0,-0.01,0.85
1697352548.42,-0,-0.14,1.09,-0.2,0.1,-19.6,0.55,0,-0,0.83
1697352548.43,0.06,-0.18,1.07,0.4,0.5,-19.1,0.55,0,-0,0.83
1697352548.44,0.15,-0.13,1.07,0.2,0.8,-18.7,0.55,0,-0,0.83
1697352548.45,-0.25,-0.4,1.44,0.2,0.8,-18.7,0.55,0,-0,0.83
1697352548.46,0.24,-0.26,0.77,0.4,1.1,-18.5,0.56,0,-0,0.83
1697352548.47,0.02,-0.47,0.76,-0.6,1.3,-18.5,0.56,0,-0,0.83
1697352548.48,0.13,-0.44,1.02,-2.3,0.8,-18.1,0.56,0,-0,0.83
1697352548.49,-0.03,-0.46,1.8,-3,1,-18.4,0.56,0,-0,0.83
1697352548.5,0.27,-0.52,0.19,-4.3,0.8,-19.4,0.56,0,-0.01,0.83
1697352548.51,-0.02,-0.68,1.11,-3.6,0.6,-21.5,0.56,0,-0.01,0.83
1697352548.52,-0.14,-0.69,1.5,-3.5,0.5,-23.9,0.57,0,-0.01,0.82
1697352548.53,-0.04,-0.74,1.36,-2.9,0.1,-28.1,0.57,0,-0.01,0.82
1697352548.54,0.05,-0.83,0.81,-4.4,0.2,-31,0.57,0,-0.01,0.82
1697352548.55,-0.26,-0.71,1.31,-4.4,0.2,-31,0.57,0,-0.01,0.82
1697352548.56,-0.01,-1.14,1,-4.7,0.2,-39.1,0.58,0,-0.01,0.82
1697352548.57,-0.01,-1.14,1,-4.7,0.2,-39.1,0.58,0,-0.01,0.82
1697352548.58,0.01,-0.85,0.85,-3.6,1.1,-44.8,0.58,0,-0.01,0.81
1697352548.59,0.08,-0.93,0.88,-3.3,1.5,-45.7,0.58,0,-0.01,0.81
1697352548.6,-0.01,-0.87,0.7,-2.4,1.6,-46.8,0.59,0,-0.01,0.81
1697352548.61,-0.02,-0.98,0.88,-1.7,1.5,-47.9,0.59,0,-0.01,0.81
1697352548.62,-0.04,-0.99,1.16,-1.7,1.5,-47.9,0.59,0,-0.01,0.81
1697352548.63,0.1,-1.04,0.58,-2.4,1,-50,0.6,0,-0.01,0.8
1697352548.64,-0.23,-1.02,1.23,-2.8,0.6,-51.3,0.6,0,-0.01,0.8
1697352548.65,-0.01,-0.93,0.83,-1.2,0,-53.7,0.61,0,-0.01,0.79
1697352548.66,-0.12,-0.9,0.83,-0.7,-0.2,-54.8,0.61,0,-0.01,0.79
1697352548.67,-0.12,-0.9,0.83,-0.7,-0.2,-54.8,0.61,0,-0.01,0.79
1697352548.68,-0.1,-0.99,0.95,0.4,-0.7,-58,0.62,0,-0.01,0.79
1697352548.69,0.02,-1.05,0.74,-1.3,0,-59,0.62,0,-0.01,0.78
1697352548.7,-0.14,-1.15,0.91,-1.3,0,-59,0.62,0,-0.01,0.78
1697352548.71,-0.14,-1.15,0.91,-3.8,-0.6,-60.7,0.63,0,-0.01,0.78
1697352548.72,-0.17,-1.03,0.9,-5.3,-0.1,-62.6,0.63,0,-0.01,0.77
1697352548.73,-0.21,-1.02,1.05,-4.9,0.4,-64.5,0.64,0,-0.01,0.77
1697352548.74,-0.26,-0.93,1.25,-2.6,1.4,-66,0.64,0,-0.01,0.77
1697352548.75,0.03,-1.11,1.39,-0.7,2.3,-67.6,0.65,0,-0.01,0.76
1697352548.76,0.01,-1.07,0.8,-1.2,2,-68.6,0.65,0,-0.01,0.76
1697352548.77,-0.17,-1.17,1.15,-0.6,2.1,-69.9,0.66,-0,-0.01,0.75
1697352548.78,-0.21,-0.93,1.07,-0.6,2.3,-70.5,0.66,-0,-0.01,0.75
1697352548.79,-0.03,-1.23,0.96,-1.7,2,-71.2,0.67,-0,-0.01,0.75
1697352548.8,-0.15,-1.18,1.09,-2.4,1.5,-72.3,0.67,-0,-0.01,0.74
1697352548.81,-0.24,-1.14,0.99,-2.4,1.5,-72.3,0.67,-0,-0.01,0.74
1697352548.82,-0.24,-1.14,0.99,-2.4,1.5,-72.3,0.67,-0,-0.01,0.74
1697352548.83,-0.24,-1.14,0.99,-2.4,1.5,-72.3,0.67,-0,-0.01,0.74
1697352548.84,-0.24,-1.14,0.99,-2.4,1.5,-72.3,0.67,-0,-0.01,0.74
1697352548.85,-0.24,-1.14,0.99,-2.4,1.5,-72.3,0.67,-0,-0.01,0.74
1697352548.86,-0.24,-1.14,0.99,-2.4,1.5,-72.3,0.67,-0,-0.01,0.74
1697352548.87,-0.24,-1.14,0.99,-2.4,1.5,-72.3,0.67,-0,-0.01,0.74
1697352548.88,-0.24,-1.14,0.99,-2.4,1.5,-72.3,0.67,-0,-0.01,0.74
1697352548.89,-0.24,-1.14,0.99,-2.4,1.5,-72.3,0.67,-0,-0.01,0.74
1697352548.9,-0.24,-1.14,0.99,-2.4,1.5,-72.3,0.67,-0,-0.01,0.74
1697352548.91,-0.24,-1.14,0.99,-2.4,1.5,-72.3,0.67,-0,-0.01,0.74
1697352548.92,-0.24,-1.14,0.99,-2.4,1.5,-72.3,0.67,-0,-0.01,0.74
1697352548.93,-0.24,-1.14,0.99,-2.4,1.5,-72.3,0.67,-0,-0.01,0.74
1697352548.94,0.12,-1.25,0.91,-1.4,2.9,-69.2,0.73,0,-0.01,0.68
1697352548.95,-0.1,-1.01,1,-3.6,3.4,-69,0.73,0,-0.01,0.68
1697352548.96,0.03,-0.97,0.82,-3.5,3.9,-69.1,0.74,0,-0.01,0.67
1697352548.97,-0.08,-1.03,1.49,-3.5,3.9,-69.1,0.74,-0,-0.01,0.67
1697352548.98,-0.2,-0.86,0.86,0,4.7,-70,0.75,-0,-0.01,0.66
1697352548.99,0.03,-0.96,0.95,0,4.7,-70,0.75,-0,-0.01,0.66
1697352549,0.05,-0.97,0.84,3.9,3.6,-70.5,0.76,-0,-0.01,0.65
1697352549.01,-0.13,-0.92,1.1,4.1,2.8,-70.5,0.76,-0,-0.01,0.65
1697352549.02,0.14,-0.95,1.13,3.1,1.5,-70.4,0.77,-0,-0.01,0.64
1697352549.03,0.14,-0.81,1.09,2.3,0,-69.9,0.77,-0,-0.01,0.64
1697352549.04,0.29,-0.67,0.72,2.6,-1.5,-68.9,0.77,-0,-0.01,0.64
1697352549.05,0.42,-0.54,0.89,2.9,-1.8,-68.2,0.77,-0,-0.01,0.63
1697352549.06,0.46,-0.26,0.76,4.7,-2.6,-66.8,0.78,0,-0.01,0.63
1697352549.07,0.57,-0.44,1.21,6.8,-3.5,-64.4,0.78,0,-0.01,0.62
1697352549.08,0.41,-0.37,0.8,6.7,-4.3,-61.1,0.79,0,-0.01,0.62
1697352549.09,0.47,-0.44,1.09,4.3,-5,-57.1,0.79,0,-0.01,0.61
1697352549.1,0.38,-0.42,0.65,-0.1,-5,-50.9,0.79,0,-0.01,0.61
1697352549.11,0.05,-0.27,1.3,-1.8,-3.6,-45.5,0.79,0,-0.01,0.61
1697352549.12,0.16,-0.32,0.68,-1.5,-1.6,-39.1,0.8,0,-0.01,0.6
1697352549.13,-0.12,-0.49,1.17,0.7,1,-34.4,0.8,0,-0.01,0.6
1697352549.14,-0.12,-0.49,1.17,0.7,1,-34.4,0.8,0,-0.01,0.6
1697352549.15,0.24,-0.43,0.83,1.8,7.7,-29.9,0.8,0,-0.01,0.6
1697352549.16,0.11,-0.34,1.17,4.7,7.8,-31,0.8,0,-0.01,0.59
1697352549.17,0.11,-0.34,1.17,4.7,7.8,-31,0.81,0,-0,0.59
1697352549.18,0.42,-0.08,1.28,4.4,6.7,-29.1,0.81,0,-0,0.59
1697352549.19,0.42,0.08,0.75,5.4,3.3,-25.4,0.81,0,-0,0.59
1697352549.2,0.39,-0.04,0.97,5.4,3.3,-25.4,0.81,0,-0,0.59
1697352549.21,0.39,-0.04,0.97,4.3,0.8,-22.6,0.81,0,-0,0.58
1697352549.22,0.18,-0.19,0.69,3.1,-1.3,-20.7,0.81,0,-0,0.58
1697352549.23,0.06,0,1.18,2.4,-2.3,-22.5,0.81,0,-0,0.58
1697352549.24,0.21,0.09,0.47,1.8,-2.5,-22.3,0.82,0,-0,0.58
1697352549.25,-0.18,-0.21,1.09,-1,-1.9,-21.2,0.82,0,-0,0.58
1697352549.26,-0.22,0.16,0.56,1.3,-1.4,-23.7,0.82,0,-0,0.58
1697352549.27,-0.23,-0.35,1.3,-0.7,0.5,-21.5,0.82,0,-0,0.57
1697352549.28,0.03,-0.07,0.72,-0.2,1.3,-21.4,0.82,0,-0,0.57
1697352549.29,0.11,-0.22,1.31,-2.2,2.2,-20.2,0.82,0,-0,0.57
1697352549.3,0.42,-0.21,0.85,-3.8,2.6,-18.3,0.82,0,-0,0.57
1697352549.31,0.35,-0.06,0.89,-2.9,2.2,-17.8,0.82,0,-0,0.57
1697352549.32,0.37,-0.29,1.2,-2.1,1.2,-15.8,0.82,0,-0,0.57
1697352549.33,0.37,-0.29,1.2,-2.1,1.2,-15.8,0.82,0,-0,0.57
1697352549.34,0.37,-0.29,1.2,-2.1,1.2,-15.8,0.82,0,-0,0.57
1697352549.35,0.37,-0.29,1.2,-2.1,1.2,-15.8,0.82,0,-0,0.57
1697352549.36,0.37,-0.29,1.2,-2.1,1.2,-15.8,0.82,0,-0,0.57
1697352549.37,0.37,-0.29,1.2,-2.1,1.2,-15.8,0.82,0,-0,0.57
1697352549.38,0.37,-0.29,1.2,-2.1,1.2,-15.8,0.82,0,-0,0.57
1697352549.39,0.37,-0.29,1.2,-2.1,1.2,-15.8,0.82,0,-0,0.57
1697352549.4,0.37,-0.29,1.2,-2.1,1.2,-15.8,0.82,0,-0,0.57
1697352549.41,0.37,-0.29,1.2,-2.1,1.2,-15.8,0.82,0,-0,0.57
1697352549.42,0.37,-0.29,1.2,-2.1,1.2,-15.8,0.82,0,-0,0.57
1697352549.43,0.37,-0.29,1.2,-2.1,1.2,-15.8,0.82,0,-0,0.57
1697352549.44,0.37,-0.29,1.2,-2.1,1.2,-15.8,0.82,0,-0,0.57
1697352549.45,0.37,-0.29,1.2,-2.1,1.2,-15.8,0.82,0,-0,0.57
1697352549.46,0.37,-0.29,1.2,-2.1,1.2,-15.8,0.82,0,-0,0.57
1697352549.47,-0.07,0.52,1,3.1,1,7.2,0.83,0.01,0,0.56
1697352549.48,-0.19,0.4,1.36,3.3,1.6,8.6,0.83,0.01,0,0.56
1697352549.49,-0.11,0.43,0.65,4.6,2.4,9.8,0.83,0.01,0,0.56
1697352549.5,-0.2,0.46,1.13,5.1,3.7,11.4,0.82,0.01,0,0.57
1697352549.51,-0.05,0.47,1.28,4.3,4.3,13.3,0.82,0.01,0,0.57
1697352549.52,-0.1,0.54,0.84,2.8,5,16.1,0.82,0.01,0,0.57
1697352549.53,-0.14,0.58,1.35,1.8,4.7,18.5,0.82,0.01,0,0.57
1697352549.54,-0.1,0.54,1.05,1.9,4.1,20.9,0.82,0.01,0,0.57
1697352549.55,-0.25,0.49,0.95,2.2,3.5,22.9,0.82,0.01,0,0.57
1697352549.56,-0.39,0.44,1.21,2.2,3.5,22.9,0.82,0.01,0,0.57
1697352549.57,-0.31,0.45,0.99,1.1,3.1,24.3,0.82,0.01,0,0.57
1697352549.58,-0.28,0.38,1.52,1.2,2.1,23.9,0.82,0.01,0,0.58
1697352549.59,-0.09,0.51,0.86,1.4,1.1,23.2,0.82,0.01,0,0.58
1697352549.6,0.15,0.39,0.88,2,0.1,22.9,0.82,0.01,0.01,0.58
1697352549.61,0.15,0.29,0.81,2,0.1,22.9,0.81,0.01,0.01,0.58
1697352549.62,0.15,0.29,0.81,1.7,-2.7,22.7,0.81,0.01,0.01,0.58
1697352549.63,-0.06,0.35,1.41,-1.5,-3.4,23.1,0.81,0.01,0,0.58
1697352549.64,-0.06,0.35,1.41,-1.5,-3.4,23.1,0.81,0.01,0,0.59
1697352549.65,-0.07,0.34,0.58,-1.4,-2.4,22.9,0.81,0.01,0,0.59
1697352549.66,-0.07,0.34,0.58,-1.4,-2.4,22.9,0.81,0.01,0,0.59
1697352549.67,0.04,0.35,1.21,0,-1.8,22.8,0.81,0.01,0,0.59
1697352549.68,0.35,0.36,0.52,0.4,-1.5,22.8,0.81,0.01,0,0.59
1697352549.69,0.11,0.23,1.35,1.8,-1,22.1,0.8,0.01,0,0.59
1697352549.7,0.18,0.24,0.77,0.9,-0.5,21.4,0.8,0.01,0,0.6
1697352549.71,0.08,0.25,1.12,-1.1,0.1,20.9,0.8,0.01,0,0.6
1697352549.72,-0.11,0.46,0.84,-1.6,1.3,21.2,0.8,0.01,0,0.6
1697352549.73,-0.08,0.31,1.03,-0.8,2.4,22.4,0.8,0.01,0,0.6
1697352549.74,-0.22,0.41,1.31,1,2.8,23,0.8,0.01,0,0.6
1697352549.75,-0.11,0.34,0.91,1.2,3,24.2,0.8,0.01,0,0.6
1697352549.76,-0.16,0.28,1.12,1.6,2.8,24.9,0.8,0.01,0,0.61
1697352549.77,-0.12,0.35,1.54,1.6,2.8,24.9,0.8,0.01,0,0.61
1697352549.78,-0.02,0.28,0.95,1.1,0.7,24.9,0.79,0.01,0,0.61
1697352549.79,-0.08,0.39,1.16,1.1,0.7,24.9,0.79,0.01,0,0.61
1697352549.8,-0.01,0.32,1.13,0.4,-1.7,24.2,0.79,0.01,0,0.61
1697352549.81,-0.01,0.41,0.71,0.4,-2.1,23.9,0.79,0.01,0,0.61
1697352549.82,0.07,0.43,0.8,1.3,-2.3,23.3,0.79,0.01,0,0.61
1697352549.83,-0.07,0.3,1.11,2.1,-2.2,22.9,0.79,0.01,0,0.62
1697352549.84,-0.15,0.33,0.98,2,-1.9,22,0.79,0.01,0,0.62
1697352549.85,-0.15,0.33,0.98,2,-1.9,22,0.79,0.01,0,0.62
1697352549.86,-0.15,0.33,0.98,2,-1.9,22,0.79,0.01,0,0.62
1697352549.87,-0.15,0.33,0.98,2,-1.9,22,0.79,0.01,0,0.62
1697352549.88,-0.15,0.33,0.98,2,-1.9,22,0.79,0.01,0,0.62
1697352549.89,-0.15,0.33,0.98,2,-1.9,22,0.79,0.01,0,0.62
1697352549.9,-0.15,0.33,0.98,2,-1.9,22,0.79,0.01,0,0.62
1697352549.91,-0.15,0.33,0.98,2,-1.9,22,0.79,0.01,0,0.62
1697352549.92,-0.15,0.33,0.98,2,-1.9,22,0.79,0.01,0,0.62
1697352549.93,-0.15,0.33,0.98,2,-1.9,22,0.79,0.01,0,0.62
1697352549.94,-0.15,0.33,0.98,2,-1.9,22,0.79,0.01,0,0.62
1697352549.95,-0.15,0.33,0.98,2,-1.9,22,0.79,0.01,0,0.62
1697352549.96,-0.15,0.33,0.98,2,-1.9,22,0.79,0.01,0,0.62
1697352549.97,-0.15,0.33,0.98,2,-1.9,22,0.79,0.01,0,0.62
1697352549.98,-0.12,0.26,1.45,0.2,-1.5,22.9,0.77,0.01,0,0.64
1697352549.99,-0.05,0.28,1.12,1.3,-1.4,22.5,0.77,0.01,0,0.64
1697352550,-0.06,0.34,0.53,1.3,-1.4,22.5,0.77,0.01,0,0.64
1697352550.01,-0.09,0.21,1.28,2,-0.9,22.2,0.77,0.01,0,0.64
1697352550.02,-0.09,0.21,1.28,1.8,-0.1,22.2,0.76,0.01,0,0.65
1697352550.03,-0.14,0.32,0.78,0,0.5,22.2,0.76,0.01,0,0.65
1697352550.04,-0.06,0.35,1.31,-0.7,1.7,21.9,0.76,0.01,0,0.65
1697352550.05,-0.18,0.3,0.89,-0.4,2.4,21.8,0.76,0.01,0,0.65
1697352550.06,-0.08,0.32,1.24,-1,3,22.1,0.76,0.01,0,0.65
1697352550.07,0.08,0.26,0.97,-1.5,3.2,22.2,0.76,0.01,0,0.65
1697352550.08,0.05,0.36,0.63,-1.8,2.5,22.2,0.76,0.01,0,0.65
1697352550.09,0.1,0.31,1.09,-1.9,1.9,22,0.75,0.01,0,0.66
1697352550.1,-0.11,0.33,0.95,-1.9,1,21.9,0.75,0.01,0,0.66
1697352550.11,0.04,0.32,1.29,-2,-0.4,21.9,0.75,0.01,0,0.66
1697352550.12,-0.06,0.34,0.85,-2.2,-1.9,21.5,0.75,0.01,0,0.66
1697352550.13,-0.02,0.3,0.7,-2.3,-2.5,21.3,0.75,0.01,0,0.66
1697352550.14,-0.1,0.35,1.27,-1.7,-2.5,21,0.75,0.01,0,0.66
1697352550.15,0,0.3,0.94,-1,-2.4,20.8,0.75,0.01,0,0.66
1697352550.16,-0.05,0.29,0.93,0,-1.9,20.8,0.75,0.01,0,0.67
1697352550.17,0,0.27,0.89,0.8,-1.9,20.5,0.75,0.01,0,0.67
1697352550.18,-0.12,0.17,1.39,0.8,-1.6,20.3,0.74,0.01,0,0.67
1697352550.19,-0.05,0.21,0.7,0.8,-1.6,20.3,0.74,0.01,0,0.67
1697352550.2,-0.05,0.25,1.26,-2.7,-1.1,20.1,0.74,0.01,0,0.67
1697352550.21,-0.16,0.36,0.77,-2.7,-0.5,20.2,0.74,0.01,0,0.67
1697352550.22,-0.03,0.3,1.14,-0.6,0.2,20.3,0.74,0.01,0,0.67
1697352550.23,-0.06,0.24,0.85,1.2,0.4,20.2,0.74,0.01,0,0.67
1697352550.24,-0.05,0.2,0.61,0.9,1.1,19.8,0.74,0.01,0,0.68
1697352550.25,-0.07,0.11,1.41,-1.1,1.3,19.5,0.74,0.01,0,0.68
1697352550.26,0.05,0.31,0.55,-2.7,1.4,19,0.73,0.01,0,0.68
1697352550.27,0.05,0.27,1.52,-2.5,1.3,18.7,0.73,0.01,0,0.68
1697352550.28,0.26,0.26,0.53,-1.6,0.9,18.7,0.73,0.01,0,0.68
1697352550.29,0.21,0.33,0.77,-1.6,-0.3,18.3,0.73,0.01,0,0.68
1697352550.3,0.21,0.3,1.32,-0.8,-1.3,18.3,0.73,0.01,0,0.68
1697352550.31,0.1,0.19,0.91,0,-1.4,17.7,0.73,0.01,0,0.68
1697352550.32,0.02,0.25,0.84,-0.4,-1.3,17,0.73,0.01,0,0.68
1697352550.33,-0.06,0.18,1.57,-2.1,-0.9,16.7,0.73,0.01,0,0.69
1697352550.34,0.01,0.29,0.88,-4.1,-0.8,17.5,0.73,0.01,0,0.69
1697352550.35,-0.2,0.39,0.66,-3.8,-0.2,18.1,0.73,0.01,0,0.69
1697352550.36,-0.2,0.39,0.66,-3.8,-0.2,18.1,0.72,0.01,0,0.69
1697352550.37,-0.2,0.39,0.66,-3.8,-0.2,18.1,0.72,0.01,0,0.69
1697352550.38,-0.2,0.39,0.66,-3.8,-0.2,18.1,0.72,0.01,0,0.69
1697352550.39,-0.2,0.39,0.66,-3.8,-0.2,18.1,0.72,0.01,0,0.69
1697352550.4,-0.2,0.39,0.66,-3.8,-0.2,18.1,0.72,0.01,0,0.69
1697352550.41,-0.2,0.39,0.66,-3.8,-0.2,18.1,0.72,0.01,0,0.69
1697352550.42,-0.2,0.39,0.66,-3.8,-0.2,18.1,0.72,0.01,0,0.69
1697352550.43,-0.2,0.39,0.66,-3.8,-0.2,18.1,0.72,0.01,0,0.69
1697352550.44,-0.2,0.39,0.66,-3.8,-0.2,18.1,0.72,0.01,0,0.69
1697352550.45,-0.2,0.39,0.66,-3.8,-0.2,18.1,0.72,0.01,0,0.69
1697352550.46,-0.2,0.39,0.66,-3.8,-0.2,18.1,0.72,0.01,0,0.69
1697352550.47,-0.2,0.39,0.66,-3.8,-0.2,18.1,0.72,0.01,0,0.69
1697352550.48,-0.2,0.39,0.66,-3.8,-0.2,18.1,0.72,0.01,0,0.69
1697352550.49,-0.23,0.26,1.43,-2.8,-1.2,15.3,0.71,0.01,0,0.7
1697352550.5,-0.1,0.28,1.19,-3.4,0.4,16,0.71,0.01,0,0.7
1697352550.51,-0.09,0.31,0.83,-2.1,1.9,16.9,0.71,0.01,0,0.71
1697352550.52,-0.06,0.26,0.97,-1.4,2.9,17.7,0.71,0,0,0.71
1697352550.53,-0.17,0.21,1.75,-0.1,3.2,17.7,0.71,0,0,0.71
1697352550.54,-0.04,0.17,0.93,0.5,3.3,17.8,0.7,0,0,0.71
1697352550.55,-0.01,0.19,0.95,0.2,2.6,17.9,0.7,0,0,0.71
1697352550.56,0.07,0.15,1.38,-0.2,1.6,17.5,0.7,0,0,0.71
1697352550.57,0.06,0.22,0.87,-0.5,0.7,16.8,0.7,0,0,0.71
1697352550.58,0.03,0.22,1.17,-0.2,-1.2,16.3,0.7,0,0,0.71
1697352550.59,0.08,0.23,0.74,0.3,-2.9,15.7,0.7,0,0,0.71
1697352550.6,0.08,0.23,1.25,0.5,-4.8,14.8,0.7,0,0,0.72
1697352550.61,-0.13,0.14,0.85,0.5,-5.4,14.1,0.7,0.01,0,0.72
1697352550.62,-0.08,0.07,1.06,0.5,-5.5,12.7,0.7,0.01,0,0.72
1697352550.63,-0.02,-0.06,1.09,-0.9,-4.8,11.4,0.7,0.01,-0,0.72
1697352550.64,-0.07,0.1,0.56,-3.1,-3.5,10.4,0.7,0.01,-0,0.72
1697352550.65,0.07,0.14,1.02,-3.6,-2.1,9.4,0.7,0.01,-0,0.72
1697352550.66,-0.12,0.01,1.23,-2.5,-0.4,8.5,0.7,0.01,-0,0.72
1697352550.67,-0.05,0.04,1.44,-3,-0.2,8.3,0.69,0.01,-0,0.72
1697352550.68,0,0.05,0.71,-2.7,0.2,8.1,0.69,0.01,-0,0.72
1697352550.69,0.06,-0.11,0.77,-2.6,0.6,7.7,0.69,0.01,-0,0.72
1697352550.7,-0.2,-0.09,1.33,-3.8,1.2,6.8,0.69,0.01,-0,0.72
1697352550.71,-0.03,0.19,0.47,-3.9,2.6,6.5,0.69,0,-0,0.72
1697352550.72,-0.03,0.14,1.52,0,2.8,6.1,0.69,0,-0,0.72
1697352550.73,-0,-0.04,1.54,5,1.5,5.5,0.69,0,-0,0.72
1697352550.74,0.14,-0.19,0.32,6.6,0.3,4.1,0.69,0,-0,0.72
1697352550.75,-0,-0.32,1.17,2.5,-0.6,2.8,0.69,0,-0,0.72
1697352550.76,-0.06,-0.09,0.6,-2.3,-1,2.3,0.69,0,-0,0.72
1697352550.77,0.02,0.14,1.42,-4.3,-0.2,2.1,0.69,0,-0,0.72
1697352550.78,-0.12,0.31,1.11,-1.7,0,2.2,0.69,0,-0,0.72
1697352550.79,-0.01,0.22,0.8,3,0.2,3.1,0.69,0,-0,0.72
1697352550.8,-0.07,-0.11,1.41,7,0.7,3.9,0.69,0,-0,0.72
1697352550.81,-0.03,-0.3,0.56,6.6,0.9,3.9,0.69,0,-0,0.72
1697352550.82,-0.03,-0.3,0.56,6.6,0.9,3.9,0.69,0.01,-0,0.72
1697352550.83,-0,-0.05,0.32,-2.3,0.3,2.3,0.69,0.01,-0,0.72
1697352550.84,-0.01,0.1,1.13,-3.8,0.4,1.8,0.69,0.01,-0,0.72
1697352550.85,0.01,0.14,1.19,-1.7,0.5,1.7,0.69,0,-0,0.72
1697352550.86,-0.16,0.16,0.88,1.5,0.7,1.4,0.69,0,-0,0.72
1697352550.87,-0.16,0.16,0.88,1.5,0.7,1.4,0.69,0,-0,0.72
1697352550.88,0.22,-0.1,0.82,3,0.6,1.4,0.69,0,-0,0.72
1697352550.89,0.22,-0.1,0.82,3,0.6,1.4,0.69,0,-0,0.72
1697352550.9,0.22,-0.1,0.82,3,0.6,1.4,0.69,0,-0,0.72
1697352550.91,0.22,-0.1,0.82,3,0.6,1.4,0.69,0,-0,0.72
1697352550.92,0.22,-0.1,0.82,3,0.6,1.4,0.69,0,-0,0.72
1697352550.93,0.22,-0.1,0.82,3,0.6,1.4,0.69,0,-0,0.72
1697352550.94,0.22,-0.1,0.82,3,0.6,1.4,0.69,0,-0,0.72
1697352550.95,0.22,-0.1,0.82,3,0.6,1.4,0.69,0,-0,0.72
1697352550.96,0.22,-0.1,0.82,3,0.6,1.4,0.69,0,-0,0.72
1697352550.97,0.22,-0.1,0.82,3,0.6,1.4,0.69,0,-0,0.72
1697352550.98,0.22,-0.1,0.82,3,0.6,1.4,0.69,0,-0,0.72
1697352550.99,0.22,-0.1,0.82,3,0.6,1.4,0.69,0,-0,0.72
1697352551,0.22,-0.1,0.82,3,0.6,1.4,0.69,0,-0,0.72
1697352551.01,0.22,-0.1,0.82,3,0.6,1.4,0.69,0,-0,0.72
1697352551.02,0.22,-0.1,0.82,3,0.6,1.4,0.69,0,-0,0.72
1697352551.03,0.22,-0.1,0.82,3,0.6,1.4,0.69,0,-0,0.72
1697352551.04,0.22,-0.1,0.82,3,0.6,1.4,0.69,0,-0,0.72
1697352551.05,0.22,-0.1,0.82,3,0.6,1.4,0.69,0,-0,0.72
1697352551.06,0.22,-0.1,0.82,3,0.6,1.4,0.69,0,-0,0.72
1697352551.07,0.22,-0.1,0.82,3,0.6,1.4,0.69,0,-0,0.72
1697352551.08,0.22,-0.1,0.82,3,0.6,1.4,0.69,0,-0,0.72
1697352551.09,0.22,-0.1,0.82,3,0.6,1.4,0.69,0,-0,0.72
1697352551.1,0.22,-0.1,0.82,3,0.6,1.4,0.69,0,-0,0.72
1697352551.11,0.22,-0.1,0.82,3,0.6,1.4,0.69,0,-0,0.72
1697352551.12,0.22,-0.1,0.82,3,0.6,1.4,0.69,0,-0,0.72
1697352551.13,0.07,-0.03,1.56,1.2,2.8,0.7,0.69,0.01,-0,0.73
1697352551.14,0.08,0.03,0.67,1.9,2.2,0.7,0.69,0.01,-0,0.73
1697352551.15,0.17,-0.04,1.24,2.1,1.4,0.4,0.69,0.01,-0,0.73
1697352551.16,0.16,-0.02,1.04,0.9,0,0.3,0.69,0.01,-0,0.73
1697352551.17,0.15,-0.01,0.6,-0.7,-1.3,0.2,0.69,0.01,-0,0.73
1697352551.18,0.09,-0.01,1.37,-2.5,-2.1,0.1,0.69,0.01,-0,0.73
1697352551.19,0.02,0.09,0.56,-3.8,-1.9,0,0.69,0.01,-0,0.73
1697352551.2,0.05,0.13,0.98,-4.2,-1.4,0,0.69,0.01,-0,0.73
1697352551.21,0.03,0.09,1.28,-3.3,-0.5,0.4,0.69,0,-0,0.73
1697352551.22,0.1,0.09,1.08,-1.3,-0.2,0.7,0.69,0,-0,0.73
1697352551.23,-0.01,0.01,1.08,0.5,0,0.5,0.69,0,-0,0.73
1697352551.24,-0.01,0.01,1.08,0.5,0,0.5,0.69,0,-0,0.73
1697352551.25,0.1,-0.16,1.32,1.3,0.9,0.3,0.69,0,-0,0.73
1697352551.26,0.02,-0.08,0.62,1.3,0.9,0.3,0.69,0,-0,0.73
1697352551.27,0.07,0.04,1.25,-1.9,1.8,0.4,0.69,0,-0,0.73
1697352551.28,0.07,0.04,1.25,-1.9,1.8,0.4,0.69,0,-0,0.73
1697352551.29,0.04,0.06,0.55,0.3,1.3,0.8,0.69,0,-0,0.73
1697352551.3,0.06,0,1.46,0.8,0.7,0.9,0.69,0,-0,0.73
1697352551.31,0.06,0.05,0.72,1.2,-0.1,1.2,0.69,0,-0,0.73
1697352551.32,0.06,0.05,0.72,1.2,-0.1,1.2,0.69,0,-0,0.73
1697352551.33,0.07,0.05,0.67,2.5,-2.9,1.1,0.69,0,-0,0.73
1697352551.34,0.02,-0.09,0.98,2.5,-2.9,1.1,0.69,0,-0,0.73
1697352551.35,-0.01,-0.05,1.27,0,-3.7,0.9,0.69,0,-0,0.73
1697352551.36,0.03,0.04,0.54,-2.1,-3.4,0.8,0.69,0.01,-0,0.73
1697352551.37,0.03,0.04,0.54,-2.1,-3.4,0.8,0.69,0.01,-0,0.73
1697352551.38,-0.05,0.17,0.65,-3.7,-2.2,0.9,0.69,0.01,-0,0.73
1697352551.39,-0.05,0.17,0.65,-3.7,-2.2,0.9,0.69,0.01,-0,0.73
1697352551.4,0,0.07,1.33,0.8,-0.9,0.8,0.69,0.01,-0,0.73
1697352551.41,0,0.07,1.33,0.8,-0.9,0.8,0.69,0.01,-0,0.73
1697352551.42,-0.01,-0.14,1.23,3.1,-0.1,0.6,0.69,0.01,-0,0.73
1697352551.43,-0.1,-0.18,1.15,1.8,0.2,0.5,0.69,0.01,-0,0.73
1697352551.44,-0.01,-0.07,0.5,-0.1,0.6,0.4,0.69,0.01,-0,0.73
1697352551.45,0.01,-0.02,1.42,-2.1,0.6,0.4,0.69,0.01,-0,0.73
1697352551.46,-0.04,0.11,0.89,-1.9,-0.1,0.6,0.69,0.01,-0,0.73
1697352551.47,0.02,0.09,0.52,0.2,-0.6,0.6,0.69,0.01,-0,0.73
1697352551.48,-0.1,-0.05,0.79,2.5,-1.3,0.9,0.69,0.01,-0,0.73
1697352551.49,-0,-0.03,0.67,1.5,-1.8,0.9,0.69,0.01,-0,0.73
1697352551.5,-0.14,-0.02,1.46,0,-1.4,0.7,0.69,0.01,-0,0.73
1697352551.51,-0.04,0.05,0.71,-0.5,-1,0.5,0.69,0.01,-0,0.73
1697352551.52,-0.04,0.05,0.71,-0.5,-1,0.5,0.69,0.01,-0,0.73
1697352551.53,-0.04,0.05,0.71,-0.5,-1,0.5,0.69,0.01,-0,0.73
1697352551.54,-0.04,0.05,0.71,-0.5,-1,0.5,0.69,0.01,-0,0.73
1697352551.55,-0.04,0.05,0.71,-0.5,-1,0.5,0.69,0.01,-0,0.73
1697352551.56,-0.04,0.05,0.71,-0.5,-1,0.5,0.69,0.01,-0,0.73
1697352551.57,-0.04,0.05,0.71,-0.5,-1,0.5,0.69,0.01,-0,0.73
1697352551.58,-0.04,0.05,0.71,-0.5,-1,0.5,0.69,0.01,-0,0.73
1697352551.59,-0.04,0.05,0.71,-0.5,-1,0.5,0.69,0.01,-0,0.73
1697352551.6,-0.04,0.05,0.71,-0.5,-1,0.5,0.69,0.01,-0,0.73
1697352551.61,-0.04,0.05,0.71,-0.5,-1,0.5,0.69,0.01,-0,0.73
1697352551.62,-0.04,0.05,0.71,-0.5,-1,0.5,0.69,0.01,-0,0.73
1697352551.63,-0.04,0.05,0.71,-0.5,-1,0.5,0.69,0.01,-0,0.73
1697352551.64,-0.04,0.05,0.71,-0.5,-1,0.5,0.69,0.01,-0,0.73
1697352551.65,-0.04,0.05,0.71,-0.5,-1,0.5,0.69,0.01,-0,0.73
1697352551.66,-0.04,0.05,0.71,-0.5,-1,0.5,0.69,0.01,-0,0.73
1697352551.67,-0.04,0.05,0.71,-0.5,-1,0.5,0.69,0.01,-0,0.73
1697352551.68,-0.04,0.05,0.71,-0.5,-1,0.5,0.69,0.01,-0,0.73
1697352551.69,-0.04,0.05,0.71,-0.5,-1,0.5,0.69,0.01,-0,0.73
1697352551.7,-0.04,0.05,0.71,-0.5,-1,0.5,0.69,0.01,-0,0.73
1697352551.71,-0.04,0.05,0.71,-0.5,-1,0.5,0.69,0.01,-0,0.73
1697352551.72,-0.04,0.05,0.71,-0.5,-1,0.5,0.69,0.01,-0,0.73
1697352551.73,-0.04,0.05,0.71,-0.5,-1,0.5,0.69,0.01,-0,0.73
1697352551.74,-0.04,0.05,0.71,-0.5,-1,0.5,0.69,0.01,-0,0.73
1697352551.75,-0.04,0.05,0.71,-0.5,-1,0.5,0.69,0.01,-0,0.73
1697352551.76,-0.04,0.05,0.71,-0.5,-1,0.5,0.69,0.01,-0,0.73
1697352551.77,-0.04,0.05,0.71,-0.5,-1,0.5,0.69,0.01,-0,0.73
1697352551.78,-0.04,0.05,0.71,-0.5,-1,0.5,0.69,0.01,-0,0.73
1697352551.79,-0.04,0.05,0.71,-0.5,-1,0.5,0.69,0.01,-0,0.73
1697352551.8,-0.04,0.05,0.71,-0.5,-1,0.5,0.69,0.01,-0,0.73
1697352551.81,-0.04,0.05,0.71,-0.5,-1,0.5,0.69,0.01,-0,0.73
1697352551.82,0.04,-0.2,1.69,1.1,1.2,0,0.69,0.01,-0,0.73
1697352551.83,0.25,0.03,0.71,-1.4,-0.8,0,0.69,0.01,-0,0.73
1697352551.84,0.3,0.12,0.63,-2.1,-2.9,0,0.69,0.01,-0,0.73
1697352551.85,0.05,-0,1.23,-0.3,-3.6,0.1,0.69,0.01,-0,0.73
1697352551.86,-0,-0.04,1.42,1,-3.5,0,0.69,0.01,-0,0.73
1697352551.87,-0.04,0.03,0.35,0.2,-1.7,0.2,0.69,0.01,-0,0.73
1697352551.88,-0.25,-0.01,1.71,-0.5,0.5,0,0.69,0.01,-0,0.73
1697352551.89,-0.06,0.03,1.12,-0.4,2.5,0.4,0.69,0.01,-0,0.73
1697352551.9,-0.16,0.09,0.76,1,3.5,0.2,0.69,0.01,-0,0.73
1697352551.91,-0,-0.01,1.3,2.7,4.1,0.3,0.69,0.01,-0,0.73
1697352551.92,0.07,-0.14,1.08,3,4.4,0.2,0.69,0.01,-0,0.73
1697352551.93,-0.06,-0.05,0.8,1.5,3.9,0.2,0.69,0.01,-0,0.73
1697352551.94,0.03,-0.07,1.28,-0.7,2.5,0.2,0.69,0.01,-0,0.73
1697352551.95,0.17,0.09,0.33,-2.2,-0.5,0,0.69,0.01,-0,0.73
1697352551.96,0.13,0.17,1.69,0,-2,0.1,0.69,0.01,-0,0.73
1697352551.97,0.2,0.22,0.62,3.4,-3.5,0.2,0.69,0.01,-0,0.73
1697352551.98,0.13,0.01,1.32,4.7,-4.5,0.2,0.69,0.01,-0,0.73
1697352551.99,0.05,-0.12,0.75,3.1,-4.6,0.3,0.69,0.01,-0,0.73
1697352552,-0.12,-0.17,0.91,0,-3.5,0.1,0.69,0.01,-0,0.73
1697352552.01,-0.05,-0.11,1.36,-1.9,-2.1,0.1,0.69,0.01,-0,0.73
1697352552.02,-0.01,0.1,0.74,-1.3,-0.5,0.7,0.69,0.01,-0,0.73
1697352552.03,-0.1,0.09,1.59,1.4,0.8,1.1,0.68,0.01,-0,0.73
1697352552.04,-0.05,0.09,0.8,2.9,1.3,1.5,0.68,0.01,-0,0.73
1697352552.05,0.15,-0.1,0.71,2.2,1.8,1,0.68,0.01,-0,0.73
1697352552.06,0.04,-0.13,1.48,-0.1,1.9,0.6,0.68,0.01,-0,0.73
1697352552.07,0.09,0.01,0.59,-1.2,1.5,0.5,0.68,0.01,-0,0.73
1697352552.08,0.09,0.01,0.59,-1.2,1.5,0.5,0.68,0.01,-0,0.73
1697352552.09,0.15,0.1,0.52,-0.3,0.7,0.2,0.68,0.01,-0,0.73
1697352552.1,0.09,0.02,1.19,0.8,0.1,-0.1,0.68,0.01,-0,0.73
1697352552.11,0.14,0.03,0.95,0.8,0.1,-0.1,0.68,0.01,-0,0.73
1697352552.12,0.14,0.03,0.95,0.1,0,-0.3,0.68,0.01,-0,0.73
1697352552.13,0,-0.02,1.09,-1,0,-0.5,0.68,0.01,-0,0.73
1697352552.14,0.03,-0.03,1.37,-2,-0.4,-0.5,0.68,0.01,-0,0.73
1697352552.15,-0,0.03,0.57,-1.8,-0.6,-0.5,0.68,0.01,-0,0.73
1697352552.16,-0.05,0.05,0.9,-1.1,-0.8,-0.1,0.68,0.01,-0,0.73
1697352552.17,-0.05,-0,1.18,-0.7,-0.6,0.1,0.68,0.01,-0,0.73
1697352552.18,0.1,0,1.67,0,-0.4,0.1,0.68,0.01,-0,0.73
1697352552.19,0.11,0.01,0.3,-0.9,0.3,0.4,0.68,0.01,-0,0.73
1697352552.2,0.05,-0.03,1.36,-1.5,0.2,0.5,0.68,0.01,-0,0.73
1697352552.21,0.05,-0.03,1.36,-1.5,0.2,0.5,0.68,0.01,-0,0.73
1697352552.22,0.05,-0.03,1.36,-1.5,0.2,0.5,0.68,0.01,-0,0.73
1697352552.23,0.05,-0.03,1.36,-1.5,0.2,0.5,0.68,0.01,-0,0.73
1697352552.24,0.05,-0.03,1.36,-1.5,0.2,0.5,0.68,0.01,-0,0.73
1697352552.25,0.05,-0.03,1.36,-1.5,0.2,0.5,0.68,0.01,-0,0.73
1697352552.26,0.05,-0.03,1.36,-1.5,0.2,0.5,0.68,0.01,-0,0.73
1697352552.27,0.05,-0.03,1.36,-1.5,0.2,0.5,0.68,0.01,-0,0.73
1697352552.28,0.05,-0.03,1.36,-1.5,0.2,0.5,0.68,0.01,-0,0.73
1697352552.29,0.05,-0.03,1.36,-1.5,0.2,0.5,0.68,0.01,-0,0.73
1697352552.3,0.05,-0.03,1.36,-1.5,0.2,0.5,0.68,0.01,-0,0.73
1697352552.31,0.05,-0.03,1.36,-1.5,0.2,0.5,0.68,0.01,-0,0.73
1697352552.32,0.05,-0.03,1.36,-1.5,0.2,0.5,0.68,0.01,-0,0.73
1697352552.33,0.05,-0.03,1.36,-1.5,0.2,0.5,0.68,0.01,-0,0.73
1697352552.34,0.01,0.01,0.49,-0.9,-2.4,1.3,0.68,0.01,-0,0.73
1697352552.35,0.09,0.01,1.12,-2.6,-1.7,0.9,0.68,0.01,-0,0.73
1697352552.36,0.07,0.11,0.52,-2.2,-0.3,1,0.68,0.01,-0,0.73
1697352552.37,0.07,0.11,0.52,-2.2,-0.3,1,0.68,0.01,-0,0.73
1697352552.38,-0.02,0.02,0.59,-0.2,0.5,0.9,0.68,0.01,-0,0.73
1697352552.39,-0.02,0.02,0.59,-0.2,0.5,0.9,0.68,0.01,-0,0.73
1697352552.4,0,-0.05,0.93,0,0.9,0.5,0.68,0.01,-0,0.73
1697352552.41,0.08,-0.09,0.79,0.6,1.3,0.1,0.68,0.01,-0,0.73
1697352552.42,0.08,-0.09,0.79,0.8,1.5,-0.4,0.68,0.01,-0,0.73
1697352552.43,0.08,-0.19,1.35,0,1.4,-1,0.68,0.01,-0,0.73
1697352552.44,0.05,-0.03,1.12,0,1.3,-1.1,0.68,0.01,-0,0.73
1697352552.45,0.09,-0.1,1.46,0,1.3,-1.1,0.68,0.01,-0,0.73
1697352552.46,0.02,0.01,0.39,1.1,0.9,-1.4,0.68,0.01,-0,0.73
1697352552.47,0,-0.14,1.36,1.9,0,-1.8,0.68,0.01,-0,0.73
1697352552.48,0.03,-0.11,1.14,0.5,0,-2.1,0.68,0.01,-0,0.73
1697352552.49,0.16,-0.1,0.62,-1.7,-0.1,-2.2,0.68,0.01,-0,0.73
1697352552.5,0,-0.07,1.51,-2.3,-0.4,-2.4,0.68,0.01,-0,0.73
1697352552.51,0.13,0.01,0.95,-0.9,-0.4,-2.7,0.68,0.01,-0,0.73
1697352552.52,0.05,-0.01,1.23,1.4,-0.7,-2.9,0.68,0.01,-0,0.73
1697352552.53,0.11,-0.05,0.67,2.6,-0.8,-3.3,0.68,0.01,-0,0.73
1697352552.54,0.03,-0.28,1.4,1.3,-0.8,-3.9,0.68,0.01,-0,0.73
1697352552.55,-0.05,-0.25,0.78,1.3,-0.8,-3.9,0.69,0.01,-0,0.73
1697352552.56,0.02,-0.2,1.17,-0.7,-0.6,-4.6,0.69,0.01,-0,0.73
1697352552.57,0,0.01,0.88,-1.9,0,-4.8,0.69,0.01,-0,0.73
1697352552.58,0.14,-0.1,1.23,-1.5,0.7,-4.5,0.69,0.01,-0,0.73
1697352552.59,0.01,0.04,0.56,0.5,0.4,-4.5,0.69,0.01,-0,0.73
1697352552.6,0.12,-0.14,1.4,2.5,0,-4.2,0.69,0.01,-0,0.73
1697352552.61,0.03,-0.2,0.95,3.1,-0.4,-3.8,0.69,0.01,-0,0.73
1697352552.62,0.05,-0.1,0.75,1.7,-0.6,-4.1,0.69,0.01,-0,0.73
1697352552.63,0.14,-0.12,1.24,0.6,-0.7,-4.1,0.69,0.01,-0,0.73
1697352552.64,0.05,0,0.73,-0.3,-0.8,-4,0.69,0.01,-0,0.73
1697352552.65,0.13,-0.03,1.26,0.2,-1.6,-3.9,0.69,0.01,-0,0.73
1697352552.66,0.01,-0,0.98,1,-1.6,-3.6,0.69,0.01,-0,0.73
1697352552.67,0.01,-0.01,1.42,1.3,-1.1,-3.8,0.69,0.01,-0,0.73
1697352552.68,0.05,-0.07,0.62,0.3,-0.4,-3.6,0.69,0.01,-0,0.73
1697352552.69,0.03,0.01,1.51,0.3,-0.4,-3.6,0.69,0.01,-0,0.73
1697352552.7,0.1,0.04,0.85,-2,0.1,-3.6,0.69,0.01,-0,0.72
1697352552.71,0.1,0.04,0.85,-2,0.1,-3.6,0.69,0.01,-0,0.72
1697352552.72,-0.01,-0.06,1.39,1.4,0.5,-3.2,0.69,0.01,-0,0.72
1697352552.73,-0.01,-0.06,1.39,1.4,0.5,-3.2,0.69,0.01,-0,0.72
1697352552.74,-0.01,-0.06,1.39,1.4,0.5,-3.2,0.69,0.01,-0,0.72
1697352552.75,-0.01,-0.06,1.39,1.4,0.5,-3.2,0.69,0.01,-0,0.72
1697352552.76,-0.01,-0.06,1.39,1.4,0.5,-3.2,0.69,0.01,-0,0.72
1697352552.77,-0.01,-0.06,1.39,1.4,0.5,-3.2,0.69,0.01,-0,0.72
1697352552.78,-0.01,-0.06,1.39,1.4,0.5,-3.2,0.69,0.01,-0,0.72
1697352552.79,-0.01,-0.06,1.39,1.4,0.5,-3.2,0.69,0.01,-0,0.72
1697352552.8,-0.01,-0.06,1.39,1.4,0.5,-3.2,0.69,0.01,-0,0.72
1697352552.81,-0.01,-0.06,1.39,1.4,0.5,-3.2,0.69,0.01,-0,0.72
1697352552.82,-0.01,-0.06,1.39,1.4,0.5,-3.2,0.69,0.01,-0,0.72
1697352552.83,-0.01,-0.06,1.39,1.4,0.5,-3.2,0.69,0.01,-0,0.72
1697352552.84,-0.01,-0.06,1.39,1.4,0.5,-3.2,0.69,0.01,-0,0.72
1697352552.85,-0.01,-0.06,1.39,1.4,0.5,-3.2,0.69,0.01,-0,0.72
1697352552.86,0.03,0.11,1.04,4.2,1.5,3.1,0.69,0.01,-0,0.72
1697352552.87,0.12,-0.01,0.67,1.5,1.6,3.1,0.69,0.01,0,0.72
1697352552.88,0.07,-0.06,1.32,-2.1,1.2,3.4,0.69,0.01,0,0.72
1697352552.89,0.13,0.08,0.79,-3.3,1,3,0.69,0.01,-0,0.72
1697352552.9,0.06,0.11,1.59,-2.3,0.6,2.9,0.69,0.01,-0,0.72
1697352552.91,0.02,0.21,0.48,-0.1,0.3,3,0.69,0.01,-0,0.72
1697352552.92,0.09,0.1,1.13,1.6,0.4,2.9,0.69,0.01,-0,0.72
1697352552.93,0.01,0.06,0.82,1.3,1.1,2.3,0.69,0.01,0,0.73
1697352552.94,-0.05,-0.11,0.78,1.3,1.1,2.3,0.69,0.01,0,0.73
1697352552.95,0.16,-0.01,0.16,-1.6,2,1.7,0.69,0.01,0,0.73
1697352552.96,0.05,0.21,1.39,-1.6,2,1.7,0.69,0.01,0,0.73
1697352552.97,0.03,0.15,0.66,-2.2,1.4,2.7,0.69,0.01,0,0.73
1697352552.98,0.13,0.07,0.78,1.3,1.1,3,0.69,0.01,0,0.73
1697352552.99,0.04,-0.13,1.2,3.1,1.4,2.7,0.69,0.01,0,0.73
1697352553,0.06,-0.12,0.63,1.7,0.7,2.8,0.69,0.01,0,0.73
1697352553.01,0.02,-0.02,1.57,-1,-0.2,2.5,0.69,0.01,0,0.73
1697352553.02,0.02,0.16,0.54,-3.1,-1,2,0.69,0.01,0,0.73
1697352553.03,0.05,0.17,1.35,-2,-1.2,1.9,0.69,0.01,-0,0.73
1697352553.04,0.07,0.06,0.7,2.2,-1.2,1.8,0.69,0.01,-0,0.73
1697352553.05,-0.13,-0.2,0.93,1.8,0.1,1.1,0.69,0.01,0,0.73
1697352553.06,0.07,-0.15,0.75,-1.6,1.2,0.5,0.69,0.01,0,0.73
1697352553.07,-0.02,-0.03,1.69,-4.1,1.2,0.5,0.69,0.01,0,0.73
1697352553.08,0.06,0.07,0.56,-3.8,1.3,0.6,0.69,0.01,0,0.73
1697352553.09,-0.03,0.2,1.73,-3.8,1.3,0.6,0.69,0.01,0,0.73
1697352553.1,0.04,0.09,0.6,-0.1,0.9,0.5,0.69,0.01,0,0.73
1697352553.11,0.09,-0.17,1.22,1.6,-0.1,0.4,0.69,0.01,0,0.73
1697352553.12,0.04,-0.22,1.12,-2.8,-1.2,0,0.69,0.01,0,0.73
1697352553.13,0.04,-0.22,1.12,-2.8,-1.2,0,0.69,0.01,0,0.73
1697352553.14,-0.01,0.01,1.34,-4.7,-1.8,-0.3,0.69,0.01,-0,0.73
1697352553.15,0.06,0.1,0.35,-3.5,-1.9,-0.2,0.69,0.01,-0,0.73
1697352553.16,0.04,0.11,1.66,-1.3,-2,0,0.69,0.01,-0,0.73
1697352553.17,0.01,0.15,0.53,1.2,-1.2,0.3,0.69,0.01,-0,0.73
1697352553.18,0.05,0.04,1.35,3.5,-0.7,0.2,0.69,0.01,-0,0.73
1697352553.19,-0.04,-0.16,0.94,1.7,-0.3,0,0.69,0.01,-0,0.73
1697352553.2,0,-0.1,1.12,-1.2,0.8,-0.2,0.69,0.01,-0,0.73
1697352553.21,-0.01,0.04,1.36,-1.1,1.3,0.1,0.69,0.01,-0,0.73
1697352553.22,-0.03,0.12,1.7,1.1,2,0,0.69,0.01,-0,0.73
1697352553.23,0.02,0.03,0.75,2.5,1.9,0.1,0.69,0.01,-0,0.73
1697352553.24,0.06,-0.14,1.51,0.4,1.9,0.5,0.69,0.01,-0,0.73
1697352553.25,0.06,-0.14,1.51,0.4,1.9,0.5,0.69,0.01,-0,0.73
1697352553.26,0.06,-0.14,1.51,0.4,1.9,0.5,0.69,0.01,-0,0.73
1697352553.27,0.06,-0.14,1.51,0.4,1.9,0.5,0.69,0.01,-0,0.73
1697352553.28,0.06,-0.14,1.51,0.4,1.9,0.5,0.69,0.01,-0,0.73
1697352553.29,0.06,-0.14,1.51,0.4,1.9,0.5,0.69,0.01,-0,0.73
1697352553.3,0.06,-0.14,1.51,0.4,1.9,0.5,0.69,0.01,-0,0.73
1697352553.31,0.06,-0.14,1.51,0.4,1.9,0.5,0.69,0.01,-0,0.73
1697352553.32,0.06,-0.14,1.51,0.4,1.9,0.5,0.69,0.01,-0,0.73
1697352553.33,0.06,-0.14,1.51,0.4,1.9,0.5,0.69,0.01,-0,0.73
1697352553.34,0.06,-0.14,1.51,0.4,1.9,0.5,0.69,0.01,-0,0.73
1697352553.35,0.06,-0.14,1.51,0.4,1.9,0.5,0.69,0.01,-0,0.73
1697352553.36,0.06,-0.14,1.51,0.4,1.9,0.5,0.69,0.01,-0,0.73
1697352553.37,0.06,-0.14,1.51,0.4,1.9,0.5,0.69,0.01,-0,0.73
1697352553.38,0.13,-0.04,0.45,0.9,0.3,-0.6,0.69,0.01,-0,0.73
1697352553.39,0,-0.12,1.65,-0.2,1.2,-0.9,0.69,0.01,-0,0.73
1697352553.4,0.08,-0.13,0.63,-1.9,2,-0.9,0.69,0.01,-0,0.73
1697352553.41,-0.02,-0.05,0.79,-3.2,2.1,-0.7,0.69,0,-0,0.73
1697352553.42,-0.02,-0.05,0.79,-3.2,2.1,-0.7,0.69,0,-0,0.73
1697352553.43,-0.03,0.05,1.09,-2.9,1.8,-0.7,0.69,0,-0,0.73
1697352553.44,-0.03,0.05,1.09,-2.9,1.8,-0.7,0.69,0,-0,0.73
1697352553.45,0.08,0.04,1.14,-1.5,0.8,-0.5,0.69,0,-0,0.73
1697352553.46,0.03,-0.11,0.67,-0.2,-0.1,-0.3,0.69,0,-0,0.73
1697352553.47,-0.09,-0.05,1.47,-1.3,-1,-0.5,0.69,0,-0,0.73
1697352553.48,0.15,0.06,0.16,-1.2,-1.2,-0.3,0.69,0,-0,0.73
1697352553.49,0.15,0.06,0.16,-1.2,-1.2,-0.3,0.69,0,-0,0.73
1697352553.5,-0.08,-0.07,1.47,0.2,-1.3,-0.2,0.69,0,-0,0.73
1697352553.51,-0.05,-0.12,1.63,2.4,-1.8,-0.5,0.69,0,-0,0.73
1697352553.52,0.01,-0.08,0.39,0.2,-1.8,-0.4,0.69,0.01,-0,0.73
1697352553.53,-0.04,-0.14,1.28,-0.8,-0.7,-1,0.69,0.01,-0,0.73
1697352553.54,-0.05,0.09,0.93,-1.1,0.4,-0.9,0.69,0,-0,0.73
1697352553.55,0.12,0.04,0.65,-0.2,0.6,-0.5,0.69,0,-0,0.73
1697352553.56,-0.05,0.04,1.05,1.6,0.5,-0.9,0.69,0,-0,0.73
1697352553.57,0.14,-0.03,1.37,1.6,0.5,-0.8,0.69,0.01,-0,0.73
1697352553.58,0.13,-0.22,0.56,-0.4,0.4,-1.2,0.69,0.01,-0,0.73
1697352553.59,-0.04,-0.07,1.6,-3,0.6,-1.2,0.69,0,-0,0.73
1697352553.6,0.04,0.07,0.33,-2.9,0.8,-1.3,0.69,0,-0,0.73
1697352553.61,-0.03,0.09,1.71,-0.4,1.2,-1.4,0.69,0,-0,0.73
1697352553.62,0.05,0.07,0.73,1,1.2,-1.3,0.69,0,-0,0.73
1697352553.63,0.01,-0.09,1.34,0.9,1.2,-1.3,0.69,0,-0,0.73
1697352553.64,-0.07,-0.11,1.09,-0.5,0.3,-1.7,0.69,0,-0,0.73
1697352553.65,0.09,-0.04,1.1,-0.6,0,-1.8,0.69,0,-0,0.73
1697352553.66,0.04,-0.04,0.77,0.5,-0.4,-1.8,0.69,0,-0,0.73
1697352553.67,0.07,-0.07,0.93,0.9,-0.3,-1.8,0.69,0,-0,0.73
1697352553.68,0.12,-0.09,0.5,0.7,-0.1,-1.8,0.69,0,-0,0.73
1697352553.69,-0.07,-0.13,1.68,-0.1,-0.7,-1.9,0.69,0,-0,0.73
1697352553.7,0.1,-0.07,0.51,-1.7,-0.3,-2.1,0.69,0,-0,0.73
1697352553.71,-0.06,-0.01,1.53,-1.8,-0.4,-2.1,0.69,0,-0,0.73
1697352553.72,0.11,0.05,0.45,-1,-0.4,-1.9,0.69,0,-0,0.73
1697352553.73,-0.13,-0.02,1.57,0,-0.1,-1.9,0.69,0,-0,0.73
1697352553.74,0.07,0.05,0.53,2,0.6,-2,0.69,0,-0,0.73
1697352553.75,-0.09,-0.09,1.55,1.6,1.1,-2.1,0.69,0,-0,0.72
1697352553.76,-0.09,-0.09,1.55,1.6,1.1,-2.1,0.69,0,-0,0.72
1697352553.77,0.02,-0.17,0.53,-0.5,1.4,-2.7,0.69,0,-0,0.72
1697352553.78,0.02,-0.17,0.53,-0.5,1.4,-2.7,0.69,0,-0,0.72
1697352553.79,0.02,-0.17,0.53,-0.5,1.4,-2.7,0.69,0,-0,0.72
1697352553.8,0.02,-0.17,0.53,-0.5,1.4,-2.7,0.69,0,-0,0.72
1697352553.81,0.02,-0.17,0.53,-0.5,1.4,-2.7,0.69,0,-0,0.72
1697352553.82,0.02,-0.17,0.53,-0.5,1.4,-2.7,0.69,0,-0,0.72
1697352553.83,0.02,-0.17,0.53,-0.5,1.4,-2.7,0.69,0,-0,0.72
1697352553.84,0.02,-0.17,0.53,-0.5,1.4,-2.7,0.69,0,-0,0.72
1697352553.85,0.02,-0.17,0.53,-0.5,1.4,-2.7,0.69,0,-0,0.72
1697352553.86,0.02,-0.17,0.53,-0.5,1.4,-2.7,0.69,0,-0,0.72
1697352553.87,0.02,-0.17,0.53,-0.5,1.4,-2.7,0.69,0,-0,0.72
1697352553.88,0.02,-0.17,0.53,-0.5,1.4,-2.7,0.69,0,-0,0.72
1697352553.89,0.02,-0.17,0.53,-0.5,1.4,-2.7,0.69,0,-0,0.72
1697352553.9,0.15,-0.09,0.34,2.1,0.8,-1.8,0.69,0,-0,0.72
1697352553.91,-0.04,-0.15,1.59,0.8,0.7,-2.1,0.69,0,-0,0.72
1697352553.92,0.1,0,0.57,-1.8,0.3,-2.1,0.69,0,-0,0.72
1697352553.93,0.14,0.07,1.37,-0.9,0.2,-2.2,0.69,0,-0,0.72
1697352553.94,0,-0,0.89,-0.3,0.1,-2.6,0.69,0,-0,0.72
1697352553.95,0.11,-0.01,1.04,-0.5,-0.3,-2.9,0.69,0,-0,0.72
1697352553.96,0.19,-0.04,0.97,-1.5,-0.1,-2.7,0.69,0,-0,0.72
1697352553.97,-0,0.05,0.89,-1.1,-0.4,-2.8,0.69,0,-0,0.72
1697352553.98,0.06,-0.02,0.93,-0.6,0.3,-3,0.69,0,-0,0.72
1697352553.99,-0.16,-0.04,1.26,-0.6,0.3,-3,0.69,0,-0,0.72
1697352554,0.15,-0.05,0.78,-0.7,0.7,-2.3,0.69,0,-0,0.72
1697352554.01,-0.15,-0.04,1.31,-0.7,0.3,-2.2,0.69,0,-0,0.72
1697352554.02,0.11,-0.01,0.75,-0.3,0.5,-2,0.69,0,-0,0.72
1697352554.03,-0.12,-0.03,1.13,0.4,0.1,-1.6,0.69,0,-0,0.72
1697352554.04,0.04,-0.06,1.47,2.1,-0.1,-1.4,0.69,0,-0,0.72
1697352554.05,0.07,-0.07,0.75,3.4,-0.3,-1.5,0.69,0,-0,0.72
1697352554.06,-0.03,-0.14,1.1,2.3,-0.1,-1.3,0.69,0,-0,0.72
1697352554.07,0.12,-0.24,0.76,-1,0,-1.7,0.69,0,-0,0.72
1697352554.08,-0.06,-0.12,1.42,-4.1,0.1,-2.1,0.69,0,-0,0.72
1697352554.09,0.08,0.12,0.3,-3.9,0.5,-1.8,0.69,0,-0,0.72
1697352554.1,-0.01,0.08,1.07,-3.2,0.7,-1.9,0.69,0,-0,0.72
1697352554.11,0.04,0.07,0.92,3,1.4,-2.4,0.69,0,-0,0.72
1697352554.12,-0.14,-0.05,1.16,3.9,1.4,-2.5,0.69,0,-0,0.72
1697352554.13,0.06,-0.09,1.03,2.8,1.9,-2.7,0.69,0,-0,0.72
1697352554.14,0.06,-0.09,1.03,2.8,1.9,-2.7,0.69,0,-0,0.72
1697352554.15,0,-0.21,0.9,0.1,1.7,-3.1,0.69,0,-0,0.72
1697352554.16,0.08,-0.12,1.08,-2.6,1.1,-3.3,0.69,0,-0,0.72
1697352554.17,0.18,0.06,0.95,-1,-0.1,-2.6,0.69,0,-0,0.72
1697352554.18,0.18,0.06,0.95,-1,-0.1,-2.6,0.7,0,-0,0.72
1697352554.19,0.04,0.05,0.9,1.3,-0.6,-2.4,0.7,0,-0,0.72
1697352554.2,0.12,-0.01,1.23,2.4,-0.8,-2,0.7,0,-0,0.72
1697352554.21,0.06,-0.15,0.78,1.2,-0.5,-2,0.7,0,-0,0.72
1697352554.22,-0.09,-0.13,1.04,-0.4,-0.1,-2,0.7,0,-0,0.72
1697352554.23,0.04,-0.01,0.77,-0.8,0.5,-2.1,0.7,0,-0,0.72
1697352554.24,-0.06,-0.05,1.2,0.1,0.9,-2.1,0.7,0,-0,0.72
1697352554.25,0.1,-0.07,0.56,-0.5,1,-2.1,0.7,0,-0,0.72
1697352554.26,-0.13,-0.05,1.56,-0.4,0.9,-2.2,0.7,0,-0,0.72
1697352554.27,0.07,0.02,0.62,0.5,1.6,-2.5,0.7,0,-0,0.72
1697352554.28,0.07,0.02,0.62,0.5,1.6,-2.5,0.7,0,-0,0.72
1697352554.29,0.07,0.02,0.62,0.5,1.6,-2.5,0.7,0,-0,0.72
1697352554.3,0.07,0.02,0.62,0.5,1.6,-2.5,0.7,0,-0,0.72
1697352554.31,0.07,0.02,0.62,0.5,1.6,-2.5,0.7,0,-0,0.72
1697352554.32,0.07,0.02,0.62,0.5,1.6,-2.5,0.7,0,-0,0.72
1697352554.33,0.07,0.02,0.62,0.5,1.6,-2.5,0.7,0,-0,0.72
1697352554.34,0.07,0.02,0.62,0.5,1.6,-2.5,0.7,0,-0,0.72
1697352554.35,0.07,0.02,0.62,0.5,1.6,-2.5,0.7,0,-0,0.72
1697352554.36,0.07,0.02,0.62,0.5,1.6,-2.5,0.7,0,-0,0.72
1697352554.37,0.07,0.02,0.62,0.5,1.6,-2.5,0.7,0,-0,0.72
1697352554.38,0.07,0.02,0.62,0.5,1.6,-2.5,0.7,0,-0,0.72
1697352554.39,0.07,0.02,0.62,0.5,1.6,-2.5,0.7,0,-0,0.72
1697352554.4,0.07,0.02,0.62,0.5,1.6,-2.5,0.7,0,-0,0.72
1697352554.41,0.07,0.02,0.62,0.5,1.6,-2.5,0.7,0,-0,0.72
1697352554.42,0.07,0.02,0.62,0.5,1.6,-2.5,0.7,0,-0,0.72
1697352554.43,0.03,0.16,1.3,-1.8,0.1,-1.7,0.7,0,0,0.72
1697352554.44,0.06,-0.12,1.22,0,-0.4,-0.8,0.7,0,0,0.72
1697352554.45,0.06,-0.12,1.22,2.3,-0.9,-0.6,0.7,0,0,0.72
1697352554.46,0.03,-0.16,1.11,0.7,-0.7,-0.1,0.7,0,0,0.72
1697352554.47,0.03,-0.16,1.11,0.7,-0.7,-0.1,0.7,0,0,0.72
1697352554.48,-0.14,0.14,0.91,-2.2,0,0.1,0.7,0,0,0.72
1697352554.49,-0.14,0.14,0.91,-2.2,0,0.1,0.7,0,0,0.72
1697352554.5,-0.04,0,0.84,2.1,0.8,1,0.7,0,0,0.72
1697352554.51,-0.06,-0.02,1.34,2.1,0.8,1,0.7,0,0,0.72
1697352554.52,0.04,-0.04,0.78,0.4,1.1,1.3,0.7,0,0,0.72
1697352554.53,0.1,0.03,1.41,-0.4,0.4,1.5,0.7,0,0,0.72
1697352554.54,0.1,0.03,1.41,-0.4,0.4,1.5,0.7,0,0,0.72
1697352554.55,0.14,0.21,0.85,-0.2,0.1,1.8,0.7,0,0,0.72
1697352554.56,0.14,0.21,0.85,1.2,0.3,2.3,0.7,0,0,0.72
1697352554.57,0,0.02,0.96,1.4,0.4,2.6,0.7,0,0,0.72
1697352554.58,0.06,0.06,0.63,0,0.4,2.7,0.7,0,0,0.72
1697352554.59,-0.18,0.06,1.41,-0.5,0.1,2.8,0.7,0,0,0.72
1697352554.6,0.05,0.1,0.92,0.7,0,2.5,0.7,0,0,0.72
1697352554.61,-0.04,0.04,1.08,0.8,0,2.4,0.7,0,0,0.72
1697352554.62,0.08,0,1,-0.3,-0.4,2.3,0.7,0,0,0.72
1697352554.63,0.03,0.05,0.99,-1.5,-1,2.1,0.7,0,0,0.72
1697352554.64,-0.05,0.25,1.01,-2,-1,2.1,0.7,0,0,0.72
1697352554.65,0.08,0.28,1,-1.2,-1.1,2.7,0.7,0,0,0.72
1697352554.66,-0,0.42,0.83,1.7,-0.7,5.5,0.7,0,0,0.72
1697352554.67,-0.06,0.4,1.26,3.1,0,7.8,0.7,0,0,0.72
1697352554.68,-0.01,0.33,0.8,3.5,0.5,10.7,0.69,0,0,0.72
1697352554.69,-0.03,0.47,0.43,3.3,1.1,14.5,0.69,0,0,0.72
1697352554.7,-0.21,0.87,1.47,5.2,1.7,18.9,0.69,0,0,0.72
1697352554.71,-0.06,1.06,0.84,6,1.8,20.7,0.69,0,0,0.72
1697352554.72,-0.14,0.89,0.96,9.4,1.6,26.7,0.69,0.01,0,0.72
1697352554.73,-0.07,1.03,0.84,10.9,1.3,31.8,0.69,0.01,0,0.73
1697352554.74,-0.23,0.79,0.9,10.2,1,36.5,0.69,0.01,0,0.73
1697352554.75,-0.02,1.14,0.55,7.1,0.6,40.2,0.68,0.01,0.01,0.73
1697352554.76,-0.11,1.06,0.75,5.6,0,44.9,0.68,0.01,0.01,0.73
1697352554.77,-0.19,1.16,1.28,5.1,-0.3,47.5,0.68,0.01,0.01,0.74
1697352554.78,-0,1.08,0.59,4.4,-1.1,50,0.67,0.01,0.01,0.74
1697352554.79,-0.29,1.21,1.52,3.9,-1.8,52.4,0.67,0.01,0.01,0.74
1697352554.8,-0.08,1.08,0.59,3.7,-1.6,54,0.67,0.01,0.01,0.75
1697352554.81,-0.08,1.08,0.59,3.7,-1.6,54,0.67,0.01,0.01,0.75
1697352554.82,-0.08,1.08,0.59,3.7,-1.6,54,0.67,0.01,0.01,0.75
1697352554.83,-0.08,1.08,0.59,3.7,-1.6,54,0.67,0.01,0.01,0.75
1697352554.84,-0.08,1.08,0.59,3.7,-1.6,54,0.67,0.01,0.01,0.75
1697352554.85,-0.08,1.08,0.59,3.7,-1.6,54,0.67,0.01,0.01,0.75
1697352554.86,-0.08,1.08,0.59,3.7,-1.6,54,0.67,0.01,0.01,0.75
1697352554.87,-0.08,1.08,0.59,3.7,-1.6,54,0.67,0.01,0.01,0.75
1697352554.88,-0.08,1.08,0.59,3.7,-1.6,54,0.67,0.01,0.01,0.75
1697352554.89,-0.08,1.08,0.59,3.7,-1.6,54,0.67,0.01,0.01,0.75
1697352554.9,-0.08,1.08,0.59,3.7,-1.6,54,0.67,0.01,0.01,0.75
1697352554.91,-0.08,1.08,0.59,3.7,-1.6,54,0.67,0.01,0.01,0.75
1697352554.92,-0.08,1.08,0.59,3.7,-1.6,54,0.67,0.01,0.01,0.75
1697352554.93,-0.08,1.08,0.59,3.7,-1.6,54,0.67,0.01,0.01,0.75
1697352554.94,-0.08,1.08,0.59,3.7,-1.6,54,0.67,0.01,0.01,0.75
1697352554.95,-0.12,0.88,1,-2.5,0.1,55.1,0.61,0.01,0.01,0.79
1697352554.96,0.06,0.78,1.35,-1.9,-1.5,55,0.61,0.01,0.01,0.79
1697352554.97,-0.06,0.73,0.73,-1.3,-2.4,54.3,0.6,0.01,0.01,0.8
1697352554.98,-0.06,0.57,1.21,-1,-3.3,53.1,0.6,0.01,0.01,0.8
1697352554.99,-0.15,0.57,0.83,-1.3,-3.3,51.7,0.6,0.01,0,0.8
1697352555,-0.15,0.55,1.36,-2.2,-3,49.9,0.59,0.01,0,0.81
1697352555.01,-0.06,0.59,1.29,-2.6,-2,48,0.59,0.01,0,0.81
1697352555.02,-0.06,0.59,1.29,-2.6,-2,48,0.59,0.01,0,0.81
1697352555.03,-0.1,0.73,1.23,-3.4,0,44.7,0.58,0.01,0,0.81
1697352555.04,-0.08,0.77,1.01,-3.4,0,44.7,0.58,0.01,0,0.81
1697352555.05,-0.06,0.58,1.1,0.6,1.3,42.2,0.58,0.01,0,0.82
1697352555.06,-0.06,0.58,1.1,0.6,1.3,42.2,0.58,0.01,0,0.82
1697352555.07,0.03,0.68,0.64,-1.6,1,40.3,0.57,0.01,0,0.82
1697352555.08,0.03,0.68,0.64,-1.6,1,40.3,0.57,0.01,0,0.82
1697352555.09,0.06,0.52,0.81,-0.9,1.5,38.8,0.56,0.01,0,0.83
1697352555.1,0.09,0.51,1.06,-0.9,1.5,38.8,0.56,0.01,0,0.83
1697352555.11,0.07,0.48,0.83,-0.6,1.5,37.2,0.56,0.01,0,0.83
1697352555.12,0.02,0.4,1.22,-0.6,1.5,37.2,0.56,0.01,0,0.83
1697352555.13,0.02,0.4,1.22,-1.2,1.3,36.1,0.56,0.01,0,0.83
1697352555.14,0.17,0.38,1.1,-2.4,0.6,34.6,0.55,0.01,0,0.83
1697352555.15,0.01,0.3,1.06,-3.6,0,33.5,0.55,0.01,0,0.83
1697352555.16,-0.03,0.37,0.96,-3.4,-0.6,30,0.55,0.01,0,0.84
1697352555.17,-0.03,0.37,0.96,-3.4,-0.6,30,0.55,0.01,0,0.84
1697352555.18,0.14,0.39,1.33,-1.5,-0.6,28,0.54,0.01,0,0.84
1697352555.19,-0.01,0.27,1.14,0,-0.8,26.4,0.54,0.01,0,0.84
1697352555.2,-0.13,0.2,1.2,0.1,-0.7,26,0.54,0.01,0,0.84
1697352555.21,0.11,0.22,0.89,0.4,-0.9,24.2,0.54,0.01,0,0.84
1697352555.22,-0.12,0.19,1.21,0,-1,22.9,0.54,0.01,0,0.84
1697352555.23,0.15,0.3,0.74,-1.3,-1.1,22.3,0.53,0.01,0,0.85
1697352555.24,-0.11,0.4,1.02,-1.9,-1.1,22,0.53,0.01,0,0.85
1697352555.25,0.03,0.38,1.09,-1.3,-1.2,22.5,0.53,0.01,0,0.85
1697352555.26,-0.07,0.29,1.01,1.1,-1.5,22.9,0.53,0.01,0,0.85
1697352555.27,-0.09,0.2,0.82,0.3,-2.2,23,0.53,0.01,0,0.85
1697352555.28,0.02,0.11,1.07,0,-1.9,22.3,0.53,0.01,0,0.85
1697352555.29,-0.05,-0.02,0.98,-0.5,-1.8,20,0.52,0.01,0,0.85
1697352555.3,0.02,-0.21,1.11,-2.4,-1.4,17.1,0.52,0.01,0,0.85
1697352555.31,-0.1,-0.27,0.96,-5,-1.3,13.4,0.52,0.01,0,0.85
1697352555.32,0.04,-0.35,1.1,-6.7,-1.8,8.7,0.52,0.01,0,0.85
1697352555.33,-0.07,-0.23,1.24,-6.5,-1.7,3.6,0.52,0.01,-0,0.85
1697352555.34,-0.07,-0.23,1.24,-6.5,-1.7,3.6,0.52,0.01,-0,0.85
1697352555.35,-0.07,-0.23,1.24,-6.5,-1.7,3.6,0.52,0.01,-0,0.85
1697352555.36,-0.07,-0.23,1.24,-6.5,-1.7,3.6,0.52,0.01,-0,0.85
1697352555.37,-0.07,-0.23,1.24,-6.5,-1.7,3.6,0.52,0.01,-0,0.85
1697352555.38,-0.07,-0.23,1.24,-6.5,-1.7,3.6,0.52,0.01,-0,0.85
1697352555.39,-0.07,-0.23,1.24,-6.5,-1.7,3.6,0.52,0.01,-0,0.85
1697352555.4,-0.07,-0.23,1.24,-6.5,-1.7,3.6,0.52,0.01,-0,0.85
1697352555.41,-0.07,-0.23,1.24,-6.5,-1.7,3.6,0.52,0.01,-0,0.85
1697352555.42,-0.07,-0.23,1.24,-6.5,-1.7,3.6,0.52,0.01,-0,0.85
1697352555.43,-0.07,-0.23,1.24,-6.5,-1.7,3.6,0.52,0.01,-0,0.85
1697352555.44,-0.07,-0.23,1.24,-6.5,-1.7,3.6,0.52,0.01,-0,0.85
1697352555.45,-0.07,-0.23,1.24,-6.5,-1.7,3.6,0.52,0.01,-0,0.85
1697352555.46,-0.07,-0.23,1.24,-6.5,-1.7,3.6,0.52,0.01,-0,0.85
1697352555.47,0.04,-0.72,0.62,-2.1,-1.2,-20.2,0.53,0.01,-0.01,0.85
1697352555.48,-0,-0.86,1.52,-1.1,-1.5,-22.2,0.54,0.01,-0.01,0.84
1697352555.49,-0,-0.86,1.52,-1.4,-1.8,-23.6,0.54,0.01,-0.01,0.84
1697352555.5,0.18,-0.77,1.07,-1.1,-1.9,-26.1,0.54,0.01,-0.01,0.84
1697352555.51,0.18,-0.77,1.07,-2,-1.5,-27.9,0.54,0.01,-0.01,0.84
1697352555.52,0.1,-0.65,0.65,-2.3,-1.1,-29.7,0.54,0.01,-0.01,0.84
1697352555.53,0.07,-0.62,0.78,-3.1,-0.7,-30.9,0.55,0.01,-0.01,0.84
1697352555.54,-0.01,-0.48,1.18,-1.1,0.3,-32.1,0.55,0.01,-0.01,0.84
1697352555.55,0.04,-0.47,1.01,3.9,1.2,-33,0.55,0.01,-0.01,0.83
1697352555.56,0.1,-0.76,1.1,3,1.4,-34.3,0.55,0.01,-0.01,0.83
1697352555.57,-0.08,-0.73,0.9,-0.4,1.8,-34.9,0.56,0.01,-0.01,0.83
1697352555.58,-0.06,-0.71,1.24,-2.9,2.3,-35.4,0.56,0.01,-0.01,0.83
1697352555.59,-0.06,-0.62,1.05,-3.6,2.7,-35.5,0.56,0,-0.01,0.83
1697352555.6,-0.02,-0.47,1.02,-3,2.9,-35.5,0.56,0,-0.01,0.83
1697352555.61,-0.18,-0.47,1.28,0,2.9,-35.2,0.57,0,-0.01,0.82
1697352555.62,0.05,-0.65,0.71,1.2,2.8,-35.1,0.57,0,-0.01,0.82
1697352555.63,-0.03,-0.66,1.22,0.2,2.3,-35.1,0.57,0,-0.01,0.82
1697352555.64,-0.01,-0.68,0.83,-1,1.8,-35.2,0.58,0,-0.01,0.82
1697352555.65,-0.09,-0.58,1.43,-1,1.8,-35.2,0.58,0,-0.01,0.82
1697352555.66,-0.15,-0.64,1.12,-1.8,0,-34.9,0.58,0,-0.01,0.81
1697352555.67,-0.01,-0.59,1.31,-2.4,-0.5,-34.3,0.58,0,-0.01,0.81
1697352555.68,0.03,-0.53,0.61,-3.4,-1,-33.4,0.59,0,-0.01,0.81
1697352555.69,-0.07,-0.41,0.9,-3.4,-1,-33.4,0.59,0,-0.01,0.81
1697352555.7,0.07,-0.36,0.97,0.2,-1.7,-31.7,0.59,0,-0.01,0.81
1697352555.71,0.07,-0.36,0.97,0.2,-1.7,-31.7,0.59,0,-0.01,0.81
1697352555.72,-0.17,-0.6,1.17,1.8,-1.1,-30.2,0.59,0,-0.01,0.8
1697352555.73,-0.17,-0.6,1.17,1.8,-1.1,-30.2,0.59,0,-0.01,0.8
1697352555.74,-0.12,-0.52,0.83,0,0.2,-29.6,0.6,0,-0.01,0.8
1697352555.75,-0.12,-0.52,0.83,0,0.2,-29.6,0.6,0,-0.01,0.8
1697352555.76,0.02,-0.42,0.93,0,0.6,-29.4,0.6,0,-0.01,0.8
1697352555.77,0.17,-0.54,0.76,0.3,1.6,-27.1,0.6,0,-0.01,0.8
1697352555.78,-0,-0.45,0.5,0.5,1.5,-26.8,0.61,0,-0.01,0.8
1697352555.79,-0,-0.45,0.5,0.5,1.5,-26.8,0.61,0,-0.01,0.79
1697352555.8,0.01,-0.39,1.23,-0.5,1.4,-26.9,0.61,0,-0.01,0.79
1697352555.81,-0.11,-0.33,0.79,-0.7,1.5,-27.5,0.61,0,-0.01,0.79
1697352555.82,-0.01,-0.41,1.32,1.9,1.8,-29.1,0.61,0,-0.01,0.79
1697352555.83,-0.11,-0.57,0.8,1.9,1.8,-29.1,0.61,0,-0.01,0.79
1697352555.84,-0.02,-0.56,1.4,2.8,1.1,-29.6,0.62,0,-0.01,0.79
1697352555.85,-0.01,-0.56,0.61,1.7,0.6,-30.2,0.62,0,-0.01,0.79
1697352555.86,-0.01,-0.56,0.61,1.7,0.6,-30.2,0.62,0,-0.01,0.79
1697352555.87,-0.01,-0.56,0.61,1.7,0.6,-30.2,0.62,0,-0.01,0.79
1697352555.88,-0.01,-0.56,0.61,1.7,0.6,-30.2,0.62,0,-0.01,0.79
1697352555.89,-0.01,-0.56,0.61,1.7,0.6,-30.2,0.62,0,-0.01,0.79
1697352555.9,-0.01,-0.56,0.61,1.7,0.6,-30.2,0.62,0,-0.01,0.79
1697352555.91,-0.01,-0.56,0.61,1.7,0.6,-30.2,0.62,0,-0.01,0.79
1697352555.92,-0.01,-0.56,0.61,1.7,0.6,-30.2,0.62,0,-0.01,0.79
1697352555.93,-0.01,-0.56,0.61,1.7,0.6,-30.2,0.62,0,-0.01,0.79
1697352555.94,-0.01,-0.56,0.61,1.7,0.6,-30.2,0.62,0,-0.01,0.79
1697352555.95,-0.01,-0.56,0.61,1.7,0.6,-30.2,0.62,0,-0.01,0.79
1697352555.96,-0.01,-0.56,0.61,1.7,0.6,-30.2,0.62,0,-0.01,0.79
1697352555.97,-0.01,-0.56,0.61,1.7,0.6,-30.2,0.62,0,-0.01,0.79
1697352555.98,-0.01,-0.56,0.61,1.7,0.6,-30.2,0.64,0,-0.01,0.77
1697352555.99,-0.1,-0.49,1.12,-0.5,1.9,-28.2,0.65,0,-0.01,0.76
1697352556,0.25,-0.5,0.94,-0.4,0.4,-28.4,0.65,0,-0.01,0.76
1697352556.01,0.17,-0.56,0.92,0.1,-1,-28.9,0.65,0,-0.01,0.76
1697352556.02,0.06,-0.5,1.2,0,-2.2,-29.3,0.65,0,-0.01,0.76
1697352556.03,0.2,-0.62,1.08,-2.2,-2.2,-30.3,0.65,0,-0.01,0.76
1697352556.04,-0.12,-0.46,1.33,-3.3,-1.5,-31.2,0.66,0,-0.01,0.75
1697352556.05,-0.2,-0.8,0.72,-3.5,-0.1,-32.3,0.66,0,-0.01,0.75
1697352556.06,-0.11,-0.72,1.43,-2.7,1,-34.9,0.66,0,-0.01,0.75
1697352556.07,-0.2,-0.69,0.83,-2.7,1,-34.9,0.66,0,-0.01,0.75
1697352556.08,0.01,-0.97,1.07,-3,2.2,-36.1,0.66,0,-0.01,0.75
1697352556.09,-0.18,-0.76,1.12,-3.1,3.3,-40.3,0.67,0,-0.01,0.75
1697352556.1,0.03,-0.72,1.27,-1.6,3,-41.1,0.67,0,-0.01,0.74
1697352556.11,0.03,-0.72,1.27,-1.6,3,-41.1,0.67,0,-0.01,0.74
1697352556.12,-0,-0.86,0.88,-0.5,2.4,-42.9,0.67,0,-0.01,0.74
1697352556.13,-0,-0.86,0.88,-1.6,0.8,-43.7,0.68,0,-0.01,0.74
1697352556.14,0.05,-0.9,1.16,-1.9,-0.5,-44.6,0.68,-0,-0.01,0.73
1697352556.15,0.13,-0.76,0.65,-1.4,-1.6,-45,0.68,-0,-0.01,0.73
1697352556.16,0.08,-0.83,1.22,-1.2,-2.4,-44.8,0.69,0,-0.01,0.73
1697352556.17,0.02,-0.74,1.04,0.1,-1.6,-44.7,0.69,0,-0.01,0.73
1697352556.18,-0.1,-0.74,1.03,1,-1,-43.9,0.69,0,-0.01,0.72
1697352556.19,-0.12,-0.85,1.02,1,-0.8,-43.8,0.69,0,-0.01,0.72
1697352556.2,0.08,-0.75,0.63,1.1,0,-43.7,0.7,0,-0.01,0.72
1697352556.21,-0.3,-0.78,1.12,0.9,1,-43.1,0.7,0,-0.01,0.71
1697352556.22,0.12,-0.79,0.96,0.6,1.9,-42.6,0.7,0,-0.01,0.71
1697352556.23,-0.04,-0.75,0.83,0.6,2.5,-42.3,0.71,0,-0.01,0.71
1697352556.24,0.05,-0.85,1.11,0.4,2.8,-42.1,0.71,0,-0.01,0.71
1697352556.25,0.05,-0.76,0.96,0.4,2.3,-42,0.71,0,-0.01,0.7
1697352556.26,0,-0.75,0.77,0,1.2,-42.3,0.71,0,-0.01,0.7
1697352556.27,0.08,-0.7,1.07,-0.5,0.3,-43.1,0.72,0,-0.01,0.7
1697352556.28,-0.07,-0.55,0.86,-0.5,0.3,-43.1,0.72,0,-0.01,0.7
1697352556.29,-0,-0.67,1,1.3,0,-43.3,0.72,0,-0.01,0.69
1697352556.3,0.02,-0.77,0.8,3.4,0.1,-44,0.72,0,-0.01,0.69
1697352556.31,-0.07,-0.84,1.08,3.1,0.6,-44.4,0.73,0,-0.01,0.69
1697352556.32,0,-0.7,1.04,0.3,1.1,-44.6,0.73,0,-0.01,0.68
1697352556.33,0.18,-0.52,0.74,1.9,2.6,-43.6,0.73,0,-0.01,0.68
1697352556.34,0.18,-0.52,0.74,1.9,2.6,-43.6,0.73,0,-0.01,0.68
1697352556.35,0.05,-0.93,0.99,1.3,2.5,-43.7,0.74,0,-0.01,0.67
1697352556.36,0.05,-0.93,0.99,1.3,2.5,-43.7,0.74,0,-0.01,0.67
1697352556.37,-0.13,-0.72,1.49,-3.1,2.2,-43.7,0.74,0,-0,0.67
1697352556.38,-0.13,-0.72,1.49,-3.1,2.2,-43.7,0.74,0,-0,0.67
1697352556.39,-0.13,-0.72,1.49,-3.1,2.2,-43.7,0.74,0,-0,0.67
1697352556.4,-0.13,-0.72,1.49,-3.1,2.2,-43.7,0.74,0,-0,0.67
1697352556.41,-0.13,-0.72,1.49,-3.1,2.2,-43.7,0.74,0,-0,0.67
1697352556.42,-0.13,-0.72,1.49,-3.1,2.2,-43.7,0.74,0,-0,0.67
1697352556.43,-0.13,-0.72,1.49,-3.1,2.2,-43.7,0.74,0,-0,0.67
1697352556.44,-0.13,-0.72,1.49,-3.1,2.2,-43.7,0.74,0,-0,0.67
1697352556.45,-0.13,-0.72,1.49,-3.1,2.2,-43.7,0.74,0,-0,0.67
1697352556.46,-0.13,-0.72,1.49,-3.1,2.2,-43.7,0.74,0,-0,0.67
1697352556.47,-0.13,-0.72,1.49,-3.1,2.2,-43.7,0.74,0,-0,0.67
1697352556.48,-0.13,-0.72,1.49,-3.1,2.2,-43.7,0.74,0,-0,0.67
1697352556.49,-0.13,-0.72,1.49,-3.1,2.2,-43.7,0.74,0,-0,0.67
1697352556.5,-0.22,-0.56,0.89,2.8,2,-33.5,0.77,-0,-0,0.64
1697352556.51,-0.33,-0.48,0.43,3.5,3.1,-31.9,0.77,-0,-0,0.64
1697352556.52,-0.41,-0.48,1.11,2.7,4.2,-29.6,0.78,-0,-0,0.63
1697352556.53,-0.38,-0.45,0.73,1.2,4.4,-27.8,0.78,-0,-0,0.63
1697352556.54,-0.22,-0.39,1.14,1.8,4.1,-27,0.78,-0,-0,0.63
1697352556.55,0.02,-0.21,0.7,1.8,4.1,-27,0.78,-0,-0,0.63
1697352556.56,0.04,-0.26,0.88,2.7,2.8,-26.3,0.78,-0,0,0.63
1697352556.57,-0.14,-0.27,1.06,4.6,0.8,-26.2,0.78,0,0,0.62
1697352556.58,0.07,-0.43,0.61,4.8,-0.7,-26.3,0.78,0,0,0.62
1697352556.59,0.15,-0.34,0.76,2.5,-1.6,-26.6,0.79,0,0,0.62
1697352556.6,-0.21,-0.29,1.46,-0.6,-2.3,-26.4,0.79,0,0,0.62
1697352556.61,0,-0.11,0.68,-3.2,-2.5,-26,0.79,0,0,0.61
1697352556.62,-0.21,-0.07,1.46,-2.4,-2,-25.1,0.79,0,0,0.61
1697352556.63,-0.08,-0.1,1,1,-1.3,-24.1,0.79,0,0,0.61
1697352556.64,-0.05,-0.38,0.74,4.2,0.8,-22.4,0.79,0,0,0.61
1697352556.65,-0.22,-0.54,1.46,0.9,3.7,-21.1,0.79,0,0,0.61
1697352556.66,0.09,-0.29,0.31,0.9,3.7,-21.1,0.79,0,0,0.61
1697352556.67,-0.15,-0.26,1.15,0,4.2,-19,0.8,0,0,0.6
1697352556.68,-0.15,-0.26,1.15,0,4.2,-19,0.8,0,0,0.6
1697352556.69,-0,-0.24,1.37,3.5,1.6,-16.3,0.8,0,0,0.6
1697352556.7,0.03,-0.2,0.7,3.5,1.6,-16.3,0.8,0,0,0.6
1697352556.71,0.06,-0.27,1.16,1.7,0,-14.9,0.8,0,0,0.6
1697352556.72,-0.1,-0.12,1,0.4,-1.5,-13.6,0.8,0,0,0.6
1697352556.73,-0.16,-0.08,1.43,-0.3,-2.5,-12.7,0.8,0,0,0.6
1697352556.74,-0.24,-0.05,0.51,1.1,-2.7,-11.6,0.8,0,0,0.6
1697352556.75,-0.24,-0.05,0.51,2.3,-1.8,-11,0.8,0,0,0.6
1697352556.76,-0.26,-0.12,1.29,2.2,-1.3,-10.6,0.8,0,0,0.6
1697352556.77,-0.22,-0.12,1.13,0.6,-0.9,-9.9,0.8,0,0,0.6
1697352556.78,-0.12,-0.02,1.28,0.1,-0.6,-9.4,0.8,0,0,0.6
1697352556.79,-0.14,0.01,1.29,0.7,-1.1,-9.4,0.8,0,0,0.59
1697352556.8,0.05,0.19,0.97,1.7,-1.3,-8.7,0.8,0,0,0.59
1697352556.81,-0.07,0.16,1.11,4,-2.1,-7.6,0.8,0,0,0.59
1697352556.82,-0.14,0.16,1.26,4.7,-2.3,-5.9,0.8,0,0,0.59
1697352556.83,-0.14,0.16,1.26,4.7,-2.3,-5.9,0.8,0,0,0.59
1697352556.84,-0.14,0.16,1.26,4.7,-2.3,-5.9,0.8,0,0,0.59
1697352556.85,-0.14,0.16,1.26,4.7,-2.3,-5.9,0.8,0,0,0.59
1697352556.86,-0.14,0.16,1.26,4.7,-2.3,-5.9,0.8,0,0,0.59
1697352556.87,-0.14,0.16,1.26,4.7,-2.3,-5.9,0.8,0,0,0.59
1697352556.88,-0.14,0.16,1.26,4.7,-2.3,-5.9,0.8,0,0,0.59
1697352556.89,-0.14,0.16,1.26,4.7,-2.3,-5.9,0.8,0,0,0.59
1697352556.9,-0.14,0.16,1.26,4.7,-2.3,-5.9,0.8,0,0,0.59
1697352556.91,-0.14,0.16,1.26,4.7,-2.3,-5.9,0.8,0,0,0.59
1697352556.92,-0.14,0.16,1.26,4.7,-2.3,-5.9,0.8,0,0,0.59
1697352556.93,-0.14,0.16,1.26,4.7,-2.3,-5.9,0.8,0,0,0.59
1697352556.94,-0.14,0.16,1.26,4.7,-2.3,-5.9,0.8,0,0,0.59
1697352556.95,-0.14,0.16,1.26,4.7,-2.3,-5.9,0.8,0,0,0.59
1697352556.96,-0.14,0.16,1.26,4.7,-2.3,-5.9,0.8,0,0,0.59
1697352556.97,-0.14,0.16,1.26,4.7,-2.3,-5.9,0.8,0,0,0.59
1697352556.98,-0.14,0.16,1.26,4.7,-2.3,-5.9,0.8,0,0,0.59
1697352556.99,-0.14,0.16,1.26,4.7,-2.3,-5.9,0.8,0,0,0.59
1697352557,-0.14,0.16,1.26,4.7,-2.3,-5.9,0.8,0,0,0.59
1697352557.01,-0.14,0.16,1.26,4.7,-2.3,-5.9,0.8,0,0,0.59
1697352557.02,-0.14,0.16,1.26,4.7,-2.3,-5.9,0.8,0,0,0.59
1697352557.03,-0.14,0.16,1.26,4.7,-2.3,-5.9,0.8,0,0,0.59
1697352557.04,-0.14,0.16,1.26,4.7,-2.3,-5.9,0.8,0,0,0.59
1697352557.05,-0.14,0.16,1.26,4.7,-2.3,-5.9,0.8,0,0,0.59
1697352557.06,-0.14,0.16,1.26,4.7,-2.3,-5.9,0.8,0,0,0.59
1697352557.07,-0.14,0.16,1.26,4.7,-2.3,-5.9,0.8,0,0,0.59
1697352557.08,-0.14,0.16,1.26,4.7,-2.3,-5.9,0.8,0,0,0.59
1697352557.09,-0.14,0.16,1.26,4.7,-2.3,-5.9,0.8,0,0,0.59
1697352557.1,-0.24,0.89,0.78,0.3,0.8,54.8,0.74,0.01,0.01,0.67
1697352557.11,-0.2,0.74,0.8,-1.5,1.2,54.3,0.74,0.01,0.01,0.68
1697352557.12,-0.16,0.71,1.03,-3.7,1.2,53.9,0.73,0.01,0.01,0.68
1697352557.13,-0.13,0.87,0.92,-5,0.6,53.7,0.73,0.01,0.01,0.68
1697352557.14,-0.17,0.85,1.32,-3.6,1.2,53.5,0.73,0.01,0.01,0.69
1697352557.15,-0.14,0.86,0.82,0.1,1.6,53.1,0.72,0.01,0.01,0.69
1697352557.16,-0.15,0.68,1.1,3.3,2,52.1,0.72,0.01,0.01,0.69
1697352557.17,-0.16,0.58,0.71,2.9,2,50.5,0.72,0.01,0.01,0.7
1697352557.18,-0.24,0.33,1.35,2.2,2.2,50,0.71,0.01,0.01,0.7
1697352557.19,-0.14,0.46,0.7,-0.9,2.5,47.7,0.71,0.01,0.01,0.7
1697352557.2,-0.1,0.57,1.27,-4.4,3.1,46,0.71,0.01,0.01,0.71
1697352557.21,-0.19,0.79,1.2,-4.8,3,44.6,0.71,0.01,0.01,0.71
1697352557.22,-0.08,0.75,1.16,-3.5,2.8,44.4,0.7,0.01,0.01,0.71
1697352557.23,-0.1,0.84,0.87,-1,2.5,43.9,0.7,0.01,0.01,0.71
1697352557.24,-0.24,0.67,1.4,1.5,2.3,43.9,0.7,0.01,0.01,0.72
1697352557.25,0.11,0.5,0.88,2.3,1.7,43.7,0.69,0.01,0.01,0.72
1697352557.26,0.23,0.51,0.91,-1.4,-0.5,43.5,0.69,0.01,0.01,0.72
1697352557.27,0.32,0.6,1.08,-2.5,-2.4,43.3,0.69,0.01,0.01,0.72
1697352557.28,0.33,0.74,1.21,-2.7,-4,44.2,0.69,0.01,0.01,0.72
1697352557.29,0.36,0.72,0.96,0.3,-4.6,43.8,0.68,0.01,0.01,0.73
1697352557.3,0.24,0.73,0.79,2.5,-4.9,43.5,0.68,0.01,0,0.73
1697352557.31,0.24,0.73,0.79,2.5,-4.9,43.5,0.68,0.01,0,0.73
1697352557.32,-0.09,0.39,0.94,2.6,-3,43.3,0.67,0.01,0,0.74
1697352557.33,-0.09,0.39,0.94,2.6,-3,43.3,0.67,0.01,0,0.74
1697352557.34,-0.17,0.79,0.98,0,0.9,45,0.67,0.01,0,0.74
1697352557.35,-0.26,0.88,1.29,-0.8,3.2,46.9,0.67,0.01,0.01,0.75
1697352557.36,-0.08,1,0.74,-0.8,3.2,46.9,0.67,0.01,0.01,0.75
1697352557.37,-0.25,0.84,1.29,1.5,4.8,49.7,0.66,0.01,0.01,0.75
1697352557.38,0.15,0.73,0.98,1.5,4.8,49.7,0.66,0.01,0.01,0.75
1697352557.39,0.15,0.73,0.98,2.1,4,50.6,0.66,0.01,0.01,0.76
1697352557.4,0.06,0.64,1.18,0.9,3,50.6,0.65,0.01,0.01,0.76
1697352557.41,0.06,0.64,1.18,-0.6,1.3,50.7,0.65,0.01,0.01,0.76
1697352557.42,0.13,0.78,0.97,-2,-0.5,50.3,0.64,0.01,0.01,0.76
1697352557.43,0.07,0.69,1.06,-3.3,-1.6,49.5,0.64,0.01,0.01,0.77
1697352557.44,-0.04,0.94,0.67,-3.3,-1.5,48.6,0.64,0.01,0.01,0.77
1697352557.45,-0.05,0.87,1.16,-2.9,-0.5,48.4,0.63,0.01,0,0.77
1697352557.46,0,0.98,1.02,0,-0.2,48.4,0.63,0.01,0.01,0.78
1697352557.47,-0.04,0.78,1.15,3.1,0,47.8,0.63,0.01,0.01,0.78
1697352557.48,0.11,0.75,1,3.5,0.4,47.9,0.63,0.01,0.01,0.78
1697352557.49,0.13,0.48,0.74,3.3,1.2,46.8,0.62,0.01,0.01,0.78
1697352557.5,0.13,0.48,0.74,3.3,1.2,46.8,0.62,0.01,0.01,0.78
1697352557.51,0.13,0.48,0.74,3.3,1.2,46.8,0.62,0.01,0.01,0.78
1697352557.52,0.13,0.48,0.74,3.3,1.2,46.8,0.62,0.01,0.01,0.78
1697352557.53,0.13,0.48,0.74,3.3,1.2,46.8,0.62,0.01,0.01,0.78
1697352557.54,0.13,0.48,0.74,3.3,1.2,46.8,0.62,0.01,0.01,0.78
1697352557.55,0.13,0.48,0.74,3.3,1.2,46.8,0.62,0.01,0.01,0.78
1697352557.56,0.13,0.48,0.74,3.3,1.2,46.8,0.62,0.01,0.01,0.78
1697352557.57,0.13,0.48,0.74,3.3,1.2,46.8,0.62,0.01,0.01,0.78
1697352557.58,0.13,0.48,0.74,3.3,1.2,46.8,0.62,0.01,0.01,0.78
1697352557.59,0.13,0.48,0.74,3.3,1.2,46.8,0.62,0.01,0.01,0.78
1697352557.6,0.13,0.48,0.74,3.3,1.2,46.8,0.62,0.01,0.01,0.78
1697352557.61,0.13,0.48,0.74,3.3,1.2,46.8,0.62,0.01,0.01,0.78
1697352557.62,0.13,0.48,0.74,3.3,1.2,46.8,0.62,0.01,0.01,0.78
1697352557.63,0.13,0.48,0.74,3.3,1.2,46.8,0.62,0.01,0.01,0.78
1697352557.64,-0.07,0.4,0.89,3.3,0.8,34.3,0.58,0.01,0,0.82
1697352557.65,0.09,0.28,0.83,4.6,1.9,33.4,0.57,0.01,0,0.82
1697352557.66,0.02,0.15,1.03,4.6,1.9,33.4,0.57,0.01,0,0.82
1697352557.67,0.07,0.38,0.84,-0.7,3.8,30.9,0.57,0.01,0,0.82
1697352557.68,-0.04,0.43,0.87,-4.6,3.2,29.6,0.57,0.01,0,0.82
1697352557.69,0.08,0.32,0.99,-5.8,2.3,28.8,0.57,0,0,0.82
1697352557.7,0.08,0.01,0.83,-3.7,1.5,27.8,0.57,0,0,0.82
1697352557.71,0.08,0.01,0.83,-3.7,1.5,27.8,0.56,0,0,0.83
1697352557.72,-0.07,-0.57,1.1,-1,-0.4,23,0.56,0,0,0.83
1697352557.73,0.07,-0.51,0.91,-1,-0.4,23,0.56,0,0,0.83
1697352557.74,-0.1,-0.35,1.5,-8.8,-1.3,13.8,0.56,0,0,0.83
1697352557.75,-0.1,-0.35,1.5,-8.8,-1.3,13.8,0.56,0,0,0.83
1697352557.76,0.15,-0.33,0.69,-11.1,-1,7.7,0.56,0,0,0.83
1697352557.77,-0,-0.42,0.97,-9.2,0,0.6,0.56,0,0,0.83
1697352557.78,-0,-0.42,0.97,-6.8,0.3,-3.7,0.56,0,0,0.83
1697352557.79,-0.14,-0.29,1.19,-5.5,0.5,-7.4,0.56,0,-0,0.83
1697352557.8,0.05,-0.24,0.7,-5.7,1,-9.7,0.56,0,-0,0.83
1697352557.81,-0.05,-0.09,1.5,-5.8,1.4,-10.6,0.56,0,-0,0.83
1697352557.82,0.14,-0.19,0.47,-4.1,1.7,-9.9,0.56,0,-0,0.83
1697352557.83,0.02,-0.14,1.32,-0.8,1.2,-8.7,0.56,0,-0,0.83
1697352557.84,0.14,-0.36,0.67,0,0.7,-6.6,0.56,0,-0,0.83
1697352557.85,-0.1,-0.26,1.36,-0.9,0.4,-5.3,0.56,0,-0,0.83
1697352557.86,-0.01,-0.18,1.34,-3.6,0.5,-3.4,0.56,0,-0,0.83
1697352557.87,0.12,-0.17,0.59,-2.7,0.4,-2.8,0.56,0,-0,0.83
1697352557.88,-0.01,-0.15,1.32,0.6,-0.1,-2.5,0.56,0,-0,0.83
1697352557.89,0.07,-0.4,0.88,1.1,-0.8,-3.8,0.56,0,-0,0.83
1697352557.9,0.04,-0.44,0.96,0.4,-1.1,-6.2,0.56,0,-0,0.83
1697352557.91,0.11,-0.47,0.83,-1,-1.5,-9,0.56,0,-0,0.83
1697352557.92,0.15,-0.53,0.85,-1.5,-1.7,-9.7,0.57,0,-0,0.82
1697352557.93,0.01,-0.54,1.14,-3,-2,-13,0.57,0,-0,0.82
1697352557.94,0.02,-0.57,1.35,-3.4,-2.4,-16.6,0.57,0,-0,0.82
1697352557.95,-0.07,-0.33,0.92,-3.7,-1.5,-19.9,0.57,0,-0,0.82
1697352557.96,-0.07,-0.33,0.92,-3.7,-1.5,-19.9,0.57,0,-0,0.82
1697352557.97,-0.05,-0.54,1.11,-2.5,-0.5,-25.7,0.57,0,-0,0.82
1697352557.98,-0.05,-0.54,1.11,-2.5,-0.5,-25.7,0.57,0,-0,0.82
1697352557.99,-0.2,-0.99,1.19,-5.2,0.4,-32,0.58,0,-0,0.82
1697352558,-0.12,-0.82,0.76,-7.3,0.9,-35.7,0.58,0,-0,0.82
1697352558.01,-0.12,-0.82,0.76,-7.3,0.9,-35.7,0.58,-0,-0,0.81
1697352558.02,-0.12,-0.82,0.76,-7.3,0.9,-35.7,0.58,-0,-0,0.81
1697352558.03,-0.12,-0.82,0.76,-7.3,0.9,-35.7,0.58,-0,-0,0.81
1697352558.04,-0.12,-0.82,0.76,-7.3,0.9,-35.7,0.58,-0,-0,0.81
1697352558.05,-0.12,-0.82,0.76,-7.3,0.9,-35.7,0.58,-0,-0,0.81
1697352558.06,-0.12,-0.82,0.76,-7.3,0.9,-35.7,0.58,-0,-0,0.81
1697352558.07,-0.12,-0.82,0.76,-7.3,0.9,-35.7,0.58,-0,-0,0.81
1697352558.08,-0.12,-0.82,0.76,-7.3,0.9,-35.7,0.58,-0,-0,0.81
1697352558.09,-0.12,-0.82,0.76,-7.3,0.9,-35.7,0.58,-0,-0,0.81
1697352558.1,-0.12,-0.82,0.76,-7.3,0.9,-35.7,0.58,-0,-0,0.81
1697352558.11,-0.12,-0.82,0.76,-7.3,0.9,-35.7,0.58,-0,-0,0.81
1697352558.12,-0.12,-0.82,0.76,-7.3,0.9,-35.7,0.58,-0,-0,0.81
1697352558.13,-0.12,-0.82,0.76,-7.3,0.9,-35.7,0.58,-0,-0,0.81
1697352558.14,-0.13,-0.92,1.01,1.4,1.6,-45.3,0.62,-0,-0.01,0.78
1697352558.15,-0.11,-1.06,1.2,0.2,1.7,-46.5,0.62,-0,-0.01,0.78
1697352558.16,-0.11,-0.85,0.71,-0.6,1.1,-47.3,0.63,-0,-0.01,0.78
1697352558.17,0.01,-0.84,1.3,-0.7,0.6,-47.8,0.63,-0,-0.01,0.78
1697352558.18,-0.18,-0.95,0.72,-0.8,0.5,-48.8,0.63,-0,-0.01,0.77
1697352558.19,0.09,-0.69,0.62,-2.7,0.2,-49.3,0.64,-0,-0.01,0.77
1697352558.2,-0.27,-1.02,1.14,-2.3,0.5,-50.5,0.64,-0,-0.01,0.77
1697352558.21,0.03,-0.63,0.87,-1.1,0.5,-51.1,0.64,-0,-0.01,0.76
1697352558.22,-0.28,-0.89,1.12,1.6,0.5,-52.2,0.65,-0,-0.01,0.76
1697352558.23,0.03,-0.95,0.82,1.1,0.5,-53.4,0.65,-0,-0.01,0.76
1697352558.24,-0.3,-1.05,0.97,-0.9,0.6,-53.7,0.66,-0,-0.01,0.76
1697352558.25,-0.02,-1.19,1.14,-0.9,0.6,-53.7,0.66,-0,-0.01,0.76
1697352558.26,-0.14,-0.95,1.16,-3.8,0.9,-56,0.66,-0,-0.01,0.75
1697352558.27,-0.17,-0.89,1.22,-2.7,0.9,-55.6,0.67,-0,-0.01,0.75
1697352558.28,-0.17,-0.89,1.22,-2.7,0.9,-55.6,0.67,-0,-0.01,0.75
1697352558.29,-0.15,-0.96,1.07,0.6,1.5,-56.3,0.67,-0,-0.01,0.74
1697352558.3,-0.19,-0.9,0.62,1.1,1.7,-56.4,0.68,-0,-0.01,0.74
1697352558.31,-0.1,-1.1,1.26,0.8,1.7,-56.7,0.68,-0,-0.01,0.73
1697352558.32,-0.28,-1.06,0.84,-0.1,1.4,-57,0.69,-0,-0.01,0.73
1697352558.33,0.01,-1.13,1.21,-1.3,1,-57.6,0.69,-0,-0.01,0.72
1697352558.34,-0.11,-0.96,0.8,-1.9,0.5,-57.6,0.69,-0,-0.01,0.72
1697352558.35,0.02,-0.88,0.85,-1.8,0.4,-57.2,0.7,-0,-0.01,0.72
1697352558.36,-0.24,-0.88,0.96,-0.9,0.3,-56.8,0.7,-0,-0.01,0.72
1697352558.37,-0.05,-0.89,1,-0.2,0.8,-56.6,0.7,-0,-0.01,0.71
1697352558.38,-0.05,-0.89,1,-0.2,0.8,-56.6,0.7,-0,-0.01,0.71
1697352558.39,-0.09,-1.01,0.58,-0.1,2.2,-56.4,0.71,-0,-0.01,0.7
1697352558.4,-0.21,-0.99,1.43,-0.3,2,-56.5,0.71,-0,-0.01,0.7
1697352558.41,0.12,-0.9,0.44,-0.3,2,-56.5,0.71,-0,-0.01,0.7
1697352558.42,-0.21,-0.96,1.36,1.6,1.1,-56.1,0.72,-0,-0.01,0.69
1697352558.43,0.02,-1.03,0.99,1.6,1.1,-56.1,0.72,-0,-0.01,0.69
1697352558.44,-0.09,-0.96,0.99,1.2,0.7,-56.5,0.72,-0,-0.01,0.69
1697352558.45,-0.02,-1.02,1.18,1.2,0.6,-57.4,0.73,-0,-0.01,0.69
1697352558.46,-0.02,-1.02,1.18,1.2,0.6,-57.4,0.73,-0,-0.01,0.68
1697352558.47,-0.24,-0.86,1.03,1.2,0.8,-58.2,0.73,-0,-0.01,0.68
1697352558.48,-0.24,-0.86,1.03,1.2,1.1,-58.9,0.74,-0,-0.01,0.67
1697352558.49,-0.37,-0.97,1.15,1.1,1.6,-59.4,0.74,-0,-0.01,0.67
1697352558.5,-0.13,-1.03,1.05,-0.2,1.5,-60.1,0.75,-0,-0.01,0.67
1697352558.51,-0.31,-1.1,1.36,-2.3,1.5,-60.4,0.75,-0,-0.01,0.66
1697352558.52,-0.21,-0.81,0.77,-2.8,1.4,-60.2,0.75,-0,-0.01,0.66
1697352558.53,0.01,-0.82,0.82,-2.8,1.4,-60.2,0.75,-0,-0.01,0.66
1697352558.54,0.01,-0.82,0.82,-2.8,1.4,-60.2,0.75,-0,-0.01,0.66
1697352558.55,0.01,-0.82,0.82,-2.8,1.4,-60.2,0.75,-0,-0.01,0.66
1697352558.56,0.01,-0.82,0.82,-2.8,1.4,-60.2,0.75,-0,-0.01,0.66
1697352558.57,0.01,-0.82,0.82,-2.8,1.4,-60.2,0.75,-0,-0.01,0.66
1697352558.58,0.01,-0.82,0.82,-2.8,1.4,-60.2,0.75,-0,-0.01,0.66
1697352558.59,0.01,-0.82,0.82,-2.8,1.4,-60.2,0.75,-0,-0.01,0.66
1697352558.6,0.01,-0.82,0.82,-2.8,1.4,-60.2,0.75,-0,-0.01,0.66
1697352558.61,0.01,-0.82,0.82,-2.8,1.4,-60.2,0.75,-0,-0.01,0.66
1697352558.62,0.01,-0.82,0.82,-2.8,1.4,-60.2,0.75,-0,-0.01,0.66
1697352558.63,0.01,-0.82,0.82,-2.8,1.4,-60.2,0.75,-0,-0.01,0.66
1697352558.64,0.01,-0.82,0.82,-2.8,1.4,-60.2,0.75,-0,-0.01,0.66
1697352558.65,0.01,-0.82,0.82,-2.8,1.4,-60.2,0.75,-0,-0.01,0.66
1697352558.66,0.01,-0.82,0.82,-2.8,1.4,-60.2,0.79,-0,-0,0.61
1697352558.67,0.21,-0.54,0.93,3.1,1.3,-33.6,0.79,-0,-0,0.61
1697352558.68,-0.24,-0.08,1.66,6.3,1.3,-34.9,0.79,-0,-0,0.61
1697352558.69,0.32,-0.38,0.39,5.6,0.5,-34.3,0.8,0,-0,0.6
1697352558.7,0.15,-0.23,1.16,4.7,-0.2,-32.7,0.8,0,-0,0.6
1697352558.71,0.32,-0.03,0.69,3.8,-1.5,-31.4,0.8,0,-0,0.6
1697352558.72,0.18,-0.2,1.08,1.7,-2.5,-27.4,0.8,0,-0,0.6
1697352558.73,0.27,-0.07,0.88,1.4,-2.9,-24.4,0.8,0,-0,0.6
1697352558.74,0.24,-0.14,0.81,1.3,-3.1,-21.7,0.8,0,-0,0.6
1697352558.75,-0.36,-0.69,0.8,1.4,-2.7,-19.3,0.8,0,-0,0.59
1697352558.76,0.37,0.35,0.09,3,-1.5,-20.7,0.8,0,-0,0.59
1697352558.77,-0.26,-0.63,1.6,1.1,-0.1,-19.3,0.81,0,-0,0.59
1697352558.78,0.27,0.22,0.19,3,1.1,-19,0.81,0,-0,0.59
1697352558.79,-0.25,0.05,1.76,2.7,2.7,-18.2,0.81,0,-0,0.59
1697352558.8,-0.25,0.05,1.76,2.7,2.7,-18.2,0.81,0,-0,0.59
1697352558.81,0.21,0.24,1.13,2.2,3.1,-14.4,0.81,0,-0,0.59
1697352558.82,0.27,0.2,1.18,0.6,2.2,-8.7,0.81,0,-0,0.59
1697352558.83,0.3,0.24,0.59,-0.1,0.9,-4.9,0.81,0,-0,0.59
1697352558.84,0.2,0.51,0.67,-0.1,0.9,-4.9,0.81,0,-0,0.59
1697352558.85,0.17,0.51,0.85,4.2,-1.9,5.3,0.81,0,-0,0.59
1697352558.86,0.17,0.51,0.85,4.2,-1.9,5.3,0.81,0,-0,0.59
1697352558.87,-0.06,0.57,1.14,8.3,-2.5,12.6,0.81,0,-0,0.59
1697352558.88,-0.06,0.57,1.14,8.3,-2.5,12.6,0.81,0,-0,0.59
1697352558.89,0.01,0.51,0.76,8.5,-2.6,15.7,0.81,0.01,-0,0.59
1697352558.9,-0.15,0.77,1.44,7.9,-1.9,20.1,0.81,0.01,-0,0.59
1697352558.91,0.14,0.8,0.99,7.8,-1.7,21.1,0.81,0.01,-0,0.59
1697352558.92,0.1,1.01,0.87,8,-0.7,24.4,0.8,0.01,-0,0.59
1697352558.93,0.1,0.98,1.05,9,-0.7,28.1,0.8,0.01,0,0.6
1697352558.94,0.18,0.86,1.28,8.9,-1.1,31.3,0.8,0.01,0,0.6
1697352558.95,-0.08,0.71,1.03,7.4,-1.9,33.5,0.8,0.01,0,0.6
1697352558.96,0.07,0.87,0.88,4,-2.4,35.3,0.8,0.01,0,0.6
1697352558.97,-0.02,0.89,1.22,1.5,-2.9,36.8,0.8,0.01,0,0.61
1697352558.98,0.12,0.89,0.96,0.4,-2.2,37.4,0.79,0.01,0,0.61
1697352558.99,0.07,0.78,0.86,-0.2,-1.8,38.8,0.79,0.01,-0,0.61
1697352559,-0.01,0.83,1.19,-0.5,-1.5,39,0.79,0.01,-0,0.61
1697352559.01,0.14,0.69,1.06,-1.2,-1.8,39.2,0.79,0.01,-0,0.61
1697352559.02,0.14,0.71,0.79,-1.8,-1.8,39,0.79,0.01,-0,0.62
1697352559.03,0.03,0.72,1.08,-1.7,-1.6,38.3,0.78,0.01,-0,0.62
1697352559.04,0.16,0.7,0.96,-1.2,-1.1,37.7,0.78,0.01,-0,0.62
1697352559.05,0.08,0.75,0.78,-0.4,-0.2,37.3,0.78,0.01,-0,0.62
1697352559.06,0.08,0.75,0.78,-0.4,-0.2,37.3,0.78,0.01,-0,0.62
1697352559.07,0.08,0.75,0.78,-0.4,-0.2,37.3,0.78,0.01,-0,0.62
1697352559.08,0.08,0.75,0.78,-0.4,-0.2,37.3,0.78,0.01,-0,0.62
1697352559.09,0.08,0.75,0.78,-0.4,-0.2,37.3,0.78,0.01,-0,0.62
1697352559.1,0.08,0.75,0.78,-0.4,-0.2,37.3,0.78,0.01,-0,0.62
1697352559.11,0.08,0.75,0.78,-0.4,-0.2,37.3,0.78,0.01,-0,0.62
1697352559.12,0.08,0.75,0.78,-0.4,-0.2,37.3,0.78,0.01,-0,0.62
1697352559.13,0.08,0.75,0.78,-0.4,-0.2,37.3,0.78,0.01,-0,0.62
1697352559.14,0.08,0.75,0.78,-0.4,-0.2,37.3,0.78,0.01,-0,0.62
1697352559.15,0.08,0.75,0.78,-0.4,-0.2,37.3,0.78,0.01,-0,0.62
1697352559.16,0.08,0.75,0.78,-0.4,-0.2,37.3,0.78,0.01,-0,0.62
1697352559.17,0.08,0.75,0.78,-0.4,-0.2,37.3,0.78,0.01,-0,0.62
1697352559.18,0.08,0.75,0.78,-0.4,-0.2,37.3,0.78,0.01,-0,0.62
1697352559.19,0.08,0.75,0.78,-0.4,-0.2,37.3,0.78,0.01,-0,0.62
1697352559.2,0.08,0.75,0.78,-0.4,-0.2,37.3,0.78,0.01,-0,0.62
1697352559.21,0.08,0.75,0.78,-0.4,-0.2,37.3,0.78,0.01,-0,0.62
1697352559.22,0.08,0.75,0.78,-0.4,-0.2,37.3,0.78,0.01,-0,0.62
1697352559.23,0.08,0.75,0.78,-0.4,-0.2,37.3,0.78,0.01,-0,0.62
1697352559.24,0.08,0.75,0.78,-0.4,-0.2,37.3,0.78,0.01,-0,0.62
1697352559.25,0.05,0.57,1.49,1,1.8,34.2,0.74,0.01,-0,0.68
1697352559.26,0.24,0.54,0.59,0,1.7,33.9,0.73,0.01,-0,0.68
1697352559.27,0.15,0.59,0.86,-0.5,1.3,33.8,0.73,0.01,-0,0.68
1697352559.28,0.12,0.54,0.84,-1.6,1,33.5,0.73,0.01,-0,0.68
1697352559.29,-0.04,0.61,1.19,-2.8,0.8,33.4,0.73,0.01,-0,0.69
1697352559.3,0.03,0.76,0.97,-3.1,0.6,33.3,0.73,0.01,-0,0.69
1697352559.31,0.03,0.45,1.28,-1.3,1.5,33.2,0.72,0.01,-0,0.69
1697352559.32,0.21,0.41,0.7,2.2,1.6,33.5,0.72,0.01,-0,0.69
1697352559.33,0.03,0.46,1.33,2.9,1.6,33.6,0.72,0.01,-0,0.69
1697352559.34,0.16,0.33,1.16,2.1,1.4,33.2,0.72,0.01,-0,0.7
1697352559.35,0.13,0.51,0.62,0.7,0.8,32.7,0.72,0.01,-0,0.7
1697352559.36,0.16,0.52,0.37,-1,-0.3,31.9,0.71,0.01,-0,0.7
1697352559.37,0,0.4,1.05,-1.4,-1.1,31.3,0.71,0.01,-0,0.7
1697352559.38,0.11,0.43,0.75,-1.4,-1.6,30.5,0.71,0.01,-0,0.7
1697352559.39,0.01,0.28,1.09,-0.8,-1.4,29,0.71,0.01,-0,0.71
1697352559.4,0.13,0.33,0.94,-1,-1.2,27.8,0.71,0.01,-0,0.71
1697352559.41,0.15,0.35,0.75,-1.5,-0.7,26.4,0.7,0.01,-0,0.71
1697352559.42,-0.03,0.23,1.34,-0.9,-0.1,25.1,0.7,0.01,-0,0.71
1697352559.43,-0.03,0.23,1.34,-0.9,-0.1,25.1,0.7,0.01,-0,0.71
1697352559.44,0.18,0.31,0.64,-1.1,0.4,22.4,0.7,0.01,-0,0.71
1697352559.45,0.18,0.31,0.64,-1.5,0.2,21.3,0.7,0.01,-0,0.72
1697352559.46,0.02,0.18,0.96,-2.7,0.4,20.8,0.7,0.01,-0,0.72
1697352559.47,-0.01,0.44,1.31,-3.5,0.8,19.9,0.7,0.01,-0,0.72
1697352559.48,0.27,0.29,0.37,-1.5,1.1,19.4,0.7,0.01,-0,0.72
1697352559.49,-0.03,0.24,1.2,-1.5,1.1,19.4,0.7,0.01,-0,0.72
1697352559.5,0.14,0.18,1.13,1.2,1.8,19.3,0.69,0.01,-0,0.72
1697352559.51,0,0.21,0.74,1.2,1.8,19.3,0.69,0.01,-0,0.72
1697352559.52,-0.03,0.22,1.35,-0.7,2.2,19.1,0.69,0.01,-0,0.72
1697352559.53,-0.06,0.28,1.28,-0.7,2.2,19.1,0.69,0.01,-0,0.72
1697352559.54,0.24,0.35,0.72,-0.1,2.6,19.6,0.69,0.01,-0,0.73
1697352559.55,-0.11,0.38,1.21,0.9,2.1,19.7,0.69,0.01,-0,0.73
1697352559.56,-0.11,0.38,1.21,0.9,2.1,19.7,0.69,0.01,-0,0.73
1697352559.57,0.24,0.31,0.33,2.3,0.4,19.3,0.68,0.01,-0,0.73
1697352559.58,-0.19,0.22,1.45,2.3,0.4,19.3,0.68,0.01,-0,0.73
1697352559.59,0.27,0.18,0.14,2.4,0.3,18.6,0.68,0.01,-0,0.73
1697352559.6,0.01,0.25,1.07,0.9,0.2,18,0.68,0.01,-0,0.73
1697352559.61,0.01,0.25,1.07,-1,1,17.2,0.68,0.01,-0,0.73
1697352559.62,-0.1,0.26,1.42,-1.4,0.9,16.4,0.68,0.01,-0,0.73
1697352559.63,-0.15,0.32,1.57,-0.7,0.7,15.7,0.68,0.01,-0,0.73
1697352559.64,0.16,0.23,0.58,-0.2,0.3,15.3,0.68,0.01,-0,0.74
1697352559.65,0.16,0.23,0.58,-0.2,0.3,15.3,0.68,0.01,-0,0.74
1697352559.66,0.16,0.23,0.58,-0.2,0.3,15.3,0.68,0.01,-0,0.74
1697352559.67,0.16,0.23,0.58,-0.2,0.3,15.3,0.68,0.01,-0,0.74
1697352559.68,0.16,0.23,0.58,-0.2,0.3,15.3,0.68,0.01,-0,0.74
1697352559.69,0.16,0.23,0.58,-0.2,0.3,15.3,0.68,0.01,-0,0.74
1697352559.7,0.16,0.23,0.58,-0.2,0.3,15.3,0.68,0.01,-0,0.74
1697352559.71,0.16,0.23,0.58,-0.2,0.3,15.3,0.68,0.01,-0,0.74
1697352559.72,0.16,0.23,0.58,-0.2,0.3,15.3,0.68,0.01,-0,0.74
1697352559.73,0.16,0.23,0.58,-0.2,0.3,15.3,0.68,0.01,-0,0.74
1697352559.74,0.16,0.23,0.58,-0.2,0.3,15.3,0.68,0.01,-0,0.74
1697352559.75,0.16,0.23,0.58,-0.2,0.3,15.3,0.68,0.01,-0,0.74
1697352559.76,0.16,0.23,0.58,-0.2,0.3,15.3,0.68,0.01,-0,0.74
1697352559.77,-0.14,-0.07,1.41,-0.2,1.4,10.3,0.67,0,-0,0.74
1697352559.78,-0.07,0.23,1.02,1.9,0.4,8.3,0.67,0,-0,0.75
1697352559.79,0.17,0.03,0.66,2.8,0.7,8.3,0.67,0,-0,0.75
1697352559.8,-0.05,0.09,1.11,1.6,0,8.2,0.67,0,0,0.75
1697352559.81,-0.01,-0.01,1.04,-0.3,0.4,8.3,0.67,0,0,0.75
1697352559.82,0.03,0.11,1.01,-0.7,0.3,8.3,0.66,0,0,0.75
1697352559.83,0.04,0.19,0.65,-0.7,0.3,8.3,0.66,0,0,0.75
1697352559.84,-0.13,0.21,1.46,-0.5,0.9,8.5,0.66,0,0,0.75
1697352559.85,-0.13,0.21,1.46,-0.5,0.9,8.5,0.66,0,0,0.75
1697352559.86,-0.02,0.18,1.18,0.9,-0.1,8.3,0.66,0,0,0.75
1697352559.87,-0.14,0.15,1.51,0.9,-0.1,8.3,0.66,0,0,0.75
1697352559.88,0.2,0.07,0.77,0.6,-1.4,8,0.66,0,0,0.75
1697352559.89,0.11,0.14,0.92,0.5,-1.8,7.6,0.66,0,0,0.75
1697352559.9,-0.17,0.12,1.34,0.1,-2.1,7.1,0.66,0,-0,0.75
1697352559.91,-0.17,0.12,1.34,0.1,-2.1,7.1,0.66,0,-0,0.75
1697352559.92,0.21,0.14,0.44,-0.3,-1.4,6.7,0.66,0,-0,0.75
1697352559.93,0.21,0.14,0.44,-0.9,-1.1,6.6,0.66,0,-0,0.75
1697352559.94,0.03,0.14,1.15,0,-0.1,6.6,0.66,0,-0,0.75
1697352559.95,0.03,0.14,1.15,0,-0.1,6.6,0.66,0,-0,0.75
1697352559.96,0.12,0.08,0.71,-0.2,0.4,6.7,0.66,0,-0,0.75
1697352559.97,-0,0.1,1.14,-0.8,0.9,6.6,0.66,0,-0,0.75
1697352559.98,-0,0.1,1.14,-1.9,0.8,6.8,0.66,0,-0,0.75
1697352559.99,-0.14,0.26,1.19,-1.7,0.9,7.1,0.66,0,-0,0.75
1697352560,-0.01,0.13,1.09,0,0.8,7.6,0.66,0,-0,0.75
1697352560.01,-0.01,0.13,1.09,1,0.8,7.9,0.66,0,-0,0.76
1697352560.02,0.16,0.1,1,1,0,8,0.65,0,-0,0.76
1697352560.03,0.1,0.11,0.9,0.6,0,8.3,0.65,0,-0,0.76
1697352560.04,-0.06,0.15,1.31,1,-0.3,8.5,0.65,0,-0,0.76
1697352560.05,0.03,0.19,1.01,1.7,-0.7,8.3,0.65,0,-0,0.76
1697352560.06,0.2,0.1,0.6,1.1,-0.7,8.3,0.65,0,-0,0.76
1697352560.07,-0.11,0.14,1.43,0,-1.3,8.7,0.65,0,-0,0.76
1697352560.08,0.11,0.06,0.82,-0.4,-1.4,8.5,0.65,0,-0,0.76
1697352560.09,0.03,0.15,0.89,-0.7,-1.5,8.3,0.65,0,-0,0.76
1697352560.1,-0.08,0.21,1.38,-0.7,-2,8.4,0.65,0,-0,0.76
1697352560.11,-0.15,0.17,1.64,-0.5,-1.6,8.4,0.65,0,-0,0.76
1697352560.12,0.1,0.16,0.89,-0.3,-2,8.2,0.65,0,-0,0.76
1697352560.13,0.16,0.12,0.62,-1.2,-1.7,8.1,0.65,0.01,-0,0.76
1697352560.14,-0.12,0.26,1.34,-2.1,-1.2,7.8,0.65,0.01,-0,0.76
1697352560.15,0.07,0.33,0.86,-2.1,-0.9,7.9,0.65,0,-0,0.76
1697352560.16,0.07,0.33,0.86,-2.1,-0.9,7.9,0.65,0,-0,0.76
1697352560.17,0.07,0.33,0.86,-2.1,-0.9,7.9,0.65,0,-0,0.76
1697352560.18,0.07,0.33,0.86,-2.1,-0.9,7.9,0.65,0,-0,0.76
1697352560.19,0.07,0.33,0.86,-2.1,-0.9,7.9,0.65,0,-0,0.76
1697352560.2,0.07,0.33,0.86,-2.1,-0.9,7.9,0.65,0,-0,0.76
1697352560.21,0.07,0.33,0.86,-2.1,-0.9,7.9,0.65,0,-0,0.76
1697352560.22,0.07,0.33,0.86,-2.1,-0.9,7.9,0.65,0,-0,0.76
1697352560.23,0.07,0.33,0.86,-2.1,-0.9,7.9,0.65,0,-0,0.76
1697352560.24,0.07,0.33,0.86,-2.1,-0.9,7.9,0.65,0,-0,0.76
1697352560.25,0.07,0.33,0.86,-2.1,-0.9,7.9,0.65,0,-0,0.76
1697352560.26,0.07,0.33,0.86,-2.1,-0.9,7.9,0.65,0,-0,0.76
1697352560.27,0.07,0.33,0.86,-2.1,-0.9,7.9,0.65,0,-0,0.76
1697352560.28,0.07,0.33,0.86,-2.1,-0.9,7.9,0.65,0,-0,0.76
1697352560.29,-0.14,0.49,1,0,-1.9,19.9,0.63,0.01,-0,0.77
1697352560.3,0.23,0.66,0.25,0.5,-1,20.6,0.63,0.01,-0,0.78
1697352560.31,0.07,0.82,0.53,0.5,-1,20.6,0.63,0.01,-0,0.78
1697352560.32,0.01,0.84,0.84,3.8,-1.2,25.1,0.63,0.01,-0,0.78
1697352560.33,0.01,0.84,0.84,3.8,-1.2,25.1,0.63,0.01,-0,0.78
1697352560.34,0.18,0.68,0.69,-0.6,-1,28.7,0.62,0.01,-0,0.78
1697352560.35,-0.11,0.81,0.83,-1.2,-0.9,30.9,0.62,0.01,-0,0.78
1697352560.36,-0.17,0.74,1.54,0.4,-0.6,32.6,0.62,0.01,-0,0.79
1697352560.37,0.04,0.69,1.21,2.1,-0.3,33.6,0.62,0.01,-0,0.79
1697352560.38,-0.03,0.66,0.9,2.6,-0.2,34.9,0.61,0.01,-0,0.79
1697352560.39,-0.03,0.53,0.94,1.5,0.3,35.4,0.61,0.01,-0,0.79
1697352560.4,0.02,0.59,1.1,0.9,0.4,35.4,0.61,0.01,-0,0.79
1697352560.41,0.11,0.54,0.84,0.9,0.4,35.4,0.61,0.01,-0,0.79
1697352560.42,0.02,0.67,0.73,1.1,0.4,35.1,0.61,0.01,-0,0.79
1697352560.43,0.02,0.67,0.73,2.1,0.5,34.9,0.6,0.01,-0,0.8
1697352560.44,0.24,0.49,0.69,1,0.6,33.6,0.6,0.01,-0,0.8
1697352560.45,0.24,0.49,0.69,1,0.6,33.6,0.6,0.01,-0,0.8
1697352560.46,0.1,0.55,0.69,-0.6,0.8,32.6,0.6,0.01,-0,0.8
1697352560.47,0.15,0.55,0.52,-1,0.9,32.3,0.59,0.01,-0,0.8
1697352560.48,-0.16,0.48,1.2,-1.7,1.4,31.1,0.59,0.01,-0,0.81
1697352560.49,0.19,0.47,0.33,-1.1,1.8,30.5,0.59,0.01,-0,0.81
1697352560.5,-0.12,0.34,1.33,-0.8,2.4,29.7,0.59,0.01,-0,0.81
1697352560.51,-0.04,0.39,1.22,-1.2,3.3,28.6,0.59,0.01,-0,0.81
1697352560.52,0.2,0.52,0.39,-2,3,27.4,0.58,0.01,-0,0.81
1697352560.53,-0.17,0.48,1.46,-3.2,2.6,26.5,0.58,0.01,-0,0.81
1697352560.54,0.08,0.37,0.77,-2.8,2.1,26,0.58,0.01,-0,0.81
1697352560.55,0.02,0.39,0.74,-0.9,1.3,25.8,0.58,0.01,-0,0.82
1697352560.56,-0.2,0.27,1.44,0,0.5,25.2,0.58,0.01,-0,0.82
1697352560.57,0.13,0.29,0.74,0.2,-0.6,25,0.58,0.01,-0,0.82
1697352560.58,-0.13,0.39,1.22,0.1,-0.6,24.9,0.57,0.01,-0,0.82
1697352560.59,-0.23,0.31,1.22,0.7,-0.4,24.9,0.57,0.01,-0,0.82
1697352560.6,0.15,0.34,0.25,1.5,0.7,24.8,0.57,0.01,-0,0.82
1697352560.61,-0.26,0.34,1.22,1.4,2.2,24.8,0.57,0.01,0,0.82
1697352560.62,0.03,0.41,0.59,0.8,2.9,24.8,0.57,0.01,0,0.82
1697352560.63,-0.05,0.47,0.52,-0.7,3.7,25.3,0.56,0.01,0,0.83
1697352560.64,-0.13,0.59,1.56,0.3,3.5,26.1,0.56,0.01,0,0.83
1697352560.65,0.11,0.63,0.36,1.4,3.2,26.9,0.56,0,0,0.83
1697352560.66,-0.23,0.57,1.46,1.3,2.5,27.4,0.56,0,0,0.83
1697352560.67,-0.19,0.49,1.52,1,2.5,27.6,0.56,0,0,0.83
1697352560.68,-0.22,0.59,1.39,-0.6,1.7,28,0.56,0,0,0.83
1697352560.69,-0.22,0.59,1.39,-0.6,1.7,28,0.56,0,0,0.83
1697352560.7,-0.22,0.59,1.39,-0.6,1.7,28,0.56,0,0,0.83
1697352560.71,-0.22,0.59,1.39,-0.6,1.7,28,0.56,0,0,0.83
1697352560.72,-0.22,0.59,1.39,-0.6,1.7,28,0.56,0,0,0.83
1697352560.73,-0.22,0.59,1.39,-0.6,1.7,28,0.56,0,0,0.83
1697352560.74,-0.22,0.59,1.39,-0.6,1.7,28,0.56,0,0,0.83
1697352560.75,-0.22,0.59,1.39,-0.6,1.7,28,0.56,0,0,0.83
1697352560.76,-0.22,0.59,1.39,-0.6,1.7,28,0.56,0,0,0.83
1697352560.77,-0.22,0.59,1.39,-0.6,1.7,28,0.56,0,0,0.83
1697352560.78,-0.22,0.59,1.39,-0.6,1.7,28,0.56,0,0,0.83
1697352560.79,-0.22,0.59,1.39,-0.6,1.7,28,0.56,0,0,0.83
1697352560.8,-0.22,0.59,1.39,-0.6,1.7,28,0.56,0,0,0.83
1697352560.81,-0.01,0.68,0.98,-0.6,1.7,28,0.56,0,0,0.83
1697352560.82,-0.12,0.55,1.04,-1.5,1.8,29.7,0.53,0,0,0.85
1697352560.83,-0.12,0.55,1.04,-0.2,0.5,30.4,0.52,0,0,0.85
1697352560.84,-0.12,0.44,0.98,0,-0.2,30.8,0.52,0,0,0.85
1697352560.85,0.13,0.53,1.02,-1.4,-0.4,31.5,0.52,0,0,0.85
1697352560.86,0.1,0.66,1.05,-2.4,-0.3,31.9,0.52,0,0,0.86
1697352560.87,0.02,0.69,0.81,-1,-0.1,32.3,0.51,0,0,0.86
1697352560.88,0.19,0.61,0.86,1.5,1.1,32.3,0.51,0,0,0.86
