time,accel_x,accel_y,accel_z,gyro_x,gyro_y,gyro_z,quat_w,quat_x,quat_y,quat_z
1697352469.35,-0.37,1.09,1.15,4.2,2.8,75.8,0.86,0,-0.03,-0.52
1697352469.36,-0.15,1.18,0.93,3.5,1.7,91.8,0.91,0.01,-0.02,-0.42
1697352469.37,-0.3,1.15,1.14,2.6,2.8,89.9,0.91,0.01,-0.02,-0.42
1697352469.38,-0.33,1.25,0.79,0.8,4.6,89,0.91,0.01,-0.02,-0.41
1697352469.39,-0.52,1.06,1.21,-0.2,5.6,87.6,0.92,0.01,-0.02,-0.4
1697352469.4,-0.41,1.3,0.96,-1.9,6.8,87.3,0.92,0.01,-0.02,-0.4
1697352469.41,-0.43,1.24,0.93,-1.3,7.8,87.4,0.92,0.01,-0.02,-0.39
1697352469.42,-0.29,1.39,0.46,0.1,7.4,87.8,0.93,0.01,-0.02,-0.38
1697352469.43,-0.44,1.24,0.83,0.8,6.7,88.8,0.93,0.01,-0.02,-0.37
1697352469.44,-0.31,1.2,1.09,1.1,6.2,89.9,0.93,0.01,-0.02,-0.36
1697352469.45,-0.48,1.02,1,-0.4,5.4,90.4,0.93,0.01,-0.02,-0.36
1697352469.46,-0.59,0.95,0.76,-1.5,5.6,89.8,0.94,0.01,-0.02,-0.35
1697352469.47,-0.69,0.82,0.58,-2,5.6,89.7,0.94,0.01,-0.02,-0.34
1697352469.48,-0.48,1.06,0.61,-3.9,6.2,89,0.94,0,-0.02,-0.33
1697352469.49,-0.48,1.06,0.61,-6,6.5,89.1,0.94,0,-0.02,-0.33
1697352469.5,-0.1,1.21,1.26,-5.3,5.9,89.4,0.95,0,-0.02,-0.32
1697352469.51,-0.33,0.93,0.71,-3,4.5,90.6,0.95,0,-0.02,-0.31
1697352469.52,-0.33,0.93,0.71,-3,4.5,90.6,0.95,0,-0.02,-0.31
1697352469.53,-0.22,0.87,1.12,2.1,1.1,90.7,0.95,0,-0.02,-0.3
1697352469.54,-0.22,0.87,1.12,2.1,1.1,90.7,0.95,0,-0.02,-0.3
1697352469.55,-0.18,0.83,1.17,-0.6,-1.5,88.9,0.96,0,-0.02,-0.29
1697352469.56,0.01,0.84,0.86,-3.1,-1.5,88,0.96,0,-0.02,-0.28
1697352469.57,0.01,0.84,0.86,-3.1,-1.5,88,0.96,0,-0.02,-0.27
1697352469.58,0.08,0.8,1.01,-4.5,-1.3,86.1,0.96,0,-0.02,-0.27
1697352469.59,-0.02,1,0.86,-5.1,-1.4,85,0.97,0,-0.02,-0.26
1697352469.6,-0.02,1,0.86,-4.7,-1.6,84.4,0.97,0,-0.02,-0.25
1697352469.61,-0.17,1.15,1.38,-0.5,0,83.3,0.97,0,-0.02,-0.24
1697352469.62,-0.02,0.86,0.74,-0.5,0,83.3,0.97,0,-0.02,-0.24
1697352469.63,-0.27,0.75,1.14,3,1.3,83.1,0.97,0,-0.02,-0.23
1697352469.64,-0.17,1.02,0.45,3.1,2.7,83.2,0.98,0,-0.02,-0.22
1697352469.65,-0.07,0.82,1.2,0.9,3.5,83.7,0.98,0,-0.02,-0.21
1697352469.66,-0.14,1.09,1.11,-2.2,4.1,84.5,0.98,0,-0.02,-0.21
1697352469.67,-0.26,1.14,0.91,-4.6,3.2,86,0.98,0,-0.02,-0.2
1697352469.68,-0.08,1.05,0.83,-2.4,2.2,86.8,0.98,0,-0.02,-0.19
1697352469.69,-0.21,1.04,1.43,0.5,1.2,88.9,0.98,0,-0.02,-0.19
1697352469.7,-0.13,0.82,1.57,3,0.3,89.7,0.98,0,-0.02,-0.17
1697352469.71,0.02,0.88,0.84,3.3,-0.5,90.2,0.99,0,-0.02,-0.17
1697352469.72,0.02,0.84,0.95,2.2,-1.4,90.2,0.99,0,-0.02,-0.16
1697352469.73,-0.07,1,1.35,0.1,-2,90.6,0.99,0,-0.02,-0.15
1697352469.74,-0.12,0.95,1,-0.2,-2.4,90.3,0.99,0,-0.02,-0.14
1697352469.75,-0.12,0.95,1,-0.2,-2.4,90.3,0.99,0,-0.02,-0.14
1697352469.76,-0.12,0.95,1,-0.2,-2.4,90.3,0.99,0,-0.02,-0.14
1697352469.77,-0.12,0.95,1,-0.2,-2.4,90.3,0.99,0,-0.02,-0.14
1697352469.78,-0.12,0.95,1,-0.2,-2.4,90.3,0.99,0,-0.02,-0.14
1697352469.79,-0.12,0.95,1,-0.2,-2.4,90.3,0.99,0,-0.02,-0.14
1697352469.8,-0.12,0.95,1,-0.2,-2.4,90.3,0.99,0,-0.02,-0.14
1697352469.81,-0.12,0.95,1,-0.2,-2.4,90.3,0.99,0,-0.02,-0.14
1697352469.82,-0.12,0.95,1,-0.2,-2.4,90.3,0.99,0,-0.02,-0.14
1697352469.83,-0.12,0.95,1,-0.2,-2.4,90.3,0.99,0,-0.02,-0.14
1697352469.84,-0.12,0.95,1,-0.2,-2.4,90.3,0.99,0,-0.02,-0.14
1697352469.85,-0.12,0.95,1,-0.2,-2.4,90.3,0.99,0,-0.02,-0.14
1697352469.86,-0.12,0.95,1,-0.2,-2.4,90.3,0.99,0,-0.02,-0.14
1697352469.87,-0.12,0.95,1,-0.2,-2.4,90.3,0.99,0,-0.02,-0.14
1697352469.88,-0.21,0.85,0.96,-0.2,3.7,85.1,1,-0,-0.01,-0.04
1697352469.89,-0.15,0.9,0.96,-2.6,4.1,85.4,1,-0,-0.01,-0.04
1697352469.9,-0.16,0.91,1.02,-3.7,4.8,85.4,1,-0,-0.01,-0.02
1697352469.91,-0.12,0.85,0.89,-4,5.6,85.7,1,-0,-0.01,-0.01
1697352469.92,-0.12,0.85,0.89,-4,5.6,85.7,1,-0,-0.01,-0.01
1697352469.93,-0.03,1,0.84,-3.1,7.5,85.2,1,-0,-0.01,-0.01
1697352469.94,-0.11,1.02,0.94,-3.1,7.5,85.2,1,-0,-0.01,0
1697352469.95,-0.11,1.02,0.94,-0.5,8,84.8,1,-0,-0.01,0.01
1697352469.96,-0.18,0.88,0.85,2.8,8.3,84.7,1,-0,-0.01,0.01
1697352469.97,-0.11,0.77,0.95,2.8,8.2,85.5,1,-0,-0.01,0.02
1697352469.98,-0.22,0.84,1.35,1.4,8,85.5,1,-0,-0.01,0.03
1697352469.99,-0.14,0.96,0.92,-1.5,8.1,86.1,1,-0,-0.01,0.04
1697352470,-0.03,0.87,0.93,-2.1,7.7,86.8,1,-0,-0.01,0.05
1697352470.01,-0.09,0.96,1.01,-1.7,7,87.2,1,-0,-0.01,0.06
1697352470.02,-0.18,0.91,1.05,-0.5,6.4,87.4,1,-0,-0.01,0.06
1697352470.03,-0.08,0.92,0.81,1.3,6.4,87.4,1,-0,-0,0.07
1697352470.04,-0.08,0.86,0.92,1.7,6,87.4,1,-0,-0,0.08
1697352470.05,-0.16,0.79,0.8,1.4,6.4,87.1,1,-0,-0,0.09
1697352470.06,-0.12,0.86,1.06,-0.1,7.1,87,1,-0,-0,0.09
1697352470.07,-0.05,1.04,0.68,-0.8,7.5,86.9,1,-0,-0,0.09
1697352470.08,-0.26,0.93,1,0.6,8.5,86.7,0.99,-0,-0,0.11
1697352470.09,-0.18,0.99,0.91,2.1,9,86.7,0.99,-0,-0,0.12
1697352470.1,-0.21,0.88,1.02,2.2,9.3,87.2,0.99,-0,0,0.13
1697352470.11,-0,0.97,0.88,2.2,9.1,87.8,0.99,-0,0,0.13
1697352470.12,-0.12,0.83,0.85,1.3,9.2,88.7,0.99,-0,0,0.14
1697352470.13,-0.04,0.99,0.71,0,9.1,89.8,0.99,-0,0,0.15
1697352470.14,-0.04,0.96,1.23,-0.7,8.4,91,0.99,-0,0,0.16
1697352470.15,0.11,1,0.91,-0.7,8.4,91,0.99,-0,0,0.16
1697352470.16,0.06,0.96,0.81,1.6,6.6,94,0.98,-0,0.01,0.18
1697352470.17,0.06,0.96,0.81,1.6,6.6,94,0.98,-0,0.01,0.18
1697352470.18,0.06,0.97,1.03,3.5,4.7,95.7,0.98,-0,0.01,0.19
1697352470.19,-0.04,1.03,1.03,3.5,4.7,95.7,0.98,-0,0.01,0.19
1697352470.2,-0.07,0.9,0.44,3.2,4.1,96.2,0.98,-0,0.01,0.21
1697352470.21,-0.25,0.99,1.54,0.8,4.1,94.6,0.98,-0,0.01,0.21
1697352470.22,-0.12,1.06,0.81,0.6,4.4,93.5,0.97,-0,0.01,0.22
1697352470.23,-0.2,1.03,1.04,0.6,4.5,92.2,0.97,-0,0.01,0.23
1697352470.24,-0.2,1.14,1.02,0.6,4.5,92.2,0.97,-0,0.01,0.23
1697352470.25,-0.16,1.12,0.86,2,4.7,89.9,0.97,-0,0.01,0.24
1697352470.26,-0.21,1.04,1.16,2.7,5.3,88.8,0.97,-0,0.01,0.25
1697352470.27,-0.21,1.04,1.16,2.7,5.3,88.8,0.97,-0,0.01,0.26
1697352470.28,-0.12,1.02,1.11,1.9,5.4,88.7,0.96,-0,0.01,0.26
1697352470.29,-0.12,1.02,1.11,1.9,5.4,88.7,0.96,-0,0.01,0.26
1697352470.3,-0.12,1.02,1.11,1.9,5.4,88.7,0.96,-0,0.01,0.26
1697352470.31,-0.12,1.02,1.11,1.9,5.4,88.7,0.96,-0,0.01,0.26
1697352470.32,-0.12,1.02,1.11,1.9,5.4,88.7,0.96,-0,0.01,0.26
1697352470.33,-0.12,1.02,1.11,1.9,5.4,88.7,0.96,-0,0.01,0.26
1697352470.34,-0.12,1.02,1.11,1.9,5.4,88.7,0.96,-0,0.01,0.26
1697352470.35,-0.12,1.02,1.11,1.9,5.4,88.7,0.96,-0,0.01,0.26
1697352470.36,-0.12,1.02,1.11,1.9,5.4,88.7,0.96,-0,0.01,0.26
1697352470.37,-0.12,1.02,1.11,1.9,5.4,88.7,0.96,-0,0.01,0.26
1697352470.38,-0.12,1.02,1.11,1.9,5.4,88.7,0.96,-0,0.01,0.26
1697352470.39,-0.12,1.02,1.11,1.9,5.4,88.7,0.96,-0,0.01,0.26
1697352470.4,-0.12,1.02,1.11,1.9,5.4,88.7,0.96,-0,0.01,0.26
1697352470.41,-0.02,0.96,0.92,-1.1,3,87.9,0.93,-0,0.01,0.37
1697352470.42,-0.54,1.05,1.52,-3.2,4.1,87,0.93,-0,0.01,0.37
1697352470.43,-0.16,1.19,0.94,-2.7,4.9,86.3,0.92,-0,0.01,0.38
1697352470.44,-0.28,1.08,1.51,-1,4.4,86.6,0.92,-0,0.01,0.39
1697352470.45,-0.05,1.13,0.61,0.7,3.9,87.3,0.92,-0,0.01,0.4
1697352470.46,-0.08,1.11,0.64,1.8,3.1,88,0.92,-0,0.01,0.4
1697352470.47,-0.23,0.89,1.3,1.1,2.4,88.8,0.91,-0,0.01,0.41
1697352470.48,-0.04,0.96,0.96,-0.6,1.5,89.7,0.91,-0,0.01,0.42
1697352470.49,-0.04,0.96,0.96,-0.6,1.5,89.7,0.91,-0,0.01,0.42
1697352470.5,-0.12,1,0.83,-2.7,0,91.1,0.9,-0,0.01,0.43
1697352470.51,-0.02,0.98,1.18,-2.9,-0.9,91.7,0.9,-0,0.01,0.44
1697352470.52,0.14,0.99,1.01,-1.7,-1.9,92.4,0.9,-0,0.01,0.44
1697352470.53,0.09,0.94,0.72,0.3,-2.3,93.3,0.89,-0,0.01,0.45
1697352470.54,0.03,0.94,1.08,0.5,-2.2,93,0.89,-0,0.01,0.45
1697352470.55,-0.04,0.83,1.06,-1.5,-0.5,92,0.88,-0,0.01,0.47
1697352470.56,-0.01,0.94,0.84,-3.4,0.7,91.3,0.88,-0,0.01,0.48
1697352470.57,-0.09,1.01,1.18,-3.4,0.7,91.3,0.88,-0,0.01,0.48
1697352470.58,-0.08,1.25,0.74,0.5,3.2,88.4,0.87,-0,0.01,0.49
1697352470.59,-0.08,1.25,0.74,0.5,3.2,88.4,0.87,-0,0.01,0.49
1697352470.6,-0.23,1.22,1.27,1.8,4,87.9,0.87,-0,0.01,0.49
1697352470.61,-0.21,1.08,1.15,1.8,4,87.9,0.86,-0,0.01,0.5
1697352470.62,-0.21,1.08,1.15,0.8,5.2,88.5,0.86,-0,0.01,0.51
1697352470.63,-0.19,1.09,0.91,0,5.1,89,0.86,-0,0.02,0.52
1697352470.64,-0.23,1.09,1.33,-1.4,4.2,90.1,0.85,-0,0.02,0.52
1697352470.65,-0.15,0.92,1.07,-2.3,3,90.8,0.85,-0,0.02,0.53
1697352470.66,-0.23,0.96,1.19,-2.6,2.6,91.1,0.85,-0,0.02,0.53
1697352470.67,-0.24,0.8,1.44,-2.3,0.9,91.4,0.84,-0,0.02,0.55
1697352470.68,-0.05,0.92,0.69,-2.6,0.5,90.8,0.83,-0,0.02,0.55
1697352470.69,0.05,0.74,0.95,-3.4,0,89.6,0.83,-0,0.02,0.56
1697352470.7,0.04,0.71,1.02,-4.6,-0.6,87.7,0.82,-0,0.02,0.57
1697352470.71,0.04,0.77,0.93,-5.2,-1,85.8,0.82,-0,0.01,0.57
1697352470.72,0.14,0.74,1.17,-4,-1.2,83.2,0.82,-0,0.01,0.58
1697352470.73,0.22,0.73,1.15,-2.5,-1.2,80.7,0.81,-0,0.01,0.58
1697352470.74,0.3,0.68,0.6,-1.4,-0.9,77.9,0.81,-0,0.01,0.58
1697352470.75,0.08,0.63,1.02,-0.5,-0.4,74.6,0.8,-0,0.01,0.59
1697352470.76,0.01,0.56,1.06,-0.7,0.8,70.4,0.8,-0,0.01,0.59
1697352470.77,0.15,0.76,0.46,-0.7,0.8,70.4,0.8,-0,0.01,0.61
1697352470.78,-0.04,0.77,1.17,-0.5,2.3,67.9,0.79,-0,0.01,0.61
1697352470.79,0.08,0.68,0.83,0.3,3.2,65.9,0.79,-0,0.01,0.61
1697352470.8,0.01,0.72,0.99,-0.3,3.9,64.8,0.79,-0,0.01,0.61
1697352470.81,0.01,0.72,0.99,-0.3,3.9,64.8,0.79,-0,0.01,0.61
1697352470.82,0.01,0.72,0.99,-0.3,3.9,64.8,0.79,-0,0.01,0.61
1697352470.83,0.01,0.72,0.99,-0.3,3.9,64.8,0.79,-0,0.01,0.61
1697352470.84,0.01,0.72,0.99,-0.3,3.9,64.8,0.79,-0,0.01,0.61
1697352470.85,0.01,0.72,0.99,-0.3,3.9,64.8,0.79,-0,0.01,0.61
1697352470.86,0.01,0.72,0.99,-0.3,3.9,64.8,0.79,-0,0.01,0.61
1697352470.87,0.01,0.72,0.99,-0.3,3.9,64.8,0.79,-0,0.01,0.61
1697352470.88,0.01,0.72,0.99,-0.3,3.9,64.8,0.79,-0,0.01,0.61
1697352470.89,0.01,0.72,0.99,-0.3,3.9,64.8,0.79,-0,0.01,0.61
1697352470.9,0.01,0.72,0.99,-0.3,3.9,64.8,0.79,-0,0.01,0.61
1697352470.91,0.01,0.72,0.99,-0.3,3.9,64.8,0.79,-0,0.01,0.61
1697352470.92,0.01,0.72,0.99,-0.3,3.9,64.8,0.79,-0,0.01,0.61
1697352470.93,0.01,0.72,0.99,-0.3,3.9,64.8,0.79,-0,0.01,0.61
1697352470.94,0.06,0.72,1.26,1,0.9,48.7,0.74,-0,0.01,0.67
1697352470.95,0.14,0.44,0.69,3.1,0.6,48.6,0.74,-0,0.01,0.67
1697352470.96,0.14,0.44,0.69,3.9,0.2,48.6,0.73,-0,0.01,0.68
1697352470.97,0.16,0.32,0.9,3.9,0.2,48.6,0.73,-0,0.01,0.68
1697352470.98,0.15,0.59,1.15,-3.6,0.4,47.8,0.73,-0,0.01,0.68
1697352470.99,-0.15,0.56,1.63,-3.6,0.4,47.8,0.73,-0,0.01,0.69
1697352471,0.31,0.64,0.29,-5.7,0.7,48.1,0.72,-0,0.01,0.69
1697352471.01,0.12,0.71,1.14,-1.6,2,47.2,0.72,-0,0.01,0.69
1697352471.02,0.1,0.5,1.01,2,2.4,46.3,0.72,-0,0.01,0.7
1697352471.03,0.19,0.32,0.85,2.7,2,45.8,0.71,-0,0.02,0.7
1697352471.04,0.14,0.39,1.11,0.6,1.6,44.8,0.71,-0,0.02,0.7
1697352471.05,0.07,0.44,1.22,-1.9,1.1,43.9,0.71,-0,0.02,0.71
1697352471.06,0.13,0.5,1.21,-2.7,0.2,42.9,0.71,-0,0.01,0.71
1697352471.07,0.26,0.52,1.18,-1.9,-0.4,42.4,0.7,-0,0.01,0.71
1697352471.08,0.29,0.45,0.77,0,-1.1,41.8,0.7,-0,0.01,0.71
1697352471.09,0.1,0.32,0.91,1.9,-1.1,41.3,0.7,-0,0.01,0.72
1697352471.1,0.15,0.27,0.94,1.7,-1,40.2,0.7,-0,0.01,0.72
1697352471.11,0.28,0.25,0.86,-1.3,-0.6,38.9,0.69,-0,0.01,0.72
1697352471.12,0.14,0.4,0.96,-2.3,0,37.4,0.69,-0,0.01,0.72
1697352471.13,0.23,0.41,0.71,-0.2,0.1,36.6,0.69,-0,0.01,0.73
1697352471.14,0.13,0.43,1.2,1.7,0,35.8,0.69,-0,0.01,0.73
1697352471.15,0.15,0.28,1.08,1.3,-0.2,35.1,0.68,-0,0.01,0.73
1697352471.16,0.24,0.19,1.09,0,-0.4,34.1,0.68,-0,0.01,0.73
1697352471.17,0.16,0.17,0.83,-1.4,-0.5,32.9,0.68,-0,0.01,0.73
1697352471.18,0.04,0.23,1.42,-2.2,-0.5,31.6,0.68,-0,0.01,0.74
1697352471.19,0.18,0.32,1.12,-2.4,-0.5,30.9,0.68,-0,0.01,0.74
1697352471.2,0.31,0.33,0.88,-0.3,-1.2,29.2,0.68,-0,0.01,0.74
1697352471.21,0.09,0.23,0.99,-0.6,-1.6,28.6,0.67,-0,0.01,0.74
1697352471.22,0.09,0.23,0.99,-0.6,-1.6,28.6,0.67,-0,0.01,0.74
1697352471.23,0.2,0.13,0.9,-2.7,-2.2,25.9,0.67,-0,0.01,0.74
1697352471.24,0.2,0.13,0.9,-2.7,-2.2,25.9,0.67,-0,0.01,0.74
1697352471.25,0.14,0.09,0.92,-5.5,-1.8,23,0.66,-0,0.01,0.75
1697352471.26,0.16,0.28,1.09,-5.5,-1.8,23,0.66,-0,0.01,0.75
1697352471.27,0.27,0.28,1.02,-0.4,-1.5,20.6,0.66,-0,0.01,0.75
1697352471.28,0.18,0.09,0.89,-0.4,-1.5,20.6,0.66,-0,0.01,0.75
1697352471.29,0.18,0.09,0.89,3,-1.7,19.3,0.66,-0,0.01,0.75
1697352471.3,0.33,-0.2,0.95,2.2,-1.3,17.5,0.66,-0,0.01,0.75
1697352471.31,0.07,-0.27,0.84,-0.7,-2.3,15.4,0.66,-0,0.01,0.75
1697352471.32,0.07,-0.27,0.84,-1.4,-2.3,15,0.66,-0,0.01,0.75
1697352471.33,0.15,-0.27,1.02,-5.8,-0.5,10.3,0.66,-0,0.01,0.75
1697352471.34,0.15,-0.27,1.02,-5.8,-0.5,10.3,0.66,-0,0.01,0.75
1697352471.35,0.15,-0.27,1.02,-5.8,-0.5,10.3,0.66,-0,0.01,0.75
1697352471.36,0.15,-0.27,1.02,-5.8,-0.5,10.3,0.66,-0,0.01,0.75
1697352471.37,0.15,-0.27,1.02,-5.8,-0.5,10.3,0.66,-0,0.01,0.75
1697352471.38,0.15,-0.27,1.02,-5.8,-0.5,10.3,0.66,-0,0.01,0.75
1697352471.39,0.15,-0.27,1.02,-5.8,-0.5,10.3,0.66,-0,0.01,0.75
1697352471.4,0.15,-0.27,1.02,-5.8,-0.5,10.3,0.66,-0,0.01,0.75
1697352471.41,0.15,-0.27,1.02,-5.8,-0.5,10.3,0.66,-0,0.01,0.75
1697352471.42,0.15,-0.27,1.02,-5.8,-0.5,10.3,0.66,-0,0.01,0.75
1697352471.43,0.15,-0.27,1.02,-5.8,-0.5,10.3,0.66,-0,0.01,0.75
1697352471.44,0.15,-0.27,1.02,-5.8,-0.5,10.3,0.66,-0,0.01,0.75
1697352471.45,0.15,-0.27,1.02,-5.8,-0.5,10.3,0.66,-0,0.01,0.75
1697352471.46,0.15,-0.27,1.02,-5.8,-0.5,10.3,0.66,-0,0.01,0.75
1697352471.47,0.15,-0.27,1.02,-5.8,-0.5,10.3,0.66,-0,0.01,0.75
1697352471.48,0.19,-0.23,0.85,-2,-3,-9.7,0.66,-0.01,0.01,0.75
1697352471.49,0.2,-0.37,1.26,-0.7,-2.6,-10.7,0.66,-0.01,0.01,0.75
1697352471.5,0.25,-0.48,0.78,-1.4,-2,-12.1,0.66,-0.01,0.01,0.75
1697352471.51,0.35,-0.37,1.16,-0.8,-1.5,-13.5,0.66,-0.01,0.01,0.75
1697352471.52,0.2,-0.55,0.68,0.1,-1.6,-14.8,0.66,-0.01,0.01,0.75
1697352471.53,0.01,-0.73,0.81,-2.8,-1.1,-16.3,0.66,-0.01,0.01,0.75
1697352471.54,0.19,-0.58,1.19,-2.8,-1.1,-16.3,0.66,-0.01,0.01,0.75
1697352471.55,0.19,-0.66,0.85,-5.4,-0.6,-21,0.66,-0.01,0.01,0.75
1697352471.56,0.24,-0.43,0.78,-4,-0.5,-23,0.66,-0.01,0.01,0.75
1697352471.57,0.13,-0.51,1.26,-1.2,-0.8,-24.2,0.67,-0.01,0.01,0.75
1697352471.58,0.12,-0.37,0.97,1.6,-1.1,-25.5,0.67,-0.01,0.01,0.75
1697352471.59,0.26,-0.62,1.06,3.8,-1.6,-26.9,0.67,-0.01,0.01,0.74
1697352471.6,0.12,-0.58,1.18,3.6,-1.9,-27.4,0.67,-0.01,0.01,0.74
1697352471.61,0.19,-0.48,1.02,1.7,-1.6,-28.3,0.67,-0.01,0.01,0.74
1697352471.62,0.27,-0.44,0.78,-0.3,-1.8,-28.5,0.67,-0.01,0.01,0.74
1697352471.63,-0.14,-0.24,1.52,-2.9,-2.1,-29,0.68,-0.01,0.01,0.74
1697352471.64,-0.14,-0.24,1.52,-2.9,-2.1,-29,0.68,-0.01,0.01,0.74
1697352471.65,0.17,-0.53,0.96,-1.9,1.8,-27.9,0.68,-0.01,0.01,0.73
1697352471.66,0.17,-0.53,0.96,-1.9,1.8,-27.9,0.68,-0.01,0.01,0.73
1697352471.67,0.21,-0.58,1.03,0.1,3.6,-28.4,0.68,-0.01,0.01,0.73
1697352471.68,0.21,-0.58,1.03,0.1,3.6,-28.4,0.69,-0.01,0.01,0.73
1697352471.69,0.21,-0.64,0.84,-2.2,2.4,-30.1,0.69,-0.01,0.01,0.73
1697352471.7,0.21,-0.64,0.84,-2.2,2.4,-30.1,0.69,-0.01,0.01,0.72
1697352471.71,0.17,-0.64,0.87,-3.1,1.6,-31.2,0.69,-0.01,0.01,0.72
1697352471.72,0.17,-0.64,0.87,-3,0.2,-32,0.69,-0.01,0.01,0.72
1697352471.73,0.16,-0.54,0.92,-1.9,-0.7,-33.1,0.7,-0.01,0,0.72
1697352471.74,0.29,-0.67,0.99,-1.9,-2.1,-33.4,0.7,-0.01,0,0.72
1697352471.75,0.02,-0.69,1.22,-1,-2.9,-34.4,0.7,-0.01,0,0.72
1697352471.76,0.09,-0.51,0.8,-0.5,-3.3,-35.7,0.7,-0.01,0,0.71
1697352471.77,0.03,-0.66,1.45,-0.3,-2.9,-36,0.7,-0.01,0,0.71
1697352471.78,-0.03,-0.59,1.11,1.7,-1.8,-36.7,0.71,-0.01,0,0.71
1697352471.79,0.25,-0.81,1.14,1.8,-0.8,-37.8,0.71,-0.01,0,0.71
1697352471.8,0.01,-0.79,0.94,-0.2,0.4,-39.6,0.71,-0.01,0,0.7
1697352471.81,0.21,-0.87,1.17,-2.7,1.5,-40.4,0.71,-0.01,0,0.7
1697352471.82,0.21,-0.71,0.51,-4.3,2.2,-42.3,0.72,-0.01,0,0.7
1697352471.83,0.58,-0.62,-0.05,-8.4,2.1,-43.5,0.72,-0.01,0,0.69
1697352471.84,0.07,-0.39,1.28,-6.4,2.2,-44.6,0.72,-0.01,0,0.69
1697352471.85,-0.17,-0.59,1.38,-0.4,1.4,-45.4,0.72,-0.01,0,0.69
1697352471.86,0.14,-0.81,0.79,0.9,0.3,-44.5,0.73,-0.01,0,0.69
1697352471.87,0.08,-0.72,1.1,2.4,0.3,-45.1,0.73,-0.01,0,0.69
1697352471.88,0.08,-0.72,1.1,2.4,0.3,-45.1,0.73,-0.01,0,0.69
1697352471.89,0.08,-0.72,1.1,2.4,0.3,-45.1,0.73,-0.01,0,0.69
1697352471.9,0.08,-0.72,1.1,2.4,0.3,-45.1,0.73,-0.01,0,0.69
1697352471.91,0.08,-0.72,1.1,2.4,0.3,-45.1,0.73,-0.01,0,0.69
1697352471.92,0.08,-0.72,1.1,2.4,0.3,-45.1,0.73,-0.01,0,0.69
1697352471.93,0.08,-0.72,1.1,2.4,0.3,-45.1,0.73,-0.01,0,0.69
1697352471.94,0.08,-0.72,1.1,2.4,0.3,-45.1,0.73,-0.01,0,0.69
1697352471.95,0.08,-0.72,1.1,2.4,0.3,-45.1,0.73,-0.01,0,0.69
1697352471.96,0.08,-0.72,1.1,2.4,0.3,-45.1,0.73,-0.01,0,0.69
1697352471.97,0.08,-0.72,1.1,2.4,0.3,-45.1,0.73,-0.01,0,0.69
1697352471.98,0.08,-0.72,1.1,2.4,0.3,-45.1,0.73,-0.01,0,0.69
1697352471.99,0.08,-0.72,1.1,2.4,0.3,-45.1,0.73,-0.01,0,0.69
1697352472,0.08,-0.72,1.1,2.4,0.3,-45.1,0.73,-0.01,0,0.69
1697352472.01,0.07,-0.68,1,-3.6,2.3,-46.2,0.77,-0.01,0,0.64
1697352472.02,-0.06,-0.55,1.05,-2.2,1.6,-45.5,0.77,-0.01,0,0.64
1697352472.03,0.04,-0.7,1.24,-0.7,0.5,-45.2,0.77,-0.01,0,0.64
1697352472.04,0.04,-0.7,1.24,-0.7,0.5,-45.2,0.77,-0.01,0,0.63
1697352472.05,0.1,-0.76,0.99,-0.3,-1.3,-44.6,0.78,-0.01,0,0.63
1697352472.06,0.1,-0.76,0.99,-0.3,-1.3,-44.6,0.78,-0.01,0,0.63
1697352472.07,0.12,-0.68,1.01,1.8,-1.7,-44.7,0.78,-0.01,0,0.62
1697352472.08,0.12,-0.68,1.01,1.8,-1.7,-44.7,0.78,-0.01,0,0.62
1697352472.09,0.05,-0.74,0.66,2.7,-1.2,-44.3,0.79,-0.01,0,0.62
1697352472.1,-0.19,-0.75,0.92,3.1,-0.2,-44.7,0.79,-0.01,0,0.61
1697352472.11,0.01,-0.76,1.06,1.3,1.2,-44.9,0.79,-0.01,0,0.61
1697352472.12,0.06,-0.74,0.97,-0.7,1.6,-44.5,0.79,-0.01,0,0.61
1697352472.13,0.1,-0.57,0.88,-1,2.5,-44.6,0.8,-0.01,0,0.6
1697352472.14,-0.08,-0.62,0.96,1,3.3,-44.8,0.8,-0.01,0,0.6
1697352472.15,0.1,-0.79,0.76,1.9,3.7,-44.3,0.8,-0.01,0,0.6
1697352472.16,0.04,-0.81,0.94,0.7,3.7,-44.3,0.8,-0.01,0,0.6
1697352472.17,0.08,-0.68,0.6,-0.6,3.1,-45.3,0.81,-0.01,0,0.59
1697352472.18,0.13,-0.7,1,-2,1.9,-45.5,0.81,-0.01,0,0.59
1697352472.19,-0.01,-0.59,1.03,-1.7,1.1,-45.6,0.81,-0.01,0,0.59
1697352472.2,0.09,-0.55,0.78,-0.1,0.5,-45.7,0.81,-0.01,0,0.58
1697352472.21,0.18,-0.68,0.76,-0.1,0.5,-45.7,0.81,-0.01,0,0.58
1697352472.22,0.21,-0.78,0.94,1.8,0,-44.8,0.82,-0.01,0,0.58
1697352472.23,0.03,-0.8,0.86,1.1,-0.7,-44.6,0.82,-0.01,0,0.57
1697352472.24,-0.04,-0.85,1.04,0,-0.6,-44.8,0.82,-0.01,0,0.57
1697352472.25,0.07,-0.76,1.23,-0.9,0.1,-45.3,0.82,-0.01,0,0.57
1697352472.26,-0.14,-0.69,0.91,-1.1,0.9,-45.3,0.82,-0.01,0,0.57
1697352472.27,0.08,-0.75,0.93,0.7,1.5,-45.6,0.83,-0.01,0,0.56
1697352472.28,-0.06,-0.77,1.12,2.1,2.1,-45.9,0.83,-0.01,0,0.56
1697352472.29,0.04,-0.89,0.86,2.1,2.9,-45.5,0.83,-0.01,0,0.56
1697352472.3,0.07,-0.79,0.76,-0.3,3.6,-46,0.83,-0.01,0,0.55
1697352472.31,0.07,-0.81,0.67,-3.6,3.2,-45.7,0.84,-0.01,0,0.55
1697352472.32,0.12,-0.54,0.71,-4.2,2,-45.9,0.84,-0.01,0,0.55
1697352472.33,0.01,-0.58,0.95,-2.9,0.7,-45.2,0.84,-0.01,0,0.54
1697352472.34,0.16,-0.62,0.99,0,0.1,-45.1,0.84,-0.01,0,0.54
1697352472.35,-0.12,-0.61,0.96,1.9,-0.3,-44.7,0.84,-0.01,0,0.54
1697352472.36,-0,-0.73,0.8,2.7,-0.3,-44.1,0.85,-0.01,0,0.53
1697352472.37,-0.02,-0.73,0.99,1.4,0.3,-43.8,0.85,-0.01,0,0.53
1697352472.38,-0.02,-0.73,0.99,1.4,0.3,-43.8,0.85,-0.01,0,0.53
1697352472.39,-0.09,-0.78,0.88,1.4,0.3,-43.8,0.85,-0.01,0,0.53
1697352472.4,-0.09,-0.78,0.88,1.4,0.3,-43.8,0.85,-0.01,0,0.53
1697352472.41,-0.09,-0.78,0.88,1.4,0.3,-43.8,0.85,-0.01,0,0.53
1697352472.42,-0.09,-0.78,0.88,1.4,0.3,-43.8,0.85,-0.01,0,0.53
1697352472.43,-0.09,-0.78,0.88,1.4,0.3,-43.8,0.85,-0.01,0,0.53
1697352472.44,-0.09,-0.78,0.88,1.4,0.3,-43.8,0.85,-0.01,0,0.53
1697352472.45,-0.09,-0.78,0.88,1.4,0.3,-43.8,0.85,-0.01,0,0.53
1697352472.46,-0.09,-0.78,0.88,1.4,0.3,-43.8,0.85,-0.01,0,0.53
1697352472.47,-0.09,-0.78,0.88,1.4,0.3,-43.8,0.85,-0.01,0,0.53
1697352472.48,-0.09,-0.78,0.88,1.4,0.3,-43.8,0.85,-0.01,0,0.53
1697352472.49,-0.09,-0.78,0.88,1.4,0.3,-43.8,0.85,-0.01,0,0.53
1697352472.5,-0.09,-0.78,0.88,1.4,0.3,-43.8,0.85,-0.01,0,0.53
1697352472.51,-0.09,-0.78,0.88,1.4,0.3,-43.8,0.85,-0.01,0,0.53
1697352472.52,0.15,-0.86,0.47,0,-4.4,-45.9,0.88,-0.01,0,0.48
1697352472.53,0.18,-0.47,1.12,-3.2,-3.5,-45.8,0.88,-0.01,0,0.47
1697352472.54,0.33,-0.3,0.64,-6.4,-2.3,-42.9,0.88,-0.01,0,0.47
1697352472.55,-0.18,-0.57,1.39,-3,-1.7,-42.4,0.88,-0.01,0,0.47
1697352472.56,-0.18,-0.57,1.39,1.1,-0.5,-41.7,0.89,-0.01,0,0.46
1697352472.57,0.1,-0.83,0.76,6.3,1.3,-39.4,0.89,-0.01,0,0.46
1697352472.58,-0.14,-0.66,1.15,6.6,2.3,-40,0.89,-0.01,0,0.46
1697352472.59,0.18,-1.2,0.43,6.6,2.3,-40,0.89,-0.01,0,0.46
1697352472.6,-0.46,-0.68,1.97,0.6,4.8,-42.8,0.89,-0.01,0,0.45
1697352472.61,0.14,-0.83,0.66,-2.8,5.5,-42.7,0.9,-0.01,0,0.45
1697352472.62,0.09,-0.56,1.1,0.8,6.1,-45.1,0.9,-0.01,0,0.45
1697352472.63,0.12,-0.63,1.1,0.9,6.2,-45.3,0.9,-0.01,0,0.44
1697352472.64,-0.05,-0.79,1.17,4.6,6.4,-46.3,0.9,-0.01,0,0.44
1697352472.65,0.11,-0.66,1.28,7.2,6.8,-46.9,0.9,-0.01,0,0.43
1697352472.66,-0.15,-1.16,1.14,8.5,6.8,-46.1,0.9,-0.01,0.01,0.43
1697352472.67,0.47,-0.81,0.22,7.7,6.6,-47.8,0.9,-0.01,0.01,0.43
1697352472.68,0.17,-0.98,0.44,0,5.8,-46.6,0.91,-0.01,0.01,0.42
1697352472.69,0.14,-1.03,0.73,-2,4.9,-47.9,0.91,-0.01,0.01,0.42
1697352472.7,0.12,-0.49,0.06,-4.9,3.1,-47.3,0.91,-0.01,0.01,0.42
1697352472.71,0.1,-0.59,1.26,-2.7,2.1,-46.6,0.91,-0.01,0.01,0.41
1697352472.72,0.05,-0.49,0.27,1.1,0.4,-46,0.91,-0.01,0.01,0.41
1697352472.73,0.3,-0.57,0.74,4,-1.4,-45.7,0.91,-0.01,0.01,0.4
1697352472.74,0.11,-0.74,0.81,4.4,-2.8,-45,0.92,-0.01,0.01,0.4
1697352472.75,0.15,-0.84,1.05,2.3,-3.9,-44.4,0.92,-0.01,0.01,0.4
1697352472.76,0.08,-0.86,0.92,0,-3.7,-44.1,0.92,-0.01,0.01,0.39
1697352472.77,0.09,-0.71,1.17,-0.9,-3.3,-44,0.92,-0.01,0.01,0.39
1697352472.78,-0.01,-0.67,1.04,-1.2,-2.5,-43.2,0.92,-0.01,0.01,0.39
1697352472.79,0.02,-0.67,1.02,1.1,-0.9,-43.4,0.92,-0.01,0.01,0.38
1697352472.8,-0.11,-0.71,1.29,1.9,0.3,-43.6,0.93,-0.01,0.01,0.38
1697352472.81,0.14,-0.8,0.83,1.4,1.8,-44.3,0.93,-0.01,0.01,0.37
1697352472.82,-0.21,-0.78,1.28,0.3,3,-46.1,0.93,-0.01,0.01,0.37
1697352472.83,0.15,-0.82,0.97,-0.7,3.4,-47.4,0.93,-0.01,0.01,0.36
1697352472.84,-0.14,-0.68,1.15,-0.7,3.4,-47.4,0.93,-0.01,0.01,0.36
1697352472.85,0.06,-0.74,0.83,-0.9,2.8,-48.8,0.93,-0.01,0.01,0.36
1697352472.86,0.06,-0.74,0.83,-0.9,2.8,-48.8,0.93,-0.01,0.01,0.36
1697352472.87,0.1,-0.76,0.99,-1.2,1.8,-49.1,0.94,-0.01,0.01,0.35
1697352472.88,0.18,-0.62,0.69,-1.9,0.6,-48.5,0.94,-0.01,0.01,0.34
1697352472.89,0.03,-0.67,1.06,-2.3,-0.4,-47.5,0.94,-0.01,0.01,0.34
1697352472.9,0.03,-0.67,1.06,-1.4,-1.7,-46.3,0.94,-0.01,0.01,0.34
1697352472.91,0.03,-0.67,1.06,-1.4,-1.7,-46.3,0.94,-0.01,0.01,0.34
1697352472.92,0.03,-0.67,1.06,-1.4,-1.7,-46.3,0.94,-0.01,0.01,0.34
1697352472.93,0.03,-0.67,1.06,-1.4,-1.7,-46.3,0.94,-0.01,0.01,0.34
1697352472.94,0.03,-0.67,1.06,-1.4,-1.7,-46.3,0.94,-0.01,0.01,0.34
1697352472.95,0.03,-0.67,1.06,-1.4,-1.7,-46.3,0.94,-0.01,0.01,0.34
1697352472.96,0.03,-0.67,1.06,-1.4,-1.7,-46.3,0.94,-0.01,0.01,0.34
1697352472.97,0.03,-0.67,1.06,-1.4,-1.7,-46.3,0.94,-0.01,0.01,0.34
1697352472.98,0.03,-0.67,1.06,-1.4,-1.7,-46.3,0.94,-0.01,0.01,0.34
1697352472.99,0.03,-0.67,1.06,-1.4,-1.7,-46.3,0.94,-0.01,0.01,0.34
1697352473,0.03,-0.67,1.06,-1.4,-1.7,-46.3,0.94,-0.01,0.01,0.34
1697352473.01,0.03,-0.67,1.06,-1.4,-1.7,-46.3,0.94,-0.01,0.01,0.34
1697352473.02,0.03,-0.67,1.06,-1.4,-1.7,-46.3,0.94,-0.01,0.01,0.34
1697352473.03,0.03,-0.67,1.06,-1.4,-1.7,-46.3,0.94,-0.01,0.01,0.34
1697352473.04,0.03,-0.67,1.06,-1.4,-1.7,-46.3,0.94,-0.01,0.01,0.34
1697352473.05,0.23,-0.64,0.96,1.2,0.3,-44.2,0.96,-0.01,0.01,0.29
1697352473.06,0.07,-0.37,0.77,0.7,-0.9,-42.6,0.96,-0.01,0.01,0.28
1697352473.07,0.16,-0.4,0.88,1.9,-1.1,-40.3,0.96,-0.01,0.01,0.28
1697352473.08,0.05,-0.45,1.15,2.9,-0.6,-38.1,0.96,-0.01,0.01,0.27
1697352473.09,0.18,-0.45,0.72,2.9,-0.6,-38.1,0.96,-0.01,0.01,0.27
1697352473.1,-0.2,-0.73,1.21,5.2,1,-34.3,0.96,-0.01,0.01,0.27
1697352473.11,0.17,-0.4,0.72,3,2.6,-34.1,0.96,-0.01,0.01,0.27
1697352473.12,0.05,-0.83,1.07,2,3.7,-33.2,0.96,-0.01,0.01,0.26
1697352473.13,0.04,-0.51,0.99,3.7,4.2,-34.6,0.97,-0.01,0.01,0.26
1697352473.14,0.02,-0.53,1.14,1.7,4.5,-33.4,0.97,-0.01,0.01,0.26
1697352473.15,0.01,-0.81,0.89,1.3,4.8,-34.1,0.97,-0.01,0.01,0.25
1697352473.16,-0.01,-0.34,1.81,-1.2,4.1,-34.5,0.97,-0.01,0.01,0.25
1697352473.17,0.25,-0.52,0.6,-2.5,3.6,-33.6,0.97,-0.01,0.01,0.25
1697352473.18,0.23,-0.09,1.21,-0.5,2.7,-34,0.97,-0.01,0.01,0.25
1697352473.19,0.08,-0.35,0.78,-1.8,2.5,-30.8,0.97,-0.01,0.01,0.24
1697352473.2,0.28,-0.35,1.19,0,2.1,-31.8,0.97,-0.01,0.01,0.24
1697352473.21,0.27,-0.14,0.6,0,2.1,-31.8,0.97,-0.01,0.01,0.24
1697352473.22,0.05,-0.55,1.39,-0.4,0.8,-29.5,0.97,-0.01,0.01,0.23
1697352473.23,0.25,-0.25,0.51,-1.5,0.7,-28.2,0.97,-0.01,0.01,0.23
1697352473.24,0.14,-0.07,1.35,-1.5,0.7,-28.2,0.97,-0.01,0.01,0.23
1697352473.25,0.29,-0.38,0.59,2.3,0.3,-26.4,0.97,-0.01,0.01,0.23
1697352473.26,0.01,-0.28,1.22,3.5,0.2,-24.5,0.97,-0.01,0.01,0.23
1697352473.27,0.16,-0.47,0.57,4.5,-0.6,-23,0.97,-0.01,0.01,0.22
1697352473.28,0.16,-0.47,0.57,4.8,-0.4,-21.6,0.97,-0.01,0.01,0.22
1697352473.29,0.15,-0.42,1.08,3.5,-0.7,-20.9,0.98,-0.01,0.01,0.22
1697352473.3,0.16,-0.15,1.28,-0.8,-0.3,-20.3,0.98,-0.01,0.01,0.22
1697352473.31,0.11,-0.14,0.95,-0.6,0,-20.3,0.98,-0.01,0.01,0.22
1697352473.32,0.11,-0.14,0.95,2.7,-0.5,-20.2,0.98,-0.01,0.01,0.22
1697352473.33,0.14,-0.18,1.08,6.2,-0.9,-20.2,0.98,-0.01,0.01,0.21
1697352473.34,0.09,-0.36,0.82,6.5,-1.4,-20.3,0.98,-0.01,0.01,0.21
1697352473.35,0.17,-0.24,1.09,2.6,-1.5,-20.7,0.98,-0.01,0.01,0.21
1697352473.36,0.17,-0.24,1.09,-1.6,-1.8,-20.1,0.98,-0.01,0.01,0.21
1697352473.37,0.12,-0.03,1.09,-3.4,-2.1,-19.3,0.98,-0.01,0.01,0.21
1697352473.38,0.12,-0.03,1.09,-3.7,-2.1,-18,0.98,-0.01,0.01,0.21
1697352473.39,0.06,0.06,1.07,-0.9,-0.8,-16.6,0.98,-0.01,0.01,0.2
1697352473.4,0.14,-0.08,0.86,0.6,0.1,-15.2,0.98,-0.01,0.01,0.2
1697352473.41,0.1,-0.18,0.83,1.7,0.6,-14.7,0.98,-0.01,0.01,0.2
1697352473.42,0.1,-0.27,1.09,-0.4,0.7,-14,0.98,-0.01,0.01,0.2
1697352473.43,0.02,-0.43,1.08,-1.7,0.7,-14,0.98,-0.01,0.01,0.2
1697352473.44,0.04,-0.21,0.86,-1.7,0.7,-14,0.98,-0.01,0.01,0.2
1697352473.45,0.04,-0.21,0.86,-1.7,0.7,-14,0.98,-0.01,0.01,0.2
1697352473.46,0.04,-0.21,0.86,-1.7,0.7,-14,0.98,-0.01,0.01,0.2
1697352473.47,0.04,-0.21,0.86,-1.7,0.7,-14,0.98,-0.01,0.01,0.2
1697352473.48,0.04,-0.21,0.86,-1.7,0.7,-14,0.98,-0.01,0.01,0.2
1697352473.49,0.04,-0.21,0.86,-1.7,0.7,-14,0.98,-0.01,0.01,0.2
1697352473.5,0.04,-0.21,0.86,-1.7,0.7,-14,0.98,-0.01,0.01,0.2
1697352473.51,0.04,-0.21,0.86,-1.7,0.7,-14,0.98,-0.01,0.01,0.2
1697352473.52,0.04,-0.21,0.86,-1.7,0.7,-14,0.98,-0.01,0.01,0.2
1697352473.53,0.04,-0.21,0.86,-1.7,0.7,-14,0.98,-0.01,0.01,0.2
1697352473.54,0.04,-0.21,0.86,-1.7,0.7,-14,0.98,-0.01,0.01,0.2
1697352473.55,0.04,-0.21,0.86,-1.7,0.7,-14,0.98,-0.01,0.01,0.2
1697352473.56,0.04,-0.21,0.86,-1.7,0.7,-14,0.98,-0.01,0.01,0.2
1697352473.57,0.13,-0.06,1.11,5,-0.3,-5.9,0.98,-0.01,0.01,0.19
1697352473.58,0.19,-0.39,0.84,2.5,-1.9,-5.1,0.98,-0.01,0.01,0.19
1697352473.59,0.21,0.19,1.14,-1.1,-3.4,-5.5,0.98,-0.01,0.01,0.19
1697352473.6,0.07,0.12,0.92,-4.5,-3.9,-4.6,0.98,-0.01,0.01,0.19
1697352473.61,0.13,0.25,1.09,-3.6,-3.5,-3.3,0.98,-0.01,0.01,0.19
1697352473.62,0.18,0.16,0.87,-0.4,-2.8,-2.6,0.98,-0.01,0.01,0.19
1697352473.63,-0.1,-0.09,1.39,2.3,-1.8,-1.3,0.98,-0.01,0.01,0.18
1697352473.64,0.13,-0.15,0.7,3.5,0.2,-1.3,0.98,-0.01,0.01,0.18
1697352473.65,-0.09,-0.12,1.26,1.9,1.7,-1.6,0.98,-0.01,0.01,0.18
1697352473.66,0.12,-0.19,0.99,-0.5,3.5,-1.6,0.98,-0.01,0.01,0.18
1697352473.67,-0.01,-0.09,0.97,-1.5,4.5,-2,0.98,-0.01,0.01,0.18
1697352473.68,0,0.35,1.03,-2.8,4.1,-2,0.98,-0.01,0.01,0.18
1697352473.69,0.25,0.14,0.64,-1.4,3.5,-1.4,0.98,-0.01,0.01,0.18
1697352473.7,0.25,-0.01,0.85,1.2,2.6,-0.1,0.98,-0.01,0.01,0.18
1697352473.71,0.1,-0.01,1.27,3.7,2,0,0.98,-0.01,0.01,0.18
1697352473.72,0.1,-0.01,1.27,3.2,-0.4,1,0.98,-0.01,0.01,0.18
1697352473.73,0.23,-0.23,0.76,0,-1.2,1.1,0.98,-0.01,0.01,0.18
1697352473.74,0.09,0.08,0.72,-3.5,-1.3,1.2,0.98,-0.01,0.01,0.18
1697352473.75,-0.07,0.2,1.51,-3.9,-1.2,2.2,0.98,-0.01,0.01,0.18
1697352473.76,-0.02,0.32,0.55,-0.1,-0.9,2.4,0.98,-0.01,0.01,0.18
1697352473.77,-0.06,0.23,1.21,3.9,-0.3,2.9,0.98,-0.01,0.01,0.18
1697352473.78,0.08,0.03,0.66,6.2,0.4,3.1,0.98,-0.01,0.01,0.19
1697352473.79,-0.11,-0.12,1.08,3.4,0.3,2.9,0.98,-0.01,0.01,0.19
1697352473.8,0.09,-0.13,0.82,-0.9,1,2.8,0.98,-0.01,0.01,0.19
1697352473.81,-0.06,0.04,0.76,-2.1,1.5,2.5,0.98,-0.01,0.01,0.19
1697352473.82,-0.08,0.23,1.5,-0.9,1.9,2.7,0.98,-0.01,0.01,0.19
1697352473.83,0.22,0.16,0.18,0.3,2.7,2.8,0.98,-0.01,0.01,0.19
1697352473.84,-0.07,0.06,1.45,0.1,3,2.8,0.98,-0.01,0.01,0.19
1697352473.85,-0.12,0.17,1.44,0.5,3,2.8,0.98,-0.01,0.01,0.19
1697352473.86,0.14,0.04,0.92,0.6,2,2.8,0.98,-0.01,0.01,0.19
1697352473.87,-0.06,0.12,0.92,-1.2,1.4,3.3,0.98,-0.01,0.01,0.19
1697352473.88,0.03,0.18,1.24,-0.3,1.3,3.4,0.98,-0.01,0.01,0.19
1697352473.89,0.08,0.06,0.71,-3,0.8,4.2,0.98,-0.01,0.01,0.19
1697352473.9,-0.11,0.28,1.55,-3.7,0.6,4.7,0.98,-0.01,0.01,0.19
1697352473.91,-0.11,0.28,1.55,-3.7,0.6,4.7,0.98,-0.01,0.01,0.19
1697352473.92,-0.03,0.37,1.28,2.9,-1.1,8.7,0.98,-0.01,0.01,0.19
1697352473.93,-0.03,0.37,1.28,2.9,-1.1,8.7,0.98,-0.01,0.01,0.19
1697352473.94,0.09,0.27,0.86,4.3,-3.8,12.4,0.98,-0.01,0.01,0.19
1697352473.95,0.09,0.27,0.86,4.3,-3.8,12.4,0.98,-0.01,0.01,0.19
1697352473.96,-0.17,0.22,1.59,4.3,-3.8,12.4,0.98,-0.01,0.01,0.19
1697352473.97,-0.17,0.22,1.59,4.3,-3.8,12.4,0.98,-0.01,0.01,0.19
1697352473.98,-0.17,0.22,1.59,4.3,-3.8,12.4,0.98,-0.01,0.01,0.19
1697352473.99,-0.17,0.22,1.59,4.3,-3.8,12.4,0.98,-0.01,0.01,0.19
1697352474,-0.17,0.22,1.59,4.3,-3.8,12.4,0.98,-0.01,0.01,0.19
1697352474.01,-0.17,0.22,1.59,4.3,-3.8,12.4,0.98,-0.01,0.01,0.19
1697352474.02,-0.17,0.22,1.59,4.3,-3.8,12.4,0.98,-0.01,0.01,0.19
1697352474.03,-0.17,0.22,1.59,4.3,-3.8,12.4,0.98,-0.01,0.01,0.19
1697352474.04,-0.17,0.22,1.59,4.3,-3.8,12.4,0.98,-0.01,0.01,0.19
1697352474.05,-0.17,0.22,1.59,4.3,-3.8,12.4,0.98,-0.01,0.01,0.19
1697352474.06,-0.17,0.22,1.59,4.3,-3.8,12.4,0.98,-0.01,0.01,0.19
1697352474.07,-0.17,0.22,1.59,4.3,-3.8,12.4,0.98,-0.01,0.01,0.19
1697352474.08,-0.17,0.22,1.59,4.3,-3.8,12.4,0.98,-0.01,0.01,0.19
1697352474.09,-0.17,0.22,1.59,4.3,-3.8,12.4,0.98,-0.01,0.01,0.19
1697352474.1,-0.17,0.22,1.59,4.3,-3.8,12.4,0.98,-0.01,0.01,0.19
1697352474.11,0,0.64,1.31,0.1,2.2,33.4,0.97,-0,0.01,0.23
1697352474.12,0,0.64,1.31,1,2,34.8,0.97,-0,0.01,0.23
1697352474.13,-0.27,0.64,1.45,0.9,2.1,35.3,0.97,-0,0.01,0.24
1697352474.14,-0.22,0.55,1.59,0.9,2.1,35.3,0.97,-0,0.01,0.24
1697352474.15,0.02,0.57,0.73,-0.7,0.9,36,0.97,-0,0.01,0.24
1697352474.16,-0.06,0.54,1.01,-0.7,0.9,36,0.97,-0,0.01,0.24
1697352474.17,-0.19,0.6,1.37,-1.7,1.1,36,0.97,-0,0.01,0.25
1697352474.18,0.1,0.64,0.54,-1.7,1.1,36,0.97,-0,0.01,0.25
1697352474.19,0.02,0.67,0.86,0,1.8,35.7,0.97,-0.01,0.01,0.25
1697352474.2,-0.04,0.62,1.17,0.7,1.7,35.7,0.97,-0.01,0.01,0.26
1697352474.21,-0.14,0.5,0.6,1,1,35.2,0.97,-0,0.01,0.26
1697352474.22,-0.02,0.55,1.17,-0.9,0.1,35.2,0.97,-0,0.01,0.26
1697352474.23,0.06,0.58,0.83,-2.3,-0.6,35,0.96,-0,0.01,0.26
1697352474.24,-0.03,0.54,1.1,-1.8,-1.4,34.7,0.96,-0.01,0.01,0.27
1697352474.25,-0.05,0.56,0.34,-0.6,-1.7,34.3,0.96,-0.01,0.01,0.27
1697352474.26,-0.2,0.46,1.56,1.4,-1.6,33.3,0.96,-0.01,0.01,0.27
1697352474.27,0.04,0.33,0.56,1.6,-1.8,32.1,0.96,-0,0.01,0.28
1697352474.28,-0.1,0.29,0.6,0,-1.4,30.7,0.96,-0,0.01,0.28
1697352474.29,-0.08,0.24,1.66,-1.2,-2,28.8,0.96,-0,0.01,0.28
1697352474.3,0.05,0.45,0.51,-0.1,-1,27.8,0.96,-0,0.01,0.28
1697352474.31,0.05,0.45,0.51,-0.1,-1,27.8,0.96,-0,0.01,0.28
1697352474.32,-0.01,0.4,0.49,4,-0.3,25.6,0.96,-0,0.01,0.29
1697352474.33,-0.11,0.25,1.58,1.9,-0.1,25.6,0.96,-0,0.01,0.29
1697352474.34,-0.1,0.31,0.9,1.9,-0.1,25.6,0.96,-0,0.01,0.29
1697352474.35,-0.09,0.55,1.24,-1.6,0.2,25.5,0.96,-0,0.01,0.29
1697352474.36,0,0.72,0.92,-2.5,1.2,26.1,0.95,-0,0.01,0.3
1697352474.37,0,0.72,0.92,-1.3,1.6,27.2,0.95,-0,0.01,0.3
1697352474.38,-0.08,0.65,0.65,0.6,2,28.2,0.95,-0,0.01,0.3
1697352474.39,-0.08,0.65,0.65,-0.2,3,29.5,0.95,-0,0.01,0.3
1697352474.4,-0.05,0.86,1.1,-0.9,3.7,31.4,0.95,-0,0.01,0.31
1697352474.41,-0.05,0.86,1.1,0.4,4.3,33.5,0.95,-0,0.01,0.31
1697352474.42,-0.18,0.96,1.24,1.9,4.2,35.6,0.95,-0,0.01,0.31
1697352474.43,-0.18,0.96,1.24,3,3.8,38,0.95,-0,0.01,0.31
1697352474.44,-0.23,0.69,1.29,2.8,3.3,40.7,0.95,-0,0.01,0.32
1697352474.45,-0.18,1.06,0.61,0.4,3.5,43,0.95,-0,0.01,0.32
1697352474.46,-0.18,1.06,0.61,-1.6,3.6,44.7,0.95,-0,0.01,0.32
1697352474.47,-0.27,1.15,1.04,0,3.5,46.4,0.94,-0,0.01,0.33
1697352474.48,-0.27,1.15,1.04,4.8,3.2,47.6,0.94,-0,0.01,0.33
1697352474.49,-0.22,0.83,0.65,7.4,3.2,48.9,0.94,-0,0.01,0.34
1697352474.5,-0.22,0.83,0.65,7.4,3.2,48.9,0.94,-0,0.01,0.34
1697352474.51,-0.22,0.83,0.65,7.4,3.2,48.9,0.94,-0,0.01,0.34
1697352474.52,-0.22,0.83,0.65,7.4,3.2,48.9,0.94,-0,0.01,0.34
1697352474.53,-0.22,0.83,0.65,7.4,3.2,48.9,0.94,-0,0.01,0.34
1697352474.54,-0.22,0.83,0.65,7.4,3.2,48.9,0.94,-0,0.01,0.34
1697352474.55,-0.22,0.83,0.65,7.4,3.2,48.9,0.94,-0,0.01,0.34
1697352474.56,-0.22,0.83,0.65,7.4,3.2,48.9,0.94,-0,0.01,0.34
1697352474.57,-0.22,0.83,0.65,7.4,3.2,48.9,0.94,-0,0.01,0.34
1697352474.58,-0.22,0.83,0.65,7.4,3.2,48.9,0.94,-0,0.01,0.34
1697352474.59,-0.22,0.83,0.65,7.4,3.2,48.9,0.94,-0,0.01,0.34
1697352474.6,-0.22,0.83,0.65,7.4,3.2,48.9,0.94,-0,0.01,0.34
1697352474.61,-0.22,0.83,0.65,7.4,3.2,48.9,0.94,-0,0.01,0.34
1697352474.62,-0.22,0.83,0.65,7.4,3.2,48.9,0.94,-0,0.01,0.34
1697352474.63,-0.17,0.91,0.56,2.5,3.3,48.4,0.92,-0,0.02,0.39
1697352474.64,-0.16,0.72,0.99,3,4,48.4,0.92,-0,0.02,0.4
1697352474.65,-0.18,0.71,1.06,2,4.5,48,0.92,-0,0.02,0.4
1697352474.66,-0.1,0.72,0.95,0.5,4.1,48.2,0.91,-0,0.02,0.4
1697352474.67,-0.2,0.76,1.29,0.1,3.5,48.7,0.91,-0,0.02,0.41
1697352474.68,-0.05,0.8,0.84,0.1,2,48.8,0.91,-0,0.02,0.41
1697352474.69,-0.16,0.7,1.31,-0.8,1.2,49.4,0.91,-0,0.02,0.42
1697352474.7,-0.1,0.72,0.63,-2.3,0.2,49.8,0.91,-0,0.02,0.42
1697352474.71,-0.24,0.86,1.06,-1.7,-0.2,49.8,0.9,-0,0.02,0.43
1697352474.72,0.05,0.94,0.65,1.4,-0.3,50.1,0.9,-0,0.02,0.43
1697352474.73,-0.11,0.86,0.92,1.4,-0.3,50.1,0.9,-0,0.02,0.44
1697352474.74,-0.21,0.71,1.16,4.2,-0.4,49.7,0.9,-0,0.02,0.44
1697352474.75,-0.21,0.71,1.16,4.6,0.2,49,0.9,-0,0.02,0.44
1697352474.76,0.08,0.73,1.15,2.1,0.5,48.8,0.9,-0,0.02,0.44
1697352474.77,0.21,0.94,0.75,0.3,0.5,48.2,0.89,-0,0.02,0.45
1697352474.78,0.14,0.91,1.31,1.1,0.4,48,0.89,-0,0.02,0.45
1697352474.79,0.14,0.91,1.31,3.7,0.5,48.1,0.89,-0,0.02,0.45
1697352474.8,0.03,0.77,0.93,6.6,0.2,47.8,0.89,-0,0.02,0.46
1697352474.81,0.03,0.77,0.93,6,0.9,48.4,0.89,0,0.02,0.46
1697352474.82,-0.05,0.92,0.78,2.9,1.4,49.3,0.88,0,0.02,0.47
1697352474.83,-0.31,1.02,1.08,0.5,2,52.1,0.88,0,0.02,0.47
1697352474.84,-0.23,1.27,0.83,2.1,2.8,56,0.88,0,0.02,0.47
1697352474.85,-0.2,1.24,0.92,5,3.1,59,0.88,0,0.02,0.48
1697352474.86,-0.15,1.1,1.39,6.7,2.8,61.8,0.88,0,0.02,0.48
1697352474.87,-0,0.95,0.7,5.9,2.7,63.6,0.87,0,0.02,0.49
1697352474.88,-0.21,0.86,1.33,3.4,1.6,64.3,0.87,0,0.02,0.49
1697352474.89,0.08,0.81,0.7,-0.5,0.5,65.4,0.87,0,0.02,0.5
1697352474.9,-0.11,1.06,0.92,-0.9,-1,65.7,0.87,0,0.02,0.5
1697352474.91,0.11,1.06,0.74,1.3,-1.8,66.5,0.86,0,0.02,0.51
1697352474.92,-0.17,1.06,1.48,4,-2.1,66.2,0.86,0,0.02,0.51
1697352474.93,0.11,1.09,0.67,5.2,-2.7,65.9,0.85,0,0.02,0.52
1697352474.94,-0.21,1.03,1.41,5.5,-2.7,65.5,0.85,0,0.02,0.52
1697352474.95,-0.04,1.05,0.86,4.9,-2.9,64.8,0.85,0.01,0.02,0.53
1697352474.96,-0.04,1.05,0.86,4.9,-2.9,64.8,0.85,0.01,0.02,0.53
1697352474.97,0.03,1.03,0.79,2,-1.6,63.2,0.84,0.01,0.02,0.54
1697352474.98,-0.14,1.13,0.98,0.9,0.4,62.3,0.84,0.01,0.02,0.54
1697352474.99,-0.05,1.16,0.98,0.1,2,61.9,0.84,0.01,0.02,0.55
1697352475,-0.05,1.16,0.98,0.1,2,61.9,0.84,0.01,0.02,0.55
1697352475.01,-0.12,1.34,1.11,0.3,3.1,62.4,0.83,0.01,0.02,0.56
1697352475.02,-0.03,1.25,0.82,2.1,3.9,62.5,0.83,0.01,0.02,0.56
1697352475.03,-0.03,1.25,0.82,2.1,3.9,62.5,0.83,0.01,0.02,0.56
1697352475.04,-0.03,1.25,0.82,2.1,3.9,62.5,0.83,0.01,0.02,0.56
1697352475.05,-0.03,1.25,0.82,2.1,3.9,62.5,0.83,0.01,0.02,0.56
1697352475.06,-0.03,1.25,0.82,2.1,3.9,62.5,0.83,0.01,0.02,0.56
1697352475.07,-0.03,1.25,0.82,2.1,3.9,62.5,0.83,0.01,0.02,0.56
1697352475.08,-0.03,1.25,0.82,2.1,3.9,62.5,0.83,0.01,0.02,0.56
1697352475.09,-0.03,1.25,0.82,2.1,3.9,62.5,0.83,0.01,0.02,0.56
1697352475.1,-0.03,1.25,0.82,2.1,3.9,62.5,0.83,0.01,0.02,0.56
1697352475.11,-0.03,1.25,0.82,2.1,3.9,62.5,0.83,0.01,0.02,0.56
1697352475.12,-0.03,1.25,0.82,2.1,3.9,62.5,0.83,0.01,0.02,0.56
1697352475.13,-0.03,1.25,0.82,2.1,3.9,62.5,0.83,0.01,0.02,0.56
1697352475.14,-0.03,1.25,0.82,2.1,3.9,62.5,0.83,0.01,0.02,0.56
1697352475.15,-0.03,1.25,0.82,2.1,3.9,62.5,0.83,0.01,0.02,0.56
1697352475.16,-0.03,1.25,0.82,2.1,3.9,62.5,0.83,0.01,0.02,0.56
1697352475.17,-0.03,1.25,0.82,2.1,3.9,62.5,0.83,0.01,0.02,0.56
1697352475.18,-0.03,1.25,0.82,2.1,3.9,62.5,0.83,0.01,0.02,0.56
1697352475.19,-0.03,1.25,0.82,2.1,3.9,62.5,0.83,0.01,0.02,0.56
1697352475.2,-0.45,1.4,1.17,0.1,6.2,78.3,0.75,0.01,0.03,0.66
1697352475.21,-0.45,1.4,1.17,0.1,6.2,78.3,0.75,0.01,0.03,0.66
1697352475.22,-0.32,1.4,1.07,-1.3,6.6,79.8,0.74,0.01,0.03,0.67
1697352475.23,-0.32,1.4,1.07,-1.3,6.6,79.8,0.74,0.01,0.03,0.67
1697352475.24,-0.18,1.45,0.55,0,4.2,84.3,0.74,0.01,0.03,0.67
1697352475.25,-0.15,1.22,0.69,0,4.2,84.3,0.73,0.01,0.03,0.68
1697352475.26,-0.23,1.36,1.14,0.3,0.9,87.9,0.73,0.01,0.03,0.69
1697352475.27,-0.24,1.05,1.15,0.3,0.9,87.9,0.72,0.01,0.03,0.69
1697352475.28,-0.06,1.22,0.76,-2.8,-1.7,90.4,0.72,0.01,0.03,0.7
1697352475.29,-0.01,1.05,0.76,-2.8,-1.7,90.4,0.71,0.01,0.03,0.7
1697352475.3,0,1.22,0.99,-4.8,-2.4,91.4,0.7,0.01,0.03,0.71
1697352475.31,-0.16,1.3,0.85,-5.2,-2.6,91.8,0.7,0.01,0.03,0.71
1697352475.32,-0.1,1.29,0.99,-4.2,-1.7,91.1,0.69,0.01,0.03,0.72
1697352475.33,-0.17,1.34,1.16,-1,-0.5,89.7,0.69,0.01,0.03,0.73
1697352475.34,-0.17,1.51,1.17,2,0.5,88.3,0.68,0.01,0.03,0.73
1697352475.35,-0.19,1.08,1.15,5.1,1.3,86.3,0.67,0.01,0.03,0.74
1697352475.36,-0.19,1.08,1.15,5.1,1.3,86.3,0.67,0.01,0.03,0.74
1697352475.37,-0.26,1.17,1.55,5.3,3.2,83.8,0.66,0.01,0.03,0.75
1697352475.38,-0.26,1.17,1.55,5.3,3.2,83.8,0.66,0.01,0.03,0.75
1697352475.39,-0.12,1.41,0.68,0,5.1,81.7,0.65,0.01,0.03,0.76
1697352475.4,-0.12,1.41,0.68,0,5.1,81.7,0.65,0.01,0.03,0.76
1697352475.41,-0.25,1.41,0.72,-1.7,6.3,80.3,0.65,0.01,0.03,0.76
1697352475.42,-0.25,1.41,0.72,-0.9,7.2,80.2,0.65,0.01,0.03,0.76
1697352475.43,-0.16,1.39,0.78,2.9,5.7,81.2,0.64,0.01,0.03,0.77
1697352475.44,-0.15,1.16,0.97,2.9,5.7,81.2,0.64,0.01,0.03,0.77
1697352475.45,-0.19,1.28,1.36,2.8,3.1,83.9,0.62,0.01,0.03,0.78
1697352475.46,-0.19,1.02,0.71,1,2.2,85.7,0.62,0.01,0.03,0.79
1697352475.47,-0.31,1.21,1.09,-0.8,1,86.4,0.61,0.01,0.03,0.79
1697352475.48,-0.06,1.1,0.91,-3.2,0.3,87.2,0.6,0.01,0.03,0.8
1697352475.49,0.03,1.16,0.4,-4.9,-0.1,87.3,0.59,0.01,0.03,0.8
1697352475.5,0.05,1.21,1.32,-5.7,-0.3,87.7,0.59,0.01,0.03,0.81
1697352475.51,0.3,1.23,1.08,-4.4,-0.8,87.6,0.59,0.01,0.03,0.81
1697352475.52,0.36,1.06,0.59,-1.7,-0.5,87.1,0.58,0.01,0.03,0.82
1697352475.53,0.36,1.06,0.59,-1.7,-0.5,87.1,0.58,0.01,0.03,0.82
1697352475.54,0.05,0.77,1.02,-0.4,-0.5,82.5,0.56,0.01,0.03,0.82
1697352475.55,0.06,0.79,1.14,-1.4,0.4,77.7,0.56,0.01,0.03,0.83
1697352475.56,-0.28,0.89,0.93,-2.8,2,71.4,0.56,0.01,0.03,0.83
1697352475.57,-0.3,0.78,1.91,-3.6,3.9,64,0.55,0.01,0.03,0.83
1697352475.58,-0.17,0.8,0.71,-1.9,4.8,57.4,0.55,0.01,0.03,0.84
1697352475.59,-0.17,0.8,0.71,-1.9,4.8,57.4,0.55,0.01,0.03,0.84
1697352475.6,-0.17,0.8,0.71,-1.9,4.8,57.4,0.55,0.01,0.03,0.84
1697352475.61,-0.17,0.8,0.71,-1.9,4.8,57.4,0.55,0.01,0.03,0.84
1697352475.62,-0.17,0.8,0.71,-1.9,4.8,57.4,0.55,0.01,0.03,0.84
1697352475.63,-0.17,0.8,0.71,-1.9,4.8,57.4,0.55,0.01,0.03,0.84
1697352475.64,-0.17,0.8,0.71,-1.9,4.8,57.4,0.55,0.01,0.03,0.84
1697352475.65,-0.17,0.8,0.71,-1.9,4.8,57.4,0.55,0.01,0.03,0.84
1697352475.66,-0.17,0.8,0.71,-1.9,4.8,57.4,0.55,0.01,0.03,0.84
1697352475.67,-0.17,0.8,0.71,-1.9,4.8,57.4,0.55,0.01,0.03,0.84
1697352475.68,-0.17,0.8,0.71,-1.9,4.8,57.4,0.55,0.01,0.03,0.84
1697352475.69,-0.17,0.8,0.71,-1.9,4.8,57.4,0.55,0.01,0.03,0.84
1697352475.7,-0.17,0.8,0.71,-1.9,4.8,57.4,0.55,0.01,0.03,0.84
1697352475.71,-0.17,0.8,0.71,-1.9,4.8,57.4,0.55,0.01,0.03,0.84
1697352475.72,-0.06,0.2,1.11,-4.1,-0.4,38.4,0.51,0.01,0.02,0.86
1697352475.73,0.09,0.28,0.91,-2.8,-0.3,36.6,0.5,0.01,0.02,0.86
1697352475.74,0.09,0.29,1.02,-1.2,-0.4,34.6,0.5,0.01,0.02,0.86
1697352475.75,0.15,0.36,0.96,0.1,-0.1,31.8,0.5,0.01,0.02,0.87
1697352475.76,0.04,0.32,0.89,1.2,0.3,29.9,0.5,0.01,0.02,0.87
1697352475.77,0.08,0.44,1.31,2.2,0.6,28.4,0.49,0.01,0.02,0.87
1697352475.78,-0.08,0.36,0.89,1.9,1.4,27.4,0.49,0.01,0.02,0.87
1697352475.79,0,0.37,0.89,0.2,2.3,27,0.49,0.01,0.02,0.87
1697352475.8,0,0.37,0.89,0.2,2.3,27,0.49,0.01,0.02,0.87
1697352475.81,0,0.43,0.71,-2.9,2.2,26.8,0.49,0.01,0.02,0.87
1697352475.82,0.1,0.45,1.48,-2.9,2.2,26.8,0.49,0.01,0.02,0.87
1697352475.83,-0.03,0.46,0.88,-1.8,0.2,26.3,0.48,0.01,0.02,0.88
1697352475.84,0.09,0.22,1.13,-1.8,0.2,26.3,0.48,0.01,0.02,0.88
1697352475.85,0.24,0.09,0.96,-2.7,-1.3,22,0.48,0.01,0.02,0.88
1697352475.86,0.11,-0.06,1.03,-2.7,-1.3,22,0.48,0.01,0.02,0.88
1697352475.87,0.2,-0.26,0.96,-5.4,-1.8,14.8,0.47,0.01,0.02,0.88
1697352475.88,-0.01,-0.24,1.14,-6.8,-1.3,10.8,0.47,0.01,0.02,0.88
1697352475.89,0.12,-0.32,0.53,-7.9,-1.1,7,0.47,0.01,0.02,0.88
1697352475.9,0.08,-0.35,1.29,-8.1,-0.6,3.1,0.47,0.01,0.02,0.88
1697352475.91,0.18,-0.33,0.53,-8.1,-0.6,3.1,0.47,0.01,0.02,0.88
1697352475.92,-0.09,-0.31,1.48,-6.8,0.1,-0.9,0.47,0.01,0.02,0.88
1697352475.93,-0.09,-0.31,1.48,-6.8,0.1,-0.9,0.47,0.01,0.02,0.88
1697352475.94,-0.03,-0.4,1.54,-6.3,0.3,-3.3,0.47,0,0.02,0.88
1697352475.95,-0.03,-0.4,1.54,-5.9,0.5,-5.4,0.47,0,0.02,0.88
1697352475.96,0.44,-0.38,0.53,-6.6,0.1,-6.9,0.47,0,0.02,0.88
1697352475.97,0.24,-0.31,0.88,-7.1,-0.2,-8.3,0.48,0,0.02,0.88
1697352475.98,0.24,-0.31,0.88,-6.4,-1.4,-9.5,0.48,0,0.02,0.88
1697352475.99,0.04,-0.47,1.15,-4.8,-2,-10.3,0.48,0,0.02,0.88
1697352476,0.25,-0.57,0.74,-3.9,-2.4,-11.4,0.48,0,0.01,0.88
1697352476.01,0.01,-0.61,1.26,-4.5,-2.4,-13,0.48,0,0.01,0.88
1697352476.02,0.12,-0.66,1.3,-4.7,-2.4,-14.7,0.48,0,0.01,0.88
1697352476.03,-0.02,-0.66,0.9,-3.7,-2.6,-18.7,0.48,0,0.01,0.88
1697352476.04,0.12,-0.59,0.95,-3.2,-2,-20.7,0.48,0,0.01,0.88
1697352476.05,-0,-0.64,1.22,-2.9,-1.7,-22.1,0.48,0,0.01,0.87
1697352476.06,0.22,-0.6,0.86,-2.7,-1.3,-23.3,0.49,0,0.01,0.87
1697352476.07,0.08,-0.57,1.08,-2.2,-1.1,-24.9,0.49,0,0.01,0.87
1697352476.08,0.18,-0.5,0.97,-1,-0.7,-25.3,0.49,0,0.01,0.87
1697352476.09,0.2,-0.46,1.21,0.1,-0.2,-25.5,0.49,0,0.01,0.87
1697352476.1,0.2,-0.49,0.61,0.1,-0.2,-25.5,0.49,0,0.01,0.87
1697352476.11,0.2,-0.49,0.61,0.1,-0.2,-25.5,0.49,0,0.01,0.87
1697352476.12,0.2,-0.49,0.61,0.1,-0.2,-25.5,0.49,0,0.01,0.87
1697352476.13,0.2,-0.49,0.61,0.1,-0.2,-25.5,0.49,0,0.01,0.87
1697352476.14,0.2,-0.49,0.61,0.1,-0.2,-25.5,0.49,0,0.01,0.87
1697352476.15,0.2,-0.49,0.61,0.1,-0.2,-25.5,0.49,0,0.01,0.87
1697352476.16,0.2,-0.49,0.61,0.1,-0.2,-25.5,0.49,0,0.01,0.87
1697352476.17,0.2,-0.49,0.61,0.1,-0.2,-25.5,0.49,0,0.01,0.87
1697352476.18,0.2,-0.49,0.61,0.1,-0.2,-25.5,0.49,0,0.01,0.87
1697352476.19,0.2,-0.49,0.61,0.1,-0.2,-25.5,0.49,0,0.01,0.87
1697352476.2,0.2,-0.49,0.61,0.1,-0.2,-25.5,0.49,0,0.01,0.87
1697352476.21,0.2,-0.49,0.61,0.1,-0.2,-25.5,0.49,0,0.01,0.87
1697352476.22,0.2,-0.49,0.61,0.1,-0.2,-25.5,0.49,0,0.01,0.87
1697352476.23,0.2,-0.49,0.61,0.1,-0.2,-25.5,0.49,0,0.01,0.87
1697352476.24,0.2,-0.49,0.61,0.1,-0.2,-25.5,0.49,0,0.01,0.87
1697352476.25,0.2,-0.49,0.61,0.1,-0.2,-25.5,0.49,0,0.01,0.87
1697352476.26,0.2,-0.49,0.61,0.1,-0.2,-25.5,0.49,0,0.01,0.87
1697352476.27,0.2,-0.49,0.61,0.1,-0.2,-25.5,0.49,0,0.01,0.87
1697352476.28,0.2,-0.49,0.61,0.1,-0.2,-25.5,0.49,0,0.01,0.87
1697352476.29,0.2,-0.49,0.61,0.1,-0.2,-25.5,0.49,0,0.01,0.87
1697352476.3,0.2,-0.49,0.61,0.1,-0.2,-25.5,0.49,0,0.01,0.87
1697352476.31,0.2,-0.49,0.61,0.1,-0.2,-25.5,0.49,0,0.01,0.87
1697352476.32,0.2,-0.49,0.61,0.1,-0.2,-25.5,0.49,0,0.01,0.87
1697352476.33,0.2,-0.49,0.61,0.1,-0.2,-25.5,0.49,0,0.01,0.87
1697352476.34,0.2,-0.49,0.61,0.1,-0.2,-25.5,0.49,0,0.01,0.87
1697352476.35,0.03,-0.86,1.35,-3.2,-0.3,-48.8,0.56,-0,0.01,0.83
1697352476.36,0.03,-0.86,1.35,0.1,-0.4,-50.1,0.57,-0,0.01,0.82
1697352476.37,-0.11,-1.06,0.57,1.2,-0.4,-50.6,0.57,-0,0.01,0.82
1697352476.38,-0.09,-0.95,0.65,-1,0.3,-52.2,0.57,-0,0.01,0.82
1697352476.39,0.07,-0.88,1.41,-3,0.9,-52.9,0.58,-0,0.01,0.82
1697352476.4,-0.08,-0.81,0.6,-1.8,1.2,-53,0.58,-0,0.01,0.81
1697352476.41,0.05,-1.09,1.18,-0.9,1.3,-52.7,0.58,-0,0.01,0.81
1697352476.42,-0.03,-0.82,0.65,-1.2,1.1,-53,0.59,-0,0.01,0.81
1697352476.43,-0.19,-1.08,1.13,-2.3,1.1,-52.2,0.59,-0,0.01,0.81
1697352476.44,0.15,-0.74,0.16,-2.5,1.2,-52.3,0.6,-0,0.01,0.8
1697352476.45,0.09,-0.88,0.33,-3,1.6,-51.4,0.6,-0,0.01,0.8
1697352476.46,-0.04,-0.83,0.98,-1,1.5,-51.7,0.6,-0,0.01,0.8
1697352476.47,0.12,-0.92,1.02,-0.3,1.2,-51.7,0.61,-0,0.01,0.79
1697352476.48,-0.04,-0.88,1.27,-0.1,0.7,-51.9,0.61,-0,0.01,0.79
1697352476.49,0.16,-1.03,0.66,0.1,-0.4,-51.9,0.61,-0,0.01,0.79
1697352476.5,-0.01,-0.8,0.74,1.4,-0.6,-52.5,0.62,-0,0.01,0.79
1697352476.51,-0.06,-0.93,1.47,0.7,-0.4,-52.3,0.62,-0,0.01,0.78
1697352476.52,-0.02,-0.9,0.53,-0.4,0.5,-51.9,0.63,-0,0.01,0.78
1697352476.53,-0.1,-0.82,1.29,-1.1,1.2,-51.5,0.63,-0,0.01,0.78
1697352476.54,-0.07,-1.01,1.55,-0.1,1.9,-51.9,0.63,-0,0.01,0.77
1697352476.55,0.06,-0.88,0.73,0,2.1,-52.4,0.64,-0,0.01,0.77
1697352476.56,0.01,-0.98,1.44,0,2.1,-52.4,0.64,-0,0.01,0.77
1697352476.57,0.14,-0.89,0.72,-1.4,1.9,-53.3,0.64,-0,0.01,0.76
1697352476.58,0.14,-0.89,0.72,-1.4,1.9,-53.3,0.64,-0,0.01,0.76
1697352476.59,0.24,-0.87,0.61,-1.8,0.1,-53.6,0.65,-0,0.01,0.76
1697352476.6,-0.15,-0.85,1,-1.5,-0.6,-53.6,0.65,-0,0.01,0.76
1697352476.61,0.1,-0.77,1.15,-0.4,-1.1,-53.4,0.65,-0,0.01,0.76
1697352476.62,0.15,-0.83,0.41,0.5,-1.3,-53.2,0.66,-0,0.01,0.75
1697352476.63,0.15,-0.83,0.41,0.5,-1.3,-53.2,0.66,-0,0.01,0.75
1697352476.64,0.13,-1.07,1.32,1.4,-0.3,-53.3,0.67,-0,0.01,0.74
1697352476.65,0.13,-1.07,1.32,1.4,-0.3,-53.3,0.67,-0,0.01,0.74
1697352476.66,0.13,-1.07,1.32,1.4,-0.3,-53.3,0.67,-0,0.01,0.74
1697352476.67,0.13,-1.07,1.32,1.4,-0.3,-53.3,0.67,-0,0.01,0.74
1697352476.68,0.13,-1.07,1.32,1.4,-0.3,-53.3,0.67,-0,0.01,0.74
1697352476.69,0.13,-1.07,1.32,1.4,-0.3,-53.3,0.67,-0,0.01,0.74
1697352476.7,0.13,-1.07,1.32,1.4,-0.3,-53.3,0.67,-0,0.01,0.74
1697352476.71,0.13,-1.07,1.32,1.4,-0.3,-53.3,0.67,-0,0.01,0.74
1697352476.72,0.13,-1.07,1.32,1.4,-0.3,-53.3,0.67,-0,0.01,0.74
1697352476.73,0.13,-1.07,1.32,1.4,-0.3,-53.3,0.67,-0,0.01,0.74
1697352476.74,0.13,-1.07,1.32,1.4,-0.3,-53.3,0.67,-0,0.01,0.74
1697352476.75,0.13,-1.07,1.32,1.4,-0.3,-53.3,0.67,-0,0.01,0.74
1697352476.76,0.13,-1.07,1.32,1.4,-0.3,-53.3,0.67,-0,0.01,0.74
1697352476.77,0.13,-1.07,1.32,1.4,-0.3,-53.3,0.67,-0,0.01,0.74
1697352476.78,0.13,-1.07,1.32,1.4,-0.3,-53.3,0.67,-0,0.01,0.74
1697352476.79,0.13,-1.07,1.32,1.4,-0.3,-53.3,0.67,-0,0.01,0.74
1697352476.8,0.19,-0.92,0.53,0.8,-0.4,-53.4,0.72,-0.01,0.01,0.69
1697352476.81,-0.02,-0.86,1.56,0.3,-0.4,-52.6,0.72,-0.01,0.01,0.69
1697352476.82,0.05,-1.14,1,0,0,-52.9,0.73,-0.01,0.01,0.69
1697352476.83,0.03,-0.98,0.68,0,0,-52.9,0.73,-0.01,0.01,0.69
1697352476.84,0.1,-0.56,1.05,0.3,0.7,-51.7,0.73,-0.01,0.01,0.68
1697352476.85,0.05,-0.86,0.84,3.5,1.2,-50.7,0.74,-0.01,0.01,0.68
1697352476.86,0.1,-0.84,1.46,4,1.2,-50.5,0.74,-0.01,0.01,0.68
1697352476.87,0.1,-0.84,1.46,4,1.2,-50.5,0.74,-0.01,0.01,0.67
1697352476.88,0.07,-0.64,0.29,3.1,3.5,-49.9,0.74,-0.01,0.01,0.67
1697352476.89,0.26,-1.32,1.08,3.1,3.5,-49.9,0.75,-0.01,0.01,0.67
1697352476.9,0.49,-0.68,-0.18,0,4.6,-50.1,0.75,-0.01,0.01,0.66
1697352476.91,0.49,-0.68,-0.18,0,4.6,-50.1,0.75,-0.01,0.01,0.66
1697352476.92,0,-0.8,1.15,-3.8,2.6,-52.1,0.76,-0.01,0.01,0.65
1697352476.93,0,-0.8,1.15,0,0.5,-54.3,0.76,-0.01,0.01,0.65
1697352476.94,-0.05,-0.86,1.48,-0.5,-0.8,-54,0.76,-0.01,0.01,0.65
1697352476.95,-0.05,-0.86,1.48,0,-1.8,-53.4,0.76,-0.01,0.01,0.65
1697352476.96,0.13,-0.6,0.91,0,-1.8,-53.4,0.77,-0.01,0.01,0.64
1697352476.97,0.04,-0.81,1.27,2.6,-3.7,-51.1,0.77,-0.01,0.01,0.64
1697352476.98,0.21,-0.69,0.77,2.6,-3.7,-51.1,0.77,-0.01,0.01,0.63
1697352476.99,-0.03,-0.52,1.16,0.8,-2,-47.3,0.78,-0.01,0.01,0.63
1697352477,0.04,-0.57,1.09,0.8,-2,-47.3,0.78,-0.01,0.01,0.63
1697352477.01,0.18,-0.44,0.63,0.7,-0.3,-44.3,0.78,-0.01,0.01,0.62
1697352477.02,-0.01,-0.69,1.11,2.7,1.6,-41.9,0.78,-0.01,0.01,0.62
1697352477.03,-0.03,-0.89,0.58,5.7,3.6,-39.1,0.79,-0.01,0.01,0.62
1697352477.04,0.08,-0.61,0.43,6.4,4.4,-36.8,0.79,-0.01,0.01,0.62
1697352477.05,-0.01,-0.83,1.36,5.5,4.9,-36.8,0.79,-0.01,0.01,0.61
1697352477.06,-0.06,-0.37,0.6,-0.9,4.7,-35.1,0.79,-0.01,0.01,0.61
1697352477.07,0.26,-0.21,0.49,-1.5,3.7,-35.7,0.79,-0.01,0.01,0.61
1697352477.08,0.08,-0.23,0.76,0,2.5,-33.7,0.79,-0.01,0.01,0.61
1697352477.09,0.13,-0.07,1.15,3.1,2.3,-32,0.8,-0.01,0.01,0.6
1697352477.1,0.21,-0.21,0.64,3.9,2.1,-30.4,0.8,-0.01,0.01,0.6
1697352477.11,-0.12,-0.11,1.2,1.6,0.9,-27,0.8,-0.01,0.01,0.6
1697352477.12,0.28,0.06,0.55,1.1,1.2,-24.4,0.8,-0.01,0.01,0.6
1697352477.13,0.1,-0.09,0.62,1.6,1,-21.2,0.8,-0.01,0.01,0.6
1697352477.14,-0.15,-0.05,1.33,3.6,0.9,-18.6,0.8,-0.01,0.01,0.6
1697352477.15,-0.17,-0.1,1.02,4.6,1.4,-16.6,0.8,-0.01,0.01,0.59
1697352477.16,-0.04,0.07,0.61,4.9,2.3,-14.4,0.8,-0.01,0.02,0.59
1697352477.17,-0.16,0.12,1.38,4.4,3.1,-11.7,0.81,-0.01,0.02,0.59
1697352477.18,0.12,0.25,0.74,5.1,3.4,-8.6,0.81,-0.01,0.02,0.59
1697352477.19,-0.12,0.16,1.09,5.6,3.6,-5.6,0.81,-0.01,0.02,0.59
1697352477.2,0.04,0.17,1.25,5.4,3.9,-2.9,0.81,-0.01,0.02,0.59
1697352477.21,0.13,0.19,0.68,5.4,3.9,-2.9,0.81,-0.01,0.02,0.59
1697352477.22,0.13,0.19,0.68,5.4,3.9,-2.9,0.81,-0.01,0.02,0.59
1697352477.23,0.13,0.19,0.68,5.4,3.9,-2.9,0.81,-0.01,0.02,0.59
1697352477.24,0.13,0.19,0.68,5.4,3.9,-2.9,0.81,-0.01,0.02,0.59
1697352477.25,0.13,0.19,0.68,5.4,3.9,-2.9,0.81,-0.01,0.02,0.59
1697352477.26,0.13,0.19,0.68,5.4,3.9,-2.9,0.81,-0.01,0.02,0.59
1697352477.27,0.13,0.19,0.68,5.4,3.9,-2.9,0.81,-0.01,0.02,0.59
1697352477.28,0.13,0.19,0.68,5.4,3.9,-2.9,0.81,-0.01,0.02,0.59
1697352477.29,0.13,0.19,0.68,5.4,3.9,-2.9,0.81,-0.01,0.02,0.59
1697352477.3,0.13,0.19,0.68,5.4,3.9,-2.9,0.81,-0.01,0.02,0.59
1697352477.31,0.13,0.19,0.68,5.4,3.9,-2.9,0.81,-0.01,0.02,0.59
1697352477.32,0.13,0.19,0.68,5.4,3.9,-2.9,0.81,-0.01,0.02,0.59
1697352477.33,0.13,0.19,0.68,5.4,3.9,-2.9,0.81,-0.01,0.02,0.59
1697352477.34,0.13,0.19,0.68,5.4,3.9,-2.9,0.81,-0.01,0.02,0.59
1697352477.35,0.21,0.32,0.8,0.1,0.9,8.6,0.8,-0,0.02,0.6
1697352477.36,-0.02,0.34,1.24,1.4,1.3,10.2,0.8,-0,0.02,0.6
1697352477.37,0.12,0.3,1.2,2.8,1.3,11.8,0.8,-0,0.02,0.6
1697352477.38,-0.07,0.36,1.29,3.1,1.3,13.1,0.8,-0,0.02,0.6
1697352477.39,-0.07,0.36,1.29,3.4,1.1,14.5,0.8,-0,0.02,0.6
1697352477.4,0.14,0.29,0.93,3.5,0.2,15.8,0.8,-0,0.02,0.6
1697352477.41,0.08,0.36,1.07,1.5,-0.3,17.2,0.8,-0,0.02,0.6
1697352477.42,0.09,0.58,0.8,0.3,-0.8,18.3,0.8,-0,0.02,0.6
1697352477.43,-0.04,0.77,1.2,0.5,-1.2,19.6,0.8,-0,0.02,0.61
1697352477.44,0.08,0.61,0.93,3,-2,21.3,0.79,-0,0.02,0.61
1697352477.45,0.15,0.52,0.83,5.4,-2.1,22.2,0.79,-0,0.02,0.61
1697352477.46,0.15,0.52,0.83,5.4,-2.1,22.2,0.79,-0,0.02,0.61
1697352477.47,0.13,0.47,0.83,4.6,-1.5,23.3,0.79,-0,0.02,0.61
1697352477.48,0.13,0.47,0.83,4.6,-1.5,23.3,0.79,-0,0.02,0.61
1697352477.49,0.11,0.59,0.87,0.3,0,24.3,0.79,-0,0.02,0.62
1697352477.5,-0.07,0.65,1.21,0.5,0.9,24.9,0.79,-0,0.02,0.62
1697352477.51,0.03,0.53,1.02,2.1,1.7,25.8,0.79,-0,0.02,0.62
1697352477.52,0.07,0.45,0.81,2.8,2.5,26.3,0.78,-0,0.02,0.62
1697352477.53,-0.07,0.46,1.03,2.8,2.5,26.3,0.78,-0,0.02,0.62
1697352477.54,-0.07,0.44,1.2,0.1,2.9,27.5,0.78,-0,0.02,0.62
1697352477.55,0.22,0.48,0.62,-0.5,2.9,27.7,0.78,-0,0.02,0.63
1697352477.56,-0.11,0.54,1.48,-0.5,2.3,27.8,0.78,-0,0.02,0.63
1697352477.57,0.14,0.49,1.02,0,1.4,27.3,0.78,-0,0.02,0.63
1697352477.58,0.08,0.7,1.02,0.2,-0.1,26.9,0.77,-0,0.02,0.63
1697352477.59,0.17,0.55,1.05,2.7,-3.2,26.8,0.77,0,0.02,0.63
1697352477.6,0.11,0.48,0.79,2.1,-3.7,26.4,0.77,0,0.02,0.64
1697352477.61,-0.03,0.4,1.21,0.4,-3.6,25.9,0.77,0,0.02,0.64
1697352477.62,0.23,0.32,0.61,-1.6,-2.7,25.6,0.77,0,0.02,0.64
1697352477.63,0.23,0.32,0.61,-1.6,-2.7,25.6,0.77,0,0.02,0.64
1697352477.64,0.1,0.41,0.43,-2.1,-1.2,25.3,0.77,0,0.02,0.64
1697352477.65,-0.17,0.39,1.43,-1.4,0.8,24.8,0.77,0,0.02,0.64
1697352477.66,-0.17,0.39,1.43,-1.4,0.8,24.8,0.76,0,0.02,0.64
1697352477.67,0.06,0.3,0.97,-0.4,2.3,24.3,0.76,0,0.02,0.65
1697352477.68,0.23,0.22,0.7,0,3.4,23.6,0.76,0,0.02,0.65
1697352477.69,0.02,0.26,1.47,-0.3,3.5,22.4,0.76,0,0.02,0.65
1697352477.7,0.08,0.12,0.81,0.2,2.9,21.1,0.76,0,0.02,0.65
1697352477.71,0.27,0.16,0.91,-0.6,1.9,19.6,0.76,0,0.02,0.65
1697352477.72,0.03,0.21,1.24,-2.3,0.4,18,0.76,0,0.02,0.65
1697352477.73,0.09,0.25,0.95,-3.1,-0.8,16.8,0.76,-0,0.02,0.65
1697352477.74,0,0.31,1.25,-2.5,-2.1,15.2,0.76,-0,0.02,0.65
1697352477.75,0,0.31,1.25,-2.5,-2.1,15.2,0.76,-0,0.02,0.65
1697352477.76,0,0.31,1.25,-2.5,-2.1,15.2,0.76,-0,0.02,0.65
1697352477.77,0,0.31,1.25,-2.5,-2.1,15.2,0.76,-0,0.02,0.65
1697352477.78,0,0.31,1.25,-2.5,-2.1,15.2,0.76,-0,0.02,0.65
1697352477.79,0,0.31,1.25,-2.5,-2.1,15.2,0.76,-0,0.02,0.65
1697352477.8,0,0.31,1.25,-2.5,-2.1,15.2,0.76,-0,0.02,0.65
1697352477.81,0,0.31,1.25,-2.5,-2.1,15.2,0.76,-0,0.02,0.65
1697352477.82,0,0.31,1.25,-2.5,-2.1,15.2,0.76,-0,0.02,0.65
1697352477.83,0,0.31,1.25,-2.5,-2.1,15.2,0.76,-0,0.02,0.65
1697352477.84,0,0.31,1.25,-2.5,-2.1,15.2,0.76,-0,0.02,0.65
1697352477.85,0,0.31,1.25,-2.5,-2.1,15.2,0.76,-0,0.02,0.65
1697352477.86,0,0.31,1.25,-2.5,-2.1,15.2,0.76,-0,0.02,0.65
1697352477.87,0,0.31,1.25,-2.5,-2.1,15.2,0.76,-0,0.02,0.65
1697352477.88,-0.05,0.34,1.3,-0.1,-1.4,13.6,0.74,-0,0.02,0.67
1697352477.89,-0.05,0.46,1.28,2.6,-1.4,13.7,0.74,0,0.02,0.67
1697352477.9,0.23,0.26,0.54,2.6,-1.4,13.7,0.74,0,0.02,0.67
1697352477.91,0.08,0.23,0.91,4.7,-1.2,13.4,0.74,0,0.02,0.67
1697352477.92,0.24,0.22,0.62,3.1,-1.4,13.4,0.74,0,0.02,0.67
1697352477.93,-0.1,0.17,1.13,-0.1,-0.4,13.7,0.74,0,0.02,0.67
1697352477.94,-0.1,0.17,1.13,-0.1,-0.4,13.7,0.74,0,0.02,0.67
1697352477.95,0.19,0.35,0.68,-1.7,2.1,14.5,0.74,0,0.02,0.67
1697352477.96,0.19,0.35,0.68,-1.7,2.1,14.5,0.74,0,0.02,0.67
1697352477.97,-0.21,0.43,1.41,2.5,3.8,16.2,0.74,0,0.02,0.68
1697352477.98,-0.21,0.43,1.41,2.5,3.8,16.2,0.74,0,0.02,0.68
1697352477.99,0.01,0.24,1.12,4.1,4.3,16.4,0.74,0,0.02,0.68
1697352478,0.01,0.24,1.12,1.8,3.4,16.4,0.73,0,0.02,0.68
1697352478.01,0.23,0.16,0.83,-1.7,2.1,16,0.73,0,0.02,0.68
1697352478.02,0.16,0.29,1.14,-4.5,0.3,16,0.73,0,0.02,0.68
1697352478.03,-0.03,0.41,1.22,-3.7,-1.4,15.8,0.73,0,0.02,0.68
1697352478.04,0.05,0.46,0.94,-1.3,-2.4,15.8,0.73,0,0.02,0.68
1697352478.05,0.23,0.41,0.48,0,-2.1,16,0.73,0,0.02,0.68
1697352478.06,-0.2,0.45,1.14,0.9,-2,16.6,0.73,0,0.02,0.68
1697352478.07,-0.13,0.38,1.2,2.2,-2,16.8,0.73,0,0.02,0.69
1697352478.08,-0.19,0.24,1.39,2.2,-1.5,17.1,0.73,0,0.02,0.69
1697352478.09,0.09,0.23,0.86,0.7,-0.7,17.9,0.73,0,0.02,0.69
1697352478.1,0.04,0.27,0.91,-0.6,0,18.5,0.72,0,0.02,0.69
1697352478.11,-0.12,0.35,1.16,-1.1,0.4,18.9,0.72,0,0.02,0.69
1697352478.12,-0.13,0.41,1.15,0.5,0.6,19.3,0.72,0,0.02,0.69
1697352478.13,0.17,0.46,0.8,2.8,0.6,19.9,0.72,0,0.02,0.69
1697352478.14,0.08,0.39,1.12,4.4,0,20.3,0.72,0,0.02,0.69
1697352478.15,0.02,0.25,1.12,2.8,-0.8,20.5,0.72,0,0.02,0.7
1697352478.16,-0.08,0.2,1.08,2,-0.9,20.4,0.72,0,0.02,0.7
1697352478.17,-0.07,0.31,1.1,-1.4,-1.3,20.1,0.72,0,0.02,0.7
1697352478.18,0.06,0.44,0.77,-3.2,-1.6,20,0.72,0,0.02,0.7
1697352478.19,0.02,0.46,0.79,-3,-1.6,20.1,0.71,0,0.02,0.7
1697352478.2,-0.18,0.62,1.35,-1.9,-1.3,20,0.71,0,0.02,0.7
1697352478.21,0.11,0.45,0.97,0,-2,20.3,0.71,0,0.02,0.7
1697352478.22,0.18,0.36,0.53,1.8,-2.8,20.1,0.71,0,0.02,0.7
1697352478.23,-0.13,0.31,1.24,1.7,-2.7,20,0.71,0,0.02,0.71
1697352478.24,-0.2,0.17,1.14,-0.5,-1.7,19.6,0.71,0,0.02,0.71
1697352478.25,0.04,0.35,1.13,-3.5,-0.1,18.7,0.71,0,0.02,0.71
1697352478.26,0.18,0.41,0.94,-3.5,-0.1,18.7,0.71,0,0.02,0.71
1697352478.27,0.18,0.41,0.94,-3.5,-0.1,18.7,0.71,0,0.02,0.71
1697352478.28,0.18,0.41,0.94,-3.5,-0.1,18.7,0.71,0,0.02,0.71
1697352478.29,0.18,0.41,0.94,-3.5,-0.1,18.7,0.71,0,0.02,0.71
1697352478.3,0.18,0.41,0.94,-3.5,-0.1,18.7,0.71,0,0.02,0.71
1697352478.31,0.18,0.41,0.94,-3.5,-0.1,18.7,0.71,0,0.02,0.71
1697352478.32,0.18,0.41,0.94,-3.5,-0.1,18.7,0.71,0,0.02,0.71
1697352478.33,0.18,0.41,0.94,-3.5,-0.1,18.7,0.71,0,0.02,0.71
1697352478.34,0.18,0.41,0.94,-3.5,-0.1,18.7,0.71,0,0.02,0.71
1697352478.35,0.18,0.41,0.94,-3.5,-0.1,18.7,0.71,0,0.02,0.71
1697352478.36,0.18,0.41,0.94,-3.5,-0.1,18.7,0.71,0,0.02,0.71
1697352478.37,0.18,0.41,0.94,-3.5,-0.1,18.7,0.71,0,0.02,0.71
1697352478.38,0.18,0.41,0.94,-3.5,-0.1,18.7,0.71,0,0.02,0.71
1697352478.39,0.18,0.41,0.94,-3.5,-0.1,18.7,0.71,0,0.02,0.71
1697352478.4,-0.06,0.21,1.33,-2.9,0,9.1,0.69,0,0.02,0.72
1697352478.41,-0.04,0.27,0.96,-0.1,0.3,8.3,0.69,0,0.02,0.72
1697352478.42,-0.06,0.14,1.11,3.2,1.1,7.4,0.69,0,0.02,0.72
1697352478.43,-0.1,0.04,1.34,3.4,1.8,7,0.69,0,0.02,0.72
1697352478.44,0.08,-0.18,0.94,-0.1,2.4,6.4,0.69,0,0.02,0.72
1697352478.45,0.2,-0.05,0.67,-3.9,2.7,6.1,0.69,0,0.02,0.72
1697352478.46,-0.1,0.11,1.37,-4.7,2.4,6,0.69,0,0.02,0.72
1697352478.47,-0.07,0.19,1.1,-3.4,1.5,6.3,0.69,0,0.02,0.72
1697352478.48,0.36,0.24,0.46,-0.8,0.5,6.7,0.69,0,0.02,0.72
1697352478.49,0.01,0.11,1.08,1,-0.7,6.7,0.69,0,0.02,0.72
1697352478.5,-0.04,0.07,1.18,1,-1.6,6.7,0.69,0,0.02,0.72
1697352478.51,-0.08,0,1.29,-1,-2.1,6.2,0.69,0,0.02,0.73
1697352478.52,0.01,0.05,0.94,-2.5,-2.6,5.7,0.69,0,0.02,0.73
1697352478.53,0.2,0.22,0.74,-2.4,-2.7,5.9,0.69,0,0.02,0.73
1697352478.54,0.08,0.15,0.97,0.3,-2.1,5.4,0.69,0,0.02,0.73
1697352478.55,-0.07,0.22,1.05,2.8,-1.1,5.3,0.69,0,0.02,0.73
1697352478.56,-0.11,0.01,1.07,3.2,0,4.9,0.69,0,0.02,0.73
1697352478.57,0.03,-0.14,0.87,0.4,0.9,4.4,0.69,0,0.02,0.73
1697352478.58,0,-0.06,1.13,-2.4,1.3,4,0.69,0,0.02,0.73
1697352478.59,0.29,0.04,0.78,-2.5,1.5,3.8,0.69,0,0.02,0.73
1697352478.6,0.04,0.21,1.09,-0.2,1.7,3.9,0.69,0,0.02,0.73
1697352478.61,-0.06,0.13,1.07,1.5,1.3,4,0.69,0,0.02,0.73
1697352478.62,0.11,0.05,0.95,1.2,0.6,4,0.68,0,0.02,0.73
1697352478.63,0.18,-0.03,0.65,-0.3,0.1,3.6,0.68,0,0.02,0.73
1697352478.64,0.01,0.01,1.16,-1.4,-0.3,3.1,0.68,0,0.02,0.73
1697352478.65,-0.04,-0.01,0.98,-1.8,-0.8,2.6,0.68,0,0.02,0.73
1697352478.66,-0.06,0.06,1.04,-1.9,-1.2,1.8,0.68,0,0.02,0.73
1697352478.67,-0.05,0.13,0.92,0.9,-2,0.7,0.68,0,0.02,0.73
1697352478.68,-0.05,0.13,0.92,0.9,-2,0.7,0.68,0,0.02,0.73
1697352478.69,0.08,-0.28,1.01,-0.1,-1.8,-1.9,0.68,0,0.02,0.73
1697352478.7,-0.02,-0.27,1.16,-2.9,-1.3,-3.1,0.68,0,0.02,0.73
1697352478.71,-0.02,-0.27,1.16,-2.9,-1.3,-3.1,0.68,0,0.02,0.73
1697352478.72,0.02,-0.36,0.76,-6.8,-0.5,-4.6,0.68,0,0.02,0.73
1697352478.73,-0.02,-0.04,1.19,-7.2,-0.3,-4.9,0.68,0,0.02,0.73
1697352478.74,-0.1,0.06,1.28,-5.5,0.1,-5.5,0.69,0,0.02,0.73
1697352478.75,-0.01,-0.12,0.91,-1.7,0.3,-5.5,0.69,0,0.02,0.73
1697352478.76,0.21,-0.25,0.82,2.2,1.2,-6.1,0.69,0,0.02,0.73
1697352478.77,-0.07,-0.47,1.34,2.1,1.3,-6.4,0.69,0,0.02,0.73
1697352478.78,-0.03,-0.39,0.89,-1.8,0.1,-7.1,0.69,0,0.02,0.73
1697352478.79,0.24,-0.17,0.9,-1.8,0.1,-7.1,0.69,0,0.02,0.73
1697352478.8,0.24,-0.17,0.9,-1.8,0.1,-7.1,0.69,0,0.02,0.73
1697352478.81,0.24,-0.17,0.9,-1.8,0.1,-7.1,0.69,0,0.02,0.73
1697352478.82,0.24,-0.17,0.9,-1.8,0.1,-7.1,0.69,0,0.02,0.73
1697352478.83,0.24,-0.17,0.9,-1.8,0.1,-7.1,0.69,0,0.02,0.73
1697352478.84,0.24,-0.17,0.9,-1.8,0.1,-7.1,0.69,0,0.02,0.73
1697352478.85,0.24,-0.17,0.9,-1.8,0.1,-7.1,0.69,0,0.02,0.73
1697352478.86,0.24,-0.17,0.9,-1.8,0.1,-7.1,0.69,0,0.02,0.73
1697352478.87,0.24,-0.17,0.9,-1.8,0.1,-7.1,0.69,0,0.02,0.73
1697352478.88,0.24,-0.17,0.9,-1.8,0.1,-7.1,0.69,0,0.02,0.73
1697352478.89,0.24,-0.17,0.9,-1.8,0.1,-7.1,0.69,0,0.02,0.73
1697352478.9,0.24,-0.17,0.9,-1.8,0.1,-7.1,0.69,0,0.02,0.73
1697352478.91,0.24,-0.17,0.9,-1.8,0.1,-7.1,0.69,0,0.02,0.73
1697352478.92,0.24,-0.17,0.9,-1.8,0.1,-7.1,0.69,0,0.02,0.73
1697352478.93,0.24,-0.17,0.9,-1.8,0.1,-7.1,0.69,0,0.02,0.73
1697352478.94,0.24,-0.17,0.9,-1.8,0.1,-7.1,0.69,0,0.02,0.73
1697352478.95,0.24,-0.17,0.9,-1.8,0.1,-7.1,0.69,0,0.02,0.73
1697352478.96,0.24,-0.17,0.9,-1.8,0.1,-7.1,0.69,0,0.02,0.73
1697352478.97,0.24,-0.17,0.9,-1.8,0.1,-7.1,0.69,0,0.02,0.73
1697352478.98,0.24,-0.17,0.9,-1.8,0.1,-7.1,0.69,0,0.02,0.73
1697352478.99,0.24,-0.17,0.9,-1.8,0.1,-7.1,0.69,0,0.02,0.73
1697352479,0.24,-0.17,0.9,-1.8,0.1,-7.1,0.69,0,0.02,0.73
1697352479.01,0.24,-0.17,0.9,-1.8,0.1,-7.1,0.69,0,0.02,0.73
1697352479.02,0.24,-0.17,0.9,-1.8,0.1,-7.1,0.69,0,0.02,0.73
1697352479.03,0.24,-0.17,0.9,-1.8,0.1,-7.1,0.69,0,0.02,0.73
1697352479.04,0.24,-0.17,0.9,-1.8,0.1,-7.1,0.69,0,0.02,0.73
1697352479.05,0.24,-0.17,0.9,-1.8,0.1,-7.1,0.69,0,0.02,0.73
1697352479.06,0.24,-0.17,0.9,-1.8,0.1,-7.1,0.69,0,0.02,0.73
1697352479.07,0.24,-0.17,0.9,-1.8,0.1,-7.1,0.69,0,0.02,0.73
1697352479.08,0.24,-0.17,0.9,-1.8,0.1,-7.1,0.69,0,0.02,0.73
1697352479.09,0.24,-0.17,0.9,-1.8,0.1,-7.1,0.69,0,0.02,0.73
1697352479.1,0.24,-0.17,0.9,-1.8,0.1,-7.1,0.69,0,0.02,0.73
1697352479.11,0.24,-0.17,0.9,-1.8,0.1,-7.1,0.69,0,0.02,0.73
1697352479.12,0.24,-0.17,0.9,-1.8,0.1,-7.1,0.69,0,0.02,0.73
1697352479.13,0.24,-0.17,0.9,-1.8,0.1,-7.1,0.69,0,0.02,0.73
1697352479.14,0.24,-0.17,0.9,-1.8,0.1,-7.1,0.69,0,0.02,0.73
1697352479.15,0.12,-0.1,0.87,-0.3,1.1,5.3,0.69,0.01,0.02,0.72
1697352479.16,-0.05,0,1.26,-3.8,1.8,5,0.69,0.01,0.02,0.72
1697352479.17,-0.11,0.25,1.31,-3.7,2.5,5.3,0.69,0.01,0.02,0.72
1697352479.18,0.08,0.27,0.81,-1.3,2.3,5.2,0.69,0.01,0.02,0.72
1697352479.19,0.07,0.22,1.1,2,2.9,5.3,0.69,0.01,0.02,0.72
1697352479.2,-0.14,0.14,1.24,2.9,3.5,5.3,0.69,0.01,0.02,0.72
1697352479.21,0.02,-0,0.87,2.9,3.5,5.3,0.69,0.01,0.02,0.72
1697352479.22,0.2,-0.04,1.08,-1.6,2.4,4.3,0.69,0.01,0.02,0.72
1697352479.23,-0.04,0.09,0.92,-3.9,1.3,4,0.69,0.01,0.02,0.72
1697352479.24,-0.07,0.17,0.86,-2.3,0.2,3.7,0.69,0.01,0.02,0.72
1697352479.25,0.12,0.29,0.98,-0.4,-1.1,4.1,0.69,0.01,0.02,0.72
1697352479.26,0.06,0.11,1.07,2.8,-2,3.6,0.69,0.01,0.02,0.72
1697352479.27,-0.07,0.1,1.22,5.8,-1.9,3.1,0.69,0.01,0.02,0.72
1697352479.28,-0.04,-0.2,0.84,3.8,-1.4,2.6,0.69,0.01,0.02,0.73
1697352479.29,0.07,-0.35,0.92,-1.4,-0.2,1.6,0.69,0.01,0.02,0.73
1697352479.3,-0.12,-0.2,1.51,-6.3,0.8,0.4,0.69,0.01,0.02,0.73
1697352479.31,0.06,0.06,0.76,-5.1,1.7,0,0.69,0.01,0.02,0.73
1697352479.32,0.08,0.1,1.1,-1.6,1.9,0.1,0.69,0.01,0.02,0.73
1697352479.33,0.02,0.13,1.04,2.6,1.3,0.3,0.69,0.01,0.02,0.73
1697352479.34,-0.04,0.01,0.98,4.5,0.1,0,0.69,0.01,0.02,0.73
1697352479.35,0.12,-0.2,1.14,2.2,-1.4,-0.1,0.69,0.01,0.02,0.73
1697352479.36,-0.01,-0.15,1.04,2.2,-1.4,-0.1,0.69,0.01,0.02,0.73
1697352479.37,-0.03,-0.18,0.96,0.1,-2.6,-0.4,0.69,0.01,0.02,0.73
1697352479.38,-0.03,-0.18,0.96,-2.3,-2.9,-0.6,0.69,0.01,0.02,0.73
1697352479.39,0.1,-0,0.7,-2.5,-2.7,-0.5,0.69,0.01,0.02,0.73
1697352479.4,0.09,0.07,1,0.5,-1.9,-0.5,0.69,0.01,0.02,0.73
1697352479.41,-0.1,0.17,1.15,3.5,-1.2,-0.2,0.69,0.01,0.02,0.73
1697352479.42,0.04,-0.11,1.01,3.9,-0.4,-0.1,0.69,0.01,0.02,0.73
1697352479.43,-0.13,-0.16,1.24,3.5,-0.1,0,0.69,0.01,0.02,0.73
1697352479.44,-0.13,-0.12,1.11,1.1,0.5,-0.1,0.69,0.01,0.02,0.73
1697352479.45,0.09,-0.09,1.02,-1,1.2,-0.3,0.69,0.01,0.02,0.73
1697352479.46,0.12,0.06,1.12,-2.8,2,-0.3,0.69,0.01,0.02,0.73
1697352479.47,0,0.02,1.12,-1.8,2.4,0.1,0.69,0.01,0.02,0.73
1697352479.48,0.02,0.1,0.86,0,1.9,0.2,0.69,0.01,0.02,0.73
1697352479.49,0.12,-0.01,1.11,0.9,1.4,0.4,0.69,0.01,0.02,0.73
1697352479.5,0.03,-0.01,1.07,0.6,0.8,0.6,0.69,0.01,0.02,0.73
1697352479.51,-0.06,0.02,0.95,0.2,-0.3,0.5,0.69,0.01,0.02,0.73
1697352479.52,0.04,-0.04,0.85,0.2,-0.3,0.5,0.69,0.01,0.02,0.73
1697352479.53,0.04,0.01,0.94,-0.7,-2.4,0.5,0.69,0.01,0.02,0.73
1697352479.54,-0.05,0.1,0.97,-0.7,-2.4,0.5,0.69,0.01,0.02,0.73
1697352479.55,-0.05,0.1,0.97,-0.7,-2.4,0.5,0.69,0.01,0.02,0.73
1697352479.56,-0.05,0.1,0.97,-0.7,-2.4,0.5,0.69,0.01,0.02,0.73
1697352479.57,-0.05,0.1,0.97,-0.7,-2.4,0.5,0.69,0.01,0.02,0.73
1697352479.58,-0.05,0.1,0.97,-0.7,-2.4,0.5,0.69,0.01,0.02,0.73
1697352479.59,-0.05,0.1,0.97,-0.7,-2.4,0.5,0.69,0.01,0.02,0.73
1697352479.6,-0.05,0.1,0.97,-0.7,-2.4,0.5,0.69,0.01,0.02,0.73
1697352479.61,-0.05,0.1,0.97,-0.7,-2.4,0.5,0.69,0.01,0.02,0.73
1697352479.62,-0.05,0.1,0.97,-0.7,-2.4,0.5,0.69,0.01,0.02,0.73
1697352479.63,-0.05,0.1,0.97,-0.7,-2.4,0.5,0.69,0.01,0.02,0.73
1697352479.64,-0.05,0.1,0.97,-0.7,-2.4,0.5,0.69,0.01,0.02,0.73
1697352479.65,-0.05,0.1,0.97,-0.7,-2.4,0.5,0.69,0.01,0.02,0.73
1697352479.66,-0.05,0.1,0.97,-0.7,-2.4,0.5,0.69,0.01,0.02,0.73
1697352479.67,0.01,0.02,0.96,0.9,-0.2,0.9,0.69,0.01,0.02,0.73
1697352479.68,-0.01,0.01,0.87,0.9,-0.2,0.9,0.69,0.01,0.02,0.73
1697352479.69,0.06,-0.05,0.85,1.2,-1.5,0.2,0.69,0.01,0.02,0.73
1697352479.7,0.13,0.01,0.92,0.7,-1.9,0,0.69,0.01,0.02,0.73
1697352479.71,0.01,0.01,1.11,0.7,-1.9,0,0.69,0.01,0.02,0.73
1697352479.72,0.07,-0.06,0.91,0.7,-1.6,-0.5,0.69,0.01,0.02,0.73
1697352479.73,0.07,-0.06,0.91,0.7,-1.6,-0.5,0.69,0.01,0.02,0.73
1697352479.74,0,0.01,1,-0.4,-0.2,-0.9,0.69,0.01,0.02,0.73
1697352479.75,-0.1,-0.06,1.06,-0.4,-0.2,-0.9,0.69,0.01,0.02,0.73
1697352479.76,-0.07,-0.02,1.19,-0.7,0.3,-1.1,0.69,0.01,0.02,0.73
1697352479.77,-0.07,-0.02,1.19,-1.1,0.9,-1,0.69,0.01,0.02,0.73
1697352479.78,0.22,-0.12,0.81,-1.7,1.3,-1,0.69,0.01,0.02,0.73
1697352479.79,0.1,0.07,1.15,-2.2,1.5,-1.2,0.69,0.01,0.02,0.73
1697352479.8,0.1,0.07,1.15,-0.9,0.9,-1.2,0.69,0.01,0.02,0.73
1697352479.81,0.02,0.03,1.05,1.9,0,-0.8,0.69,0.01,0.02,0.73
1697352479.82,-0.08,-0.09,1.11,3.5,-0.1,-1.1,0.69,0.01,0.02,0.73
1697352479.83,0.04,-0.17,1,2.4,-0.1,-1,0.69,0.01,0.02,0.73
1697352479.84,-0.09,-0.07,1.25,0.5,-0.1,-1.3,0.69,0.01,0.02,0.73
1697352479.85,-0.1,-0.07,0.89,-1.4,0.2,-1.2,0.69,0.01,0.01,0.73
1697352479.86,0.1,-0.01,0.79,-2.4,0.6,-1,0.69,0.01,0.01,0.72
1697352479.87,0.19,0.05,0.81,-0.8,1.5,-0.9,0.69,0.01,0.01,0.72
1697352479.88,0.06,0.05,1.05,0.9,2.3,-0.9,0.69,0.01,0.01,0.72
1697352479.89,0.13,0.03,1.25,0.9,2.3,-0.9,0.69,0,0.01,0.72
1697352479.9,0.06,-0.17,0.9,1,2,-0.7,0.69,0,0.01,0.72
1697352479.91,-0.06,-0.07,1.15,0.9,1,-1.3,0.69,0,0.01,0.72
1697352479.92,0.11,-0.11,0.81,0.2,0.7,-2.3,0.69,0,0.01,0.72
1697352479.93,0.1,-0.06,0.9,-2,1,-1.9,0.69,0,0.01,0.72
1697352479.94,-0.12,-0.06,1.22,-2,1,-2,0.69,0,0.01,0.72
1697352479.95,-0.08,-0.01,0.89,-1,1.2,-2.3,0.69,0,0.01,0.72
1697352479.96,0.14,0.03,0.63,-0.1,1.2,-1.9,0.69,0,0.01,0.72
1697352479.97,0.12,0.04,0.75,1.1,1.2,-1.7,0.69,0,0.02,0.72
1697352479.98,0.12,0.04,0.75,1.1,1.2,-1.7,0.69,0,0.02,0.72
1697352479.99,0.08,-0.07,1.01,-0.5,1.4,-2.3,0.69,0,0.02,0.72
1697352480,0.08,-0.07,1.01,-0.5,1.4,-2.3,0.69,0,0.02,0.72
1697352480.01,0.01,0.03,1.01,-2.8,2.2,-2.5,0.69,0,0.02,0.72
1697352480.02,-0.02,0.04,0.91,-2.8,2.2,-2.5,0.69,0,0.02,0.72
1697352480.03,0.07,-0.02,0.9,-3.3,1,-1.9,0.69,0,0.02,0.72
1697352480.04,0.07,-0.02,0.9,-3.3,1,-1.9,0.69,0,0.01,0.72
1697352480.05,-0.12,0.02,1.21,-1.7,1.6,-2.3,0.69,0,0.02,0.72
1697352480.06,-0.14,-0.14,1.18,1,1.7,-1.5,0.69,0,0.02,0.72
1697352480.07,-0.14,-0.14,1.18,1,1.7,-1.5,0.69,0,0.02,0.72
1697352480.08,-0.14,-0.14,1.18,1,1.7,-1.5,0.69,0,0.02,0.72
1697352480.09,-0.14,-0.14,1.18,1,1.7,-1.5,0.69,0,0.02,0.72
1697352480.1,-0.14,-0.14,1.18,1,1.7,-1.5,0.69,0,0.02,0.72
1697352480.11,-0.14,-0.14,1.18,1,1.7,-1.5,0.69,0,0.02,0.72
1697352480.12,-0.14,-0.14,1.18,1,1.7,-1.5,0.69,0,0.02,0.72
1697352480.13,-0.14,-0.14,1.18,1,1.7,-1.5,0.69,0,0.02,0.72
1697352480.14,-0.14,-0.14,1.18,1,1.7,-1.5,0.69,0,0.02,0.72
1697352480.15,-0.14,-0.14,1.18,1,1.7,-1.5,0.69,0,0.02,0.72
1697352480.16,-0.14,-0.14,1.18,1,1.7,-1.5,0.69,0,0.02,0.72
1697352480.17,-0.14,-0.14,1.18,1,1.7,-1.5,0.69,0,0.02,0.72
1697352480.18,-0.14,-0.14,1.18,1,1.7,-1.5,0.69,0,0.02,0.72
1697352480.19,-0.14,-0.14,1.18,1,1.7,-1.5,0.69,0,0.02,0.72
1697352480.2,-0.14,-0.14,1.18,1,1.7,-1.5,0.69,0,0.02,0.72
1697352480.21,-0.09,-0.17,1.06,3.8,1.7,-0.2,0.69,0,0.02,0.72
1697352480.22,0.11,-0.27,0.91,-0.6,1.9,-0.2,0.69,0,0.02,0.72
1697352480.23,0.01,-0.21,1.2,-4.8,1.7,-0.3,0.69,0,0.02,0.72
1697352480.24,0.01,0.06,1.03,-4.5,1.4,-0.3,0.69,0,0.01,0.72
1697352480.25,-0.1,0.32,1.08,-1.2,1.3,0.9,0.69,0,0.01,0.72
1697352480.26,-0.05,0.13,1.07,2.6,1.7,1.6,0.69,0,0.02,0.72
1697352480.27,0.17,-0.06,0.96,1.8,2,2,0.69,0,0.02,0.72
1697352480.28,0.1,-0.07,0.98,1.1,0.9,1.7,0.69,0,0.02,0.72
1697352480.29,-0.04,-0.07,1.06,0.6,0.1,1.6,0.69,0,0.02,0.72
1697352480.3,0.12,-0.09,0.88,-0.8,0,1.6,0.69,0,0.02,0.72
1697352480.31,0.12,-0.07,0.77,-0.9,-0.2,1.5,0.69,0,0.02,0.72
1697352480.32,0.06,0.1,0.92,-3.8,-0.3,0.5,0.69,0,0.02,0.72
1697352480.33,0.03,0.31,1.12,-1.8,-0.3,0.9,0.69,0,0.02,0.72
1697352480.34,-0.09,0.05,0.97,0.7,-0.1,0.9,0.69,0,0.02,0.72
1697352480.35,-0.06,0.04,0.85,1.8,0.1,0.6,0.69,0,0.02,0.72
1697352480.36,0.05,-0.13,0.96,1.9,0.3,0.5,0.69,0,0.02,0.72
1697352480.37,0.11,-0.1,0.88,0.9,0.4,0.5,0.69,0,0.02,0.72
1697352480.38,-0.08,0.06,1.23,-3.2,0.4,0.6,0.69,0,0.01,0.72
1697352480.39,-0.07,0.12,1.02,-4.9,0.3,0.9,0.69,0,0.01,0.72
1697352480.4,0.03,0.15,1.07,-4.1,0.3,1.2,0.69,0,0.01,0.72
1697352480.41,0.12,0.08,0.94,-0.9,0,1.5,0.69,0,0.01,0.72
1697352480.42,0.07,0,1.11,1.4,-0.3,1.5,0.69,0,0.01,0.72
1697352480.43,0.07,0,1.11,1.4,-0.3,1.5,0.69,0,0.01,0.72
1697352480.44,0.07,0,0.9,2.3,-1.2,1.6,0.69,0,0.01,0.72
1697352480.45,0,-0.13,0.91,-1.2,-0.8,1,0.69,0,0.01,0.72
1697352480.46,0,-0.13,0.91,-1.2,-0.8,1,0.69,0,0.01,0.72
1697352480.47,0.01,0.06,1.01,-1.9,-0.2,1.1,0.69,0,0.01,0.72
1697352480.48,0.01,0.06,1.01,-1.9,-0.2,1.1,0.69,0,0.01,0.72
1697352480.49,0.03,0.07,1.06,-0.2,0,1,0.69,0,0.01,0.72
1697352480.5,0.03,0.07,1.06,0.8,-0.2,1.4,0.69,0,0.01,0.72
1697352480.51,-0.16,0.04,1.12,0,0,1.1,0.69,0,0.01,0.72
1697352480.52,0.06,-0.07,1.12,-1.6,-0.3,0.7,0.69,0,0.01,0.72
1697352480.53,-0.07,0.11,1.3,-2,-0.5,0.7,0.69,0,0.01,0.72
1697352480.54,-0.06,0.1,0.91,-1.4,-0.3,0.6,0.69,0,0.01,0.72
1697352480.55,-0.16,0.03,1.09,0.4,0,0.2,0.69,0,0.01,0.72
1697352480.56,0.04,-0.13,1.14,-0.4,0.9,0.1,0.69,0,0.01,0.72
1697352480.57,0.09,-0.07,1.03,-0.4,0.9,0.1,0.69,0,0.01,0.72
1697352480.58,-0.07,0.13,0.91,0.2,2,-0.1,0.69,0,0.01,0.72
1697352480.59,-0.13,-0.03,1.06,1.4,2,-0.2,0.69,0,0.01,0.72
1697352480.6,-0.13,-0.03,1.06,1.4,2,-0.2,0.69,0,0.01,0.72
1697352480.61,-0.13,-0.03,1.06,1.4,2,-0.2,0.69,0,0.01,0.72
1697352480.62,-0.13,-0.03,1.06,1.4,2,-0.2,0.69,0,0.01,0.72
1697352480.63,-0.13,-0.03,1.06,1.4,2,-0.2,0.69,0,0.01,0.72
1697352480.64,-0.13,-0.03,1.06,1.4,2,-0.2,0.69,0,0.01,0.72
1697352480.65,-0.13,-0.03,1.06,1.4,2,-0.2,0.69,0,0.01,0.72
1697352480.66,-0.13,-0.03,1.06,1.4,2,-0.2,0.69,0,0.01,0.72
1697352480.67,-0.13,-0.03,1.06,1.4,2,-0.2,0.69,0,0.01,0.72
1697352480.68,-0.13,-0.03,1.06,1.4,2,-0.2,0.69,0,0.01,0.72
1697352480.69,-0.13,-0.03,1.06,1.4,2,-0.2,0.69,0,0.01,0.72
1697352480.7,-0.13,-0.03,1.06,1.4,2,-0.2,0.69,0,0.01,0.72
1697352480.71,-0.13,-0.03,1.06,1.4,2,-0.2,0.69,0,0.01,0.72
1697352480.72,-0.04,0.13,1.04,-1.9,0.1,-3.2,0.69,-0,0.01,0.72
1697352480.73,-0.08,-0.06,1.03,-1.9,0.1,-3.2,0.69,-0,0.01,0.72
1697352480.74,0.03,-0.06,0.92,2.2,0.2,-2.3,0.69,-0,0.01,0.72
1697352480.75,0.19,-0.09,0.91,3.6,0.7,-2.4,0.69,-0,0.01,0.72
1697352480.76,-0,-0.27,1.27,4.7,0.8,-2.6,0.69,-0,0.01,0.72
1697352480.77,-0.1,-0.29,1.12,3.5,0.5,-3.3,0.69,-0,0.01,0.72
1697352480.78,-0.1,-0.29,1.12,3.5,0.5,-3.3,0.69,-0,0.01,0.72
1697352480.79,0.04,0.06,1.17,-4.3,-0.1,-3.8,0.69,-0,0.01,0.72
1697352480.8,0.04,0.06,1.17,-4.3,-0.1,-3.8,0.69,-0,0.01,0.72
1697352480.81,-0.04,0.09,0.93,1.4,-1.8,-3.3,0.69,-0,0.01,0.72
1697352480.82,0.14,-0.12,0.95,1.4,-1.8,-3.3,0.69,-0,0.01,0.72
1697352480.83,0.14,-0.12,0.95,1.1,-1.3,-3.4,0.69,-0,0.01,0.72
1697352480.84,-0.18,-0.1,1.08,-1.2,0,-3.8,0.69,-0,0.01,0.72
1697352480.85,-0.18,-0.1,1.08,-1.2,0,-3.8,0.69,-0,0.01,0.72
1697352480.86,0.09,-0.03,0.83,-1.9,0.1,-3.8,0.69,-0,0.01,0.72
1697352480.87,0.09,0.02,0.8,-0.8,0.4,-3.9,0.69,-0,0.01,0.72
1697352480.88,0.09,0.02,0.8,0.6,0.9,-3.6,0.69,-0,0.01,0.72
1697352480.89,0.14,-0.03,0.82,2.7,0.7,-3.7,0.69,-0,0.01,0.72
1697352480.9,0.08,-0.11,1.03,3.6,0.4,-3.4,0.7,-0,0.01,0.72
1697352480.91,0.08,-0.12,0.81,2.3,0.2,-3,0.7,-0,0.01,0.72
1697352480.92,-0.14,-0.27,1.1,-0.7,0.6,-3,0.7,-0,0.01,0.72
1697352480.93,-0.13,-0.15,1.07,-3.7,1,-2.9,0.7,-0,0.01,0.72
1697352480.94,0.03,-0.07,0.95,-4.3,1.7,-2.5,0.7,-0,0.01,0.72
1697352480.95,0.25,0.17,0.77,-2.3,1.9,-1.6,0.7,-0,0.01,0.72
1697352480.96,-0.01,0.26,1.06,1.9,1.6,-0.8,0.7,-0,0.01,0.72
1697352480.97,-0.05,0.12,1.16,4.4,1.4,-0.3,0.7,-0,0.01,0.72
1697352480.98,-0.01,-0.1,0.81,3.8,1.7,-0.6,0.7,-0,0.01,0.72
1697352480.99,-0.18,-0.12,1.14,1.2,1.3,-1,0.7,-0,0.01,0.72
1697352481,0.01,-0.17,0.91,-0.9,0.5,-1.2,0.7,-0,0.01,0.72
1697352481.01,0.13,0.05,1.08,0,-0.2,-1.4,0.7,-0,0.01,0.72
1697352481.02,0.03,0.04,1.12,1.4,-0.7,-1.4,0.7,-0,0.01,0.72
1697352481.03,-0.01,0.03,1.05,1.4,-0.7,-1.4,0.7,-0,0.01,0.72
1697352481.04,-0.12,0,1.1,1.7,0,-1.1,0.7,-0,0.01,0.72
1697352481.05,-0.12,0,1.1,1.7,0,-1.1,0.7,-0,0.01,0.72
1697352481.06,-0.09,-0.08,1.05,-2.1,0.7,-1,0.7,-0,0.01,0.72
1697352481.07,0.02,0.01,0.7,-3.7,1,-0.9,0.7,-0,0.01,0.72
1697352481.08,0.16,0.04,0.81,-3.7,1,-0.9,0.7,-0,0.01,0.72
1697352481.09,0.16,0.04,0.81,-2.7,1.1,-1.1,0.7,-0,0.01,0.72
1697352481.1,0.09,0.16,0.95,-0.3,1.1,-0.4,0.7,-0,0.01,0.72
1697352481.11,0.11,0.06,0.92,1.7,0.7,-0.7,0.7,-0,0.01,0.72
1697352481.12,0.11,0.06,0.92,1.7,0.7,-0.7,0.7,-0,0.01,0.72
1697352481.13,0.11,0.06,0.92,1.7,0.7,-0.7,0.7,-0,0.01,0.72
1697352481.14,0.11,0.06,0.92,1.7,0.7,-0.7,0.7,-0,0.01,0.72
1697352481.15,0.11,0.06,0.92,1.7,0.7,-0.7,0.7,-0,0.01,0.72
1697352481.16,0.11,0.06,0.92,1.7,0.7,-0.7,0.7,-0,0.01,0.72
1697352481.17,0.11,0.06,0.92,1.7,0.7,-0.7,0.7,-0,0.01,0.72
1697352481.18,0.11,0.06,0.92,1.7,0.7,-0.7,0.7,-0,0.01,0.72
1697352481.19,0.11,0.06,0.92,1.7,0.7,-0.7,0.7,-0,0.01,0.72
1697352481.2,0.11,0.06,0.92,1.7,0.7,-0.7,0.7,-0,0.01,0.72
1697352481.21,0.11,0.06,0.92,1.7,0.7,-0.7,0.7,-0,0.01,0.72
1697352481.22,0.11,0.06,0.92,1.7,0.7,-0.7,0.7,-0,0.01,0.72
1697352481.23,0.11,0.06,0.92,1.7,0.7,-0.7,0.7,-0,0.01,0.72
1697352481.24,-0.07,0.12,1.2,0.4,-0.3,-0.4,0.7,-0,0.01,0.72
1697352481.25,0.05,0.01,0.98,0.7,-0.6,-0.3,0.7,-0,0.01,0.72
1697352481.26,-0.08,-0.01,1.05,-0.2,-1,-0.1,0.7,-0,0.01,0.72
1697352481.27,-0.08,0.08,0.71,0.5,-0.7,0,0.7,-0,0.01,0.72
1697352481.28,0.06,0.1,0.75,1,0,0.4,0.7,-0,0.01,0.72
1697352481.29,0,0.16,1.16,2.3,0.4,1.1,0.7,-0,0.01,0.72
1697352481.3,-0.04,0.12,1.16,2.9,0.2,1.8,0.7,-0,0.01,0.72
1697352481.31,-0.11,-0.03,1.12,2.4,0,2.3,0.7,-0,0.01,0.72
1697352481.32,-0.18,0.06,1.1,0.8,0.3,3,0.7,-0,0.01,0.72
1697352481.33,-0.05,0.02,0.97,-0.2,0.8,3.6,0.7,-0,0.01,0.72
1697352481.34,0.13,0.06,1.03,-0.8,1.2,4,0.7,-0,0.01,0.72
1697352481.35,-0.1,0.19,1.15,-0.2,1.2,5,0.7,-0,0.01,0.72
1697352481.36,0.06,0.28,1.05,1.5,1.6,5.7,0.7,-0,0.01,0.72
1697352481.37,0.06,0.21,1.01,1.5,1.6,5.7,0.7,-0,0.01,0.72
1697352481.38,-0.02,0.24,1.02,1.9,1.7,6.3,0.7,-0,0.01,0.72
1697352481.39,-0.07,0.19,1.01,0.9,1.2,7,0.69,-0,0.01,0.72
1697352481.4,0.09,0.29,0.86,0.4,0.2,7.7,0.69,-0,0.01,0.72
1697352481.41,0.15,0.46,0.81,-0.2,-0.1,8.9,0.69,-0,0.01,0.72
1697352481.42,-0.01,0.5,0.98,1.2,-0.9,10,0.69,-0,0.01,0.72
1697352481.43,0.07,0.51,1.06,3.4,-1.7,12,0.69,-0,0.01,0.72
1697352481.44,-0.01,0.68,1.24,5.3,-1.7,16.4,0.69,-0,0.01,0.72
1697352481.45,0.03,0.66,0.67,5.4,-1.3,19.2,0.69,0,0.01,0.72
1697352481.46,-0.26,0.68,1.67,5.5,-1.1,22.3,0.69,0,0.01,0.73
1697352481.47,-0.1,0.71,0.91,4.5,-0.3,25.7,0.69,0,0.01,0.73
1697352481.48,0.07,0.76,0.7,4.5,-0.3,25.7,0.69,0,0.01,0.73
1697352481.49,-0.11,0.99,1.07,4.9,0.1,33.2,0.68,0,0.01,0.73
1697352481.5,-0.24,0.99,1.04,6,0.7,36.3,0.68,0,0.01,0.73
1697352481.51,-0.24,0.99,1.04,6,0.7,36.3,0.68,0,0.01,0.73
1697352481.52,-0.13,1.01,0.67,3.8,0.2,41.9,0.67,0,0.01,0.74
1697352481.53,-0.13,1.01,0.67,3.8,0.2,41.9,0.67,0,0.01,0.74
1697352481.54,0.03,0.97,0.81,3.1,0.2,43.2,0.67,0,0.01,0.74
1697352481.55,0.03,0.97,0.81,1.9,0,43.8,0.67,0,0.01,0.74
1697352481.56,-0.08,0.89,0.9,0.5,-0.4,44,0.67,0,0.01,0.75
1697352481.57,-0.08,0.89,0.9,0.5,-0.4,44,0.66,0,0.01,0.75
1697352481.58,-0.02,0.97,0.98,-0.1,-1,44.1,0.66,0,0.01,0.75
1697352481.59,-0.06,0.97,0.74,0,-1.4,43.8,0.66,0,0.01,0.75
1697352481.6,-0.21,0.96,1.1,1.3,-0.7,43.4,0.66,0,0.01,0.76
1697352481.61,-0.08,0.94,0.75,1.9,0.1,43,0.65,0,0.01,0.76
1697352481.62,-0.26,0.86,1.46,1.3,1.1,42.3,0.65,0,0.01,0.76
1697352481.63,0,0.9,0.99,0.4,1.4,42,0.65,0,0.01,0.76
1697352481.64,0,0.9,0.99,0.4,1.4,42,0.65,0,0.01,0.76
1697352481.65,0,0.9,0.99,0.4,1.4,42,0.65,0,0.01,0.76
1697352481.66,0,0.9,0.99,0.4,1.4,42,0.65,0,0.01,0.76
1697352481.67,0,0.9,0.99,0.4,1.4,42,0.65,0,0.01,0.76
1697352481.68,0,0.9,0.99,0.4,1.4,42,0.65,0,0.01,0.76
1697352481.69,0,0.9,0.99,0.4,1.4,42,0.65,0,0.01,0.76
1697352481.7,0,0.9,0.99,0.4,1.4,42,0.65,0,0.01,0.76
1697352481.71,0,0.9,0.99,0.4,1.4,42,0.65,0,0.01,0.76
1697352481.72,0,0.9,0.99,0.4,1.4,42,0.65,0,0.01,0.76
1697352481.73,0,0.9,0.99,0.4,1.4,42,0.65,0,0.01,0.76
1697352481.74,0,0.9,0.99,0.4,1.4,42,0.65,0,0.01,0.76
1697352481.75,0,0.9,0.99,0.4,1.4,42,0.65,0,0.01,0.76
1697352481.76,-0,0.64,1.11,1.7,-1.3,37.2,0.61,0,0.01,0.79
1697352481.77,-0,0.65,1.39,-0.5,-1,36.4,0.61,0,0.01,0.79
1697352481.78,0.07,0.59,0.97,-1.6,-1,35.1,0.61,0,0.01,0.8
1697352481.79,-0.04,0.75,1.3,-2.4,-0.8,34,0.6,0,0.01,0.8
1697352481.8,0.09,0.71,0.86,-2.4,-0.8,34,0.6,0,0.01,0.8
1697352481.81,-0.02,0.75,1.03,-1.5,0.5,34.2,0.6,0,0.01,0.8
1697352481.82,-0.15,0.71,1.16,-0.2,1.5,34.5,0.6,0,0.01,0.8
1697352481.83,-0.15,0.71,1.16,-0.2,1.5,34.5,0.59,0,0.01,0.8
1697352481.84,0.07,0.55,0.99,1.6,2,34.4,0.59,0,0.01,0.81
1697352481.85,0.07,0.55,0.99,1.6,2,34.4,0.59,0,0.01,0.81
1697352481.86,0.1,0.48,0.88,-1.5,0,33.3,0.59,0,0.01,0.81
1697352481.87,0.11,0.44,1.42,-1.5,0,33.3,0.58,0,0.01,0.81
1697352481.88,0.11,0.44,1.42,-2.8,-0.6,32.6,0.58,0,0.01,0.81
1697352481.89,0.18,0.65,0.62,-4.7,-3.7,30.3,0.58,0,0.01,0.82
1697352481.9,-0.12,0.37,1.17,-4.7,-3.7,30.3,0.58,0,0.01,0.82
1697352481.91,0.19,0.4,0.96,1.8,-3.8,26.6,0.57,0,0.01,0.82
1697352481.92,0.05,0.17,0.91,1.8,-3.8,26.6,0.57,0,0.01,0.82
1697352481.93,0.05,0.17,0.91,1.9,-4,24.7,0.57,0,0.01,0.82
1697352481.94,-0.12,0.1,0.92,0.8,-3.2,23.1,0.57,0.01,0.01,0.82
1697352481.95,0.01,0.19,0.88,-1.3,-2.1,20.9,0.57,0.01,0.01,0.82
1697352481.96,-0.11,0.19,0.97,-2.2,-1.3,19,0.57,0.01,0.01,0.82
1697352481.97,-0.1,0.33,0.84,-2.3,-0.6,17.9,0.57,0.01,0.01,0.83
1697352481.98,-0.07,0.37,0.95,-2.2,0.6,17.6,0.56,0.01,0.01,0.83
1697352481.99,0.19,0.35,1.05,-0.1,1.4,17.5,0.56,0.01,0.01,0.83
1697352482,0.04,0.28,1.08,1.7,1.7,17.2,0.56,0.01,0.01,0.83
1697352482.01,0.05,-0.14,0.94,2.6,1.5,16.8,0.56,0.01,0.01,0.83
1697352482.02,0.02,-0.06,1.37,-1.4,1.9,15.4,0.56,0,0.01,0.83
1697352482.03,0.23,0.04,0.93,-8,1.2,13.1,0.56,0,0.01,0.83
1697352482.04,0.05,0.07,1.03,-8,1.2,13.1,0.56,0,0.01,0.83
1697352482.05,-0.07,-0.11,1.04,-2.6,-0.3,9,0.56,0,0.01,0.83
1697352482.06,-0.1,-0.33,1.03,-1,-0.9,6,0.56,0,0.01,0.83
1697352482.07,-0.17,-0.4,1.17,-1.8,-1.2,2.1,0.56,0,0.01,0.83
1697352482.08,-0.11,-0.56,1.06,-2.6,-1.3,-1.9,0.56,0,0.01,0.83
1697352482.09,0.1,-0.53,0.8,-4.4,-1.5,-5.7,0.56,0,0.01,0.83
1697352482.1,0.1,-0.51,1.01,-4.4,-1.5,-5.7,0.56,0,0.01,0.83
1697352482.11,0.01,-0.49,1.05,-5.9,-1.5,-12.2,0.56,0,0.01,0.83
1697352482.12,0.12,-0.44,1.03,-6.4,-1.5,-14.7,0.56,0,0.01,0.83
1697352482.13,0.14,-0.34,0.78,-5.9,-1.2,-16.2,0.56,0,0.01,0.83
1697352482.14,0.05,-0.4,1.15,-3.6,-1.3,-16.9,0.56,0,0.01,0.83
1697352482.15,-0.01,-0.47,0.85,-3.6,-1.3,-16.9,0.56,0,0.01,0.83
1697352482.16,-0.01,-0.47,0.85,-3.6,-1.3,-16.9,0.56,0,0.01,0.83
1697352482.17,-0.01,-0.47,0.85,-3.6,-1.3,-16.9,0.56,0,0.01,0.83
1697352482.18,-0.01,-0.47,0.85,-3.6,-1.3,-16.9,0.56,0,0.01,0.83
1697352482.19,-0.01,-0.47,0.85,-3.6,-1.3,-16.9,0.56,0,0.01,0.83
1697352482.2,-0.01,-0.47,0.85,-3.6,-1.3,-16.9,0.56,0,0.01,0.83
1697352482.21,-0.01,-0.47,0.85,-3.6,-1.3,-16.9,0.56,0,0.01,0.83
1697352482.22,-0.01,-0.47,0.85,-3.6,-1.3,-16.9,0.56,0,0.01,0.83
1697352482.23,-0.01,-0.47,0.85,-3.6,-1.3,-16.9,0.56,0,0.01,0.83
1697352482.24,-0.01,-0.47,0.85,-3.6,-1.3,-16.9,0.56,0,0.01,0.83
1697352482.25,-0.01,-0.47,0.85,-3.6,-1.3,-16.9,0.56,0,0.01,0.83
1697352482.26,-0.01,-0.47,0.85,-3.6,-1.3,-16.9,0.56,0,0.01,0.83
1697352482.27,-0.01,-0.47,0.85,-3.6,-1.3,-16.9,0.56,0,0.01,0.83
1697352482.28,-0.12,-0.67,1.13,-3.6,-1.3,-16.9,0.56,0,0.01,0.83
1697352482.29,-0,-0.77,1.07,-0.6,0,-33.7,0.58,0,0,0.81
1697352482.3,-0,-0.77,1.07,-0.6,0,-33.7,0.58,0,0,0.81
1697352482.31,0.12,-0.74,0.88,-1.7,-0.1,-37.5,0.59,0,0,0.81
1697352482.32,-0.17,-0.66,1.22,-1.5,-0.4,-39,0.59,0,0,0.81
1697352482.33,-0.17,-0.66,1.22,-1.5,-0.4,-39,0.59,0,0,0.81
1697352482.34,-0.12,-0.57,1.21,-1.5,-0.6,-38.8,0.6,0,0,0.8
1697352482.35,-0.12,-0.57,1.21,-1.5,-0.6,-38.8,0.6,0,0,0.8
1697352482.36,0.03,-0.39,0.87,-0.9,0,-35.6,0.6,0,0,0.8
1697352482.37,0.03,-0.39,0.87,-0.9,0,-35.6,0.6,0,0,0.8
1697352482.38,-0.03,-0.39,1.08,1.8,0.6,-32.5,0.6,0,0,0.8
1697352482.39,0.23,-0.6,0.73,3.8,0.8,-29.4,0.61,0,0,0.8
1697352482.4,0.03,-0.56,1.18,2.9,1.3,-26.6,0.61,0,0,0.79
1697352482.41,-0.08,-0.35,0.87,0.1,1.7,-24.2,0.61,0,0,0.79
1697352482.42,-0.09,-0.26,0.9,-1.2,2.3,-22.1,0.61,0,0,0.79
1697352482.43,0.03,-0.08,0.9,-0.7,2.9,-19.7,0.61,0,0,0.79
1697352482.44,-0.01,-0.09,1.27,1.9,2.7,-16.6,0.62,-0,0,0.79
1697352482.45,-0.01,-0.06,0.96,1.9,2.7,-16.6,0.62,-0,0,0.79
1697352482.46,0.1,-0.32,0.74,5.2,2.3,-15.7,0.62,0,0,0.79
1697352482.47,-0.06,-0.41,1.37,5.6,2.2,-15.1,0.62,0,0,0.78
1697352482.48,-0.11,-0.53,1.16,3.5,2.2,-15.2,0.62,0,0,0.78
1697352482.49,-0.11,-0.66,1.27,0.3,2.2,-16.6,0.62,-0,0,0.78
1697352482.5,0.01,-0.66,0.73,-2.8,2.1,-18.8,0.62,-0,0,0.78
1697352482.51,0.11,-0.52,0.66,-4.6,2,-21.3,0.62,-0,0,0.78
1697352482.52,0.11,-0.62,1.2,-4.5,1.2,-24,0.63,-0,0,0.78
1697352482.53,0.05,-0.69,0.86,-3,0.8,-26.9,0.63,-0,0,0.78
1697352482.54,0.12,-0.8,0.62,-3.1,0,-30.9,0.63,-0,0,0.78
1697352482.55,-0.17,-1.06,1.15,-6.8,-1,-36.6,0.63,-0,0,0.77
1697352482.56,-0.46,-1.06,1.24,-9.6,-1.3,-40.3,0.64,-0,0,0.77
1697352482.57,0.06,-0.92,0.32,-9.4,-0.7,-42.8,0.64,-0,0,0.77
1697352482.58,-0.01,-1.05,0.86,-7.9,-0.3,-45,0.64,-0,0,0.77
1697352482.59,-0.22,-0.89,1.2,-6.2,0.4,-46.4,0.65,-0,0,0.76
1697352482.6,-0.32,-0.98,1.25,-5,1.4,-47.7,0.65,-0,0,0.76
1697352482.61,-0.18,-1.12,1.04,-4.7,1.6,-48,0.65,-0,0,0.76
1697352482.62,-0.19,-1.09,1.12,-2.6,2.2,-49.5,0.66,-0,0,0.75
1697352482.63,-0.07,-1.18,0.82,-1.2,2.3,-50.3,0.66,-0,0,0.75
1697352482.64,-0.12,-1.2,0.77,-0.4,2,-51,0.66,-0.01,0,0.75
1697352482.65,-0.04,-1.19,1.39,-0.4,2,-51,0.66,-0.01,0,0.75
1697352482.66,0.12,-1.18,0.87,-0.1,0.7,-51.4,0.67,-0.01,0,0.74
1697352482.67,0.12,-1.18,0.87,-0.1,0.7,-51.4,0.67,-0.01,0,0.74
1697352482.68,0.12,-1.18,0.87,-0.1,0.7,-51.4,0.67,-0.01,0,0.74
1697352482.69,0.12,-1.18,0.87,-0.1,0.7,-51.4,0.67,-0.01,0,0.74
1697352482.7,0.12,-1.18,0.87,-0.1,0.7,-51.4,0.67,-0.01,0,0.74
1697352482.71,0.12,-1.18,0.87,-0.1,0.7,-51.4,0.67,-0.01,0,0.74
1697352482.72,0.12,-1.18,0.87,-0.1,0.7,-51.4,0.67,-0.01,0,0.74
1697352482.73,0.12,-1.18,0.87,-0.1,0.7,-51.4,0.67,-0.01,0,0.74
1697352482.74,0.12,-1.18,0.87,-0.1,0.7,-51.4,0.67,-0.01,0,0.74
1697352482.75,0.12,-1.18,0.87,-0.1,0.7,-51.4,0.67,-0.01,0,0.74
1697352482.76,0.12,-1.18,0.87,-0.1,0.7,-51.4,0.67,-0.01,0,0.74
1697352482.77,0.12,-1.18,0.87,-0.1,0.7,-51.4,0.67,-0.01,0,0.74
1697352482.78,0.12,-1.18,0.87,-0.1,0.7,-51.4,0.67,-0.01,0,0.74
1697352482.79,0.12,-1.18,0.87,-0.1,0.7,-51.4,0.67,-0.01,0,0.74
1697352482.8,0.12,-1.18,0.87,-0.1,0.7,-51.4,0.67,-0.01,0,0.74
1697352482.81,-0.14,-0.89,0.97,1.3,3.5,-50.4,0.72,-0.01,0,0.7
1697352482.82,-0.15,-0.7,1.15,-1,3.7,-50.7,0.72,-0.01,0,0.69
1697352482.83,0.18,-0.81,0.71,-1.1,3.6,-51.2,0.72,-0.01,0,0.69
1697352482.84,0.08,-0.91,0.89,0.5,2.9,-50.3,0.73,-0.01,0,0.69
1697352482.85,0.1,-0.83,1.11,2.9,2,-49.6,0.73,-0.01,0,0.69
1697352482.86,0.02,-0.9,0.93,3.1,0.9,-48.9,0.73,-0.01,0,0.68
1697352482.87,-0.11,-0.85,1.02,2.1,0.8,-47.6,0.73,-0.01,0,0.68
1697352482.88,0,-0.75,0.72,2.1,0.8,-47.6,0.73,-0.01,0,0.68
1697352482.89,0.1,-0.78,0.88,-1.2,2.2,-45.2,0.74,-0.01,0,0.67
1697352482.9,-0.07,-0.93,1.04,0.4,3.1,-44.5,0.74,-0.01,0,0.67
1697352482.91,-0.13,-0.75,1.41,0.8,3.5,-43.3,0.74,-0.01,0,0.67
1697352482.92,-0.13,-0.75,1.41,0.8,3.5,-43.3,0.74,-0.01,0,0.67
1697352482.93,0.09,-0.99,0.77,1.4,3.5,-43.8,0.75,-0.01,0,0.66
1697352482.94,0.09,-0.99,0.77,1.4,3.5,-43.8,0.75,-0.01,0,0.66
1697352482.95,0.01,-0.85,0.84,0,2.8,-44.7,0.75,-0.01,0,0.66
1697352482.96,0.01,-0.85,0.84,0,2.8,-44.7,0.75,-0.01,0,0.66
1697352482.97,-0.04,-0.73,1.14,1.1,1.6,-44.3,0.76,-0.01,0,0.65
1697352482.98,-0.04,-0.73,1.14,1.1,1.6,-44.3,0.76,-0.01,0,0.65
1697352482.99,0.1,-0.91,0.89,0.4,-0.4,-44,0.77,-0.01,0,0.64
1697352483,0.1,-0.91,0.89,0.4,-0.4,-44,0.77,-0.01,0,0.64
1697352483.01,0.03,-0.59,0.99,1.3,-1.2,-41.9,0.77,-0.01,0,0.64
1697352483.02,-0,-0.54,0.63,1.3,-1.2,-41.9,0.77,-0.01,0,0.64
1697352483.03,-0.09,-0.41,0.58,4.2,-1.2,-40.2,0.77,-0.01,0,0.63
1697352483.04,-0.1,-0.6,1.09,5.7,-0.6,-38,0.77,-0.01,0,0.63
1697352483.05,-0.1,-0.6,1.09,4.8,0.1,-35.2,0.78,-0.01,0.01,0.63
1697352483.06,0.12,-0.51,1.03,3.3,1.6,-33.2,0.78,-0.01,0.01,0.63
1697352483.07,0.12,-0.51,1.03,1,3.7,-29,0.78,-0.01,0.01,0.62
1697352483.08,0.06,-0.42,1.27,2.9,4.8,-26.8,0.78,-0.01,0.01,0.62
1697352483.09,0.14,-0.38,0.75,2.4,5.2,-23.9,0.78,-0.01,0.01,0.62
1697352483.1,0.14,-0.38,0.75,2.5,5.5,-22.1,0.78,-0.01,0.01,0.62
1697352483.11,0.04,-0.07,1.04,1.9,5.1,-20.1,0.79,-0.01,0.01,0.62
1697352483.12,-0.11,-0.08,1.13,3.8,3.5,-18.4,0.79,-0.01,0.01,0.62
1697352483.13,0.06,-0.09,0.81,5.4,1.1,-16.7,0.79,-0.01,0.01,0.62
1697352483.14,0.2,-0.11,0.99,5.5,-1.4,-14.9,0.79,-0.01,0.01,0.61
1697352483.15,0.02,-0.02,0.87,3.7,-3.4,-13.1,0.79,-0.01,0.01,0.61
1697352483.16,-0.06,0.14,0.75,2.8,-3.9,-9.9,0.79,-0.01,0.01,0.61
1697352483.17,-0.01,0.36,0.94,4.7,-3.8,-7.4,0.79,-0.01,0.01,0.61
1697352483.18,-0.02,0.34,1.11,6.5,-3,-4.6,0.79,-0,0.01,0.61
1697352483.19,0.05,0.48,0.94,7.7,-1.8,-1.3,0.79,-0,0.01,0.61
1697352483.2,0.05,0.48,0.94,7.7,-1.8,-1.3,0.79,-0,0.01,0.61
1697352483.21,0.05,0.48,0.94,7.7,-1.8,-1.3,0.79,-0,0.01,0.61
1697352483.22,0.05,0.48,0.94,7.7,-1.8,-1.3,0.79,-0,0.01,0.61
1697352483.23,0.05,0.48,0.94,7.7,-1.8,-1.3,0.79,-0,0.01,0.61
1697352483.24,0.05,0.48,0.94,7.7,-1.8,-1.3,0.79,-0,0.01,0.61
1697352483.25,0.05,0.48,0.94,7.7,-1.8,-1.3,0.79,-0,0.01,0.61
1697352483.26,0.05,0.48,0.94,7.7,-1.8,-1.3,0.79,-0,0.01,0.61
1697352483.27,0.05,0.48,0.94,7.7,-1.8,-1.3,0.79,-0,0.01,0.61
1697352483.28,0.05,0.48,0.94,7.7,-1.8,-1.3,0.79,-0,0.01,0.61
1697352483.29,0.05,0.48,0.94,7.7,-1.8,-1.3,0.79,-0,0.01,0.61
1697352483.3,0.05,0.48,0.94,7.7,-1.8,-1.3,0.79,-0,0.01,0.61
1697352483.31,0.05,0.48,0.94,7.7,-1.8,-1.3,0.79,-0,0.01,0.61
1697352483.32,0.05,0.48,0.94,7.7,-1.8,-1.3,0.79,-0,0.01,0.61
1697352483.33,0.05,0.48,0.94,7.7,-1.8,-1.3,0.79,-0,0.01,0.61
1697352483.34,0.05,0.48,0.94,7.7,-1.8,-1.3,0.79,-0,0.01,0.61
1697352483.35,0.05,0.48,0.94,7.7,-1.8,-1.3,0.79,-0,0.01,0.61
1697352483.36,0.05,0.48,0.94,7.7,-1.8,-1.3,0.79,-0,0.01,0.61
1697352483.37,0.05,0.48,0.94,7.7,-1.8,-1.3,0.79,-0,0.01,0.61
1697352483.38,0.05,0.48,0.94,7.7,-1.8,-1.3,0.79,-0,0.01,0.61
1697352483.39,0.05,0.48,0.94,7.7,-1.8,-1.3,0.79,-0,0.01,0.61
1697352483.4,0.05,0.48,0.94,7.7,-1.8,-1.3,0.79,-0,0.01,0.61
1697352483.41,0.05,0.48,0.94,7.7,-1.8,-1.3,0.79,-0,0.01,0.61
1697352483.42,0.05,0.48,0.94,7.7,-1.8,-1.3,0.79,-0,0.01,0.61
1697352483.43,0.05,0.48,0.94,7.7,-1.8,-1.3,0.79,-0,0.01,0.61
1697352483.44,0.05,0.48,0.94,7.7,-1.8,-1.3,0.79,-0,0.01,0.61
1697352483.45,0.05,0.48,0.94,7.7,-1.8,-1.3,0.79,-0,0.01,0.61
1697352483.46,0.05,0.48,0.94,7.7,-1.8,-1.3,0.79,-0,0.01,0.61
1697352483.47,0.05,0.48,0.94,7.7,-1.8,-1.3,0.79,-0,0.01,0.61
1697352483.48,0.05,0.48,0.94,7.7,-1.8,-1.3,0.79,-0,0.01,0.61
1697352483.49,0.05,0.48,0.94,7.7,-1.8,-1.3,0.79,-0,0.01,0.61
1697352483.5,0.05,0.48,0.94,7.7,-1.8,-1.3,0.79,-0,0.01,0.61
1697352483.51,0.05,0.48,0.94,7.7,-1.8,-1.3,0.79,-0,0.01,0.61
1697352483.52,0.05,0.48,0.94,7.7,-1.8,-1.3,0.79,-0,0.01,0.61
1697352483.53,0.05,0.48,0.94,7.7,-1.8,-1.3,0.79,-0,0.01,0.61
1697352483.54,0.05,0.48,0.94,7.7,-1.8,-1.3,0.79,-0,0.01,0.61
1697352483.55,0.05,0.48,0.94,7.7,-1.8,-1.3,0.79,-0,0.01,0.61
1697352483.56,0.05,0.48,0.94,7.7,-1.8,-1.3,0.79,-0,0.01,0.61
1697352483.57,0.05,0.48,0.94,7.7,-1.8,-1.3,0.79,-0,0.01,0.61
1697352483.58,0.05,0.48,0.94,7.7,-1.8,-1.3,0.79,-0,0.01,0.61
1697352483.59,0.05,0.48,0.94,7.7,-1.8,-1.3,0.79,-0,0.01,0.61
1697352483.6,0.05,0.48,0.94,7.7,-1.8,-1.3,0.79,-0,0.01,0.61
1697352483.61,-0.25,0.97,1,1.9,0.4,56.9,0.7,0.01,0.02,0.71
1697352483.62,-0.39,1.01,1.26,0.9,0.4,56.6,0.7,0.01,0.02,0.71
1697352483.63,-0.26,0.94,0.75,-0.4,0.5,55.7,0.7,0.01,0.02,0.72
1697352483.64,-0.08,0.96,0.62,-1.5,0.6,54.8,0.69,0.01,0.02,0.72
1697352483.65,-0.04,1.19,0.89,-1.3,1.5,54,0.69,0.01,0.02,0.73
1697352483.66,-0.04,1.06,1.11,-0.7,1.3,54.2,0.68,0.01,0.02,0.73
1697352483.67,-0.2,1.02,0.89,1.1,1.6,53.7,0.68,0.01,0.02,0.73
1697352483.68,-0.24,1.05,0.85,0.1,1.4,53.8,0.68,0.01,0.02,0.74
1697352483.69,-0.06,1.1,0.95,-2,1.4,53.8,0.67,0.01,0.02,0.74
1697352483.7,0,1.01,0.89,-2,1.4,53.8,0.67,0.01,0.02,0.74
1697352483.71,0.07,1.06,1.33,-2.5,0.4,54,0.67,0.01,0.02,0.74
1697352483.72,0.07,1.06,1.33,-2.5,0.4,54,0.67,0.01,0.02,0.74
1697352483.73,0.22,0.96,1.08,-3,-0.6,54.1,0.66,0.01,0.02,0.75
1697352483.74,0.13,0.98,1.32,-2.5,-0.2,53.4,0.66,0,0.02,0.75
1697352483.75,0.13,0.98,1.32,-2.5,-0.2,53.4,0.65,0,0.01,0.76
1697352483.76,-0.11,0.91,1.11,4.2,1.6,53.4,0.65,0,0.01,0.76
1697352483.77,-0.21,0.89,1.01,7.6,2.7,54.2,0.65,0.01,0.02,0.76
1697352483.78,-0.02,0.8,0.58,7.6,2.7,54.2,0.64,0.01,0.02,0.77
1697352483.79,-0.1,0.94,0.94,-1.5,3.4,54.3,0.64,0.01,0.02,0.77
1697352483.8,-0.1,0.94,0.94,-1.5,3.4,54.3,0.64,0.01,0.02,0.77
1697352483.81,-0.19,1.05,1.07,-5.4,2.6,54.3,0.63,0.01,0.02,0.78
1697352483.82,-0.19,1.05,1.07,-5.4,2.6,54.3,0.63,0.01,0.02,0.78
1697352483.83,-0.03,1.08,1.16,0,1,54.9,0.62,0,0.02,0.78
1697352483.84,-0.03,1.08,1.16,0,1,54.9,0.62,0,0.02,0.78
1697352483.85,0.11,0.94,1.05,3,-0.3,54.9,0.62,0,0.02,0.78
1697352483.86,-0.05,0.83,0.98,-0.2,-1.3,52.3,0.62,0.01,0.02,0.79
1697352483.87,-0.02,0.85,0.94,-6.2,-0.7,49.3,0.6,0.01,0.02,0.8
1697352483.88,-0.14,1,1.09,-6.2,-0.7,49.3,0.6,0.01,0.02,0.8
1697352483.89,-0.27,1.06,1.15,-6.2,0.1,47.9,0.6,0,0.01,0.8
1697352483.9,-0.27,1.06,1.15,-6.2,0.1,47.9,0.6,0,0.01,0.8
1697352483.91,-0.11,0.88,1.05,0.2,2.3,45.3,0.59,0,0.02,0.81
1697352483.92,-0.07,0.68,1.09,0.2,2.3,45.3,0.59,0,0.02,0.81
1697352483.93,-0.07,0.68,1.09,3.2,3.5,43.4,0.59,0,0.02,0.81
1697352483.94,0.01,0.22,1,-1.4,3.3,37.6,0.59,0,0.02,0.81
1697352483.95,0.01,0.22,1,-1.4,3.3,37.6,0.58,0,0.02,0.81
1697352483.96,0.06,0.49,1.1,-6.6,2.8,34.3,0.58,0,0.02,0.81
1697352483.97,0.06,0.49,1.1,-9.7,2.1,31.5,0.58,0,0.01,0.82
1697352483.98,0.08,0.57,0.73,-6.4,0.8,27.9,0.58,0,0.01,0.82
1697352483.99,0.02,0.29,1.06,-3,0.3,26.2,0.58,0,0.01,0.82
1697352484,0.02,0.29,1.06,-3,0.3,26.2,0.58,0,0.01,0.82
1697352484.01,0.02,0.29,1.06,-3,0.3,26.2,0.58,0,0.01,0.82
1697352484.02,0.02,0.29,1.06,-3,0.3,26.2,0.58,0,0.01,0.82
1697352484.03,0.02,0.29,1.06,-3,0.3,26.2,0.58,0,0.01,0.82
1697352484.04,0.02,0.29,1.06,-3,0.3,26.2,0.58,0,0.01,0.82
1697352484.05,0.02,0.29,1.06,-3,0.3,26.2,0.58,0,0.01,0.82
1697352484.06,0.02,0.29,1.06,-3,0.3,26.2,0.58,0,0.01,0.82
1697352484.07,0.02,0.29,1.06,-3,0.3,26.2,0.58,0,0.01,0.82
1697352484.08,0.02,0.29,1.06,-3,0.3,26.2,0.58,0,0.01,0.82
1697352484.09,0.02,0.29,1.06,-3,0.3,26.2,0.58,0,0.01,0.82
1697352484.1,0.02,0.29,1.06,-3,0.3,26.2,0.58,0,0.01,0.82
1697352484.11,0.02,0.29,1.06,-3,0.3,26.2,0.58,0,0.01,0.82
1697352484.12,0.02,0.29,1.06,-3,0.3,26.2,0.58,0,0.01,0.82
1697352484.13,0.02,0.29,1.06,-3,0.3,26.2,0.58,0,0.01,0.82
1697352484.14,0.02,0.29,1.06,-3,0.3,26.2,0.58,0,0.01,0.82
1697352484.15,0.02,0.29,1.06,-3,0.3,26.2,0.58,0,0.01,0.82
1697352484.16,0.02,0.29,1.06,-3,0.3,26.2,0.58,0,0.01,0.82
1697352484.17,0.02,0.29,1.06,-3,0.3,26.2,0.58,0,0.01,0.82
1697352484.18,0.02,0.29,1.06,-3,0.3,26.2,0.58,0,0.01,0.82
1697352484.19,0.02,0.29,1.06,-3,0.3,26.2,0.58,0,0.01,0.82
1697352484.2,0.02,0.29,1.06,-3,0.3,26.2,0.58,0,0.01,0.82
1697352484.21,0.02,0.29,1.06,-3,0.3,26.2,0.58,0,0.01,0.82
1697352484.22,0.02,0.29,1.06,-3,0.3,26.2,0.58,0,0.01,0.82
1697352484.23,0.02,0.29,1.06,-3,0.3,26.2,0.58,0,0.01,0.82
1697352484.24,0.02,0.29,1.06,-3,0.3,26.2,0.58,0,0.01,0.82
1697352484.25,0.02,0.29,1.06,-3,0.3,26.2,0.58,0,0.01,0.82
1697352484.26,0.02,0.29,1.06,-3,0.3,26.2,0.58,0,0.01,0.82
1697352484.27,0.02,0.29,1.06,-3,0.3,26.2,0.58,0,0.01,0.82
1697352484.28,0.02,0.29,1.06,-3,0.3,26.2,0.58,0,0.01,0.82
1697352484.29,0.02,0.29,1.06,-3,0.3,26.2,0.58,0,0.01,0.82
1697352484.3,0.02,0.29,1.06,-3,0.3,26.2,0.58,0,0.01,0.82
1697352484.31,0.02,0.29,1.06,-3,0.3,26.2,0.58,0,0.01,0.82
1697352484.32,0.02,0.29,1.06,-3,0.3,26.2,0.58,0,0.01,0.82
1697352484.33,0.02,0.29,1.06,-3,0.3,26.2,0.58,0,0.01,0.82
1697352484.34,0.02,0.29,1.06,-3,0.3,26.2,0.58,0,0.01,0.82
1697352484.35,0.02,0.29,1.06,-3,0.3,26.2,0.58,0,0.01,0.82
1697352484.36,0.02,0.29,1.06,-3,0.3,26.2,0.58,0,0.01,0.82
1697352484.37,0.02,0.29,1.06,-3,0.3,26.2,0.58,0,0.01,0.82
1697352484.38,0.02,0.29,1.06,-3,0.3,26.2,0.58,0,0.01,0.82
1697352484.39,0.02,0.29,1.06,-3,0.3,26.2,0.58,0,0.01,0.82
1697352484.4,0.02,0.29,1.06,-3,0.3,26.2,0.58,0,0.01,0.82
1697352484.41,0.02,0.29,1.06,-3,0.3,26.2,0.58,0,0.01,0.82
1697352484.42,0.02,0.29,1.06,-3,0.3,26.2,0.58,0,0.01,0.82
1697352484.43,0.02,0.29,1.06,-3,0.3,26.2,0.58,0,0.01,0.82
1697352484.44,0.02,0.29,1.06,-3,0.3,26.2,0.58,0,0.01,0.82
1697352484.45,0.02,0.29,1.06,-3,0.3,26.2,0.58,0,0.01,0.82
1697352484.46,0.02,0.29,1.06,-3,0.3,26.2,0.58,0,0.01,0.82
1697352484.47,0.02,0.29,1.06,-3,0.3,26.2,0.58,0,0.01,0.82
1697352484.48,0.02,0.29,1.06,-3,0.3,26.2,0.58,0,0.01,0.82
1697352484.49,0.02,0.29,1.06,-3,0.3,26.2,0.58,0,0.01,0.82
1697352484.5,0.02,0.29,1.06,-3,0.3,26.2,0.58,0,0.01,0.82
1697352484.51,0.02,0.29,1.06,-3,0.3,26.2,0.58,0,0.01,0.82
1697352484.52,0.02,0.29,1.06,-3,0.3,26.2,0.58,0,0.01,0.82
1697352484.53,0.02,0.29,1.06,-3,0.3,26.2,0.58,0,0.01,0.82
1697352484.54,0.02,0.29,1.06,-3,0.3,26.2,0.58,0,0.01,0.82
1697352484.55,0.02,0.29,1.06,-3,0.3,26.2,0.58,0,0.01,0.82
1697352484.56,0.02,0.29,1.06,-3,0.3,26.2,0.58,0,0.01,0.82
1697352484.57,0.02,0.29,1.06,-3,0.3,26.2,0.58,0,0.01,0.82
1697352484.58,0.02,0.29,1.06,-3,0.3,26.2,0.58,0,0.01,0.82
1697352484.59,0.02,0.29,1.06,-3,0.3,26.2,0.58,0,0.01,0.82
1697352484.6,0.02,0.29,1.06,-3,0.3,26.2,0.58,0,0.01,0.82
1697352484.61,0.02,0.29,1.06,-3,0.3,26.2,0.58,0,0.01,0.82
1697352484.62,0.02,0.29,1.06,-3,0.3,26.2,0.58,0,0.01,0.82
1697352484.63,0.02,0.29,1.06,-3,0.3,26.2,0.58,0,0.01,0.82
1697352484.64,0.02,0.29,1.06,-3,0.3,26.2,0.58,0,0.01,0.82
1697352484.65,0.02,0.29,1.06,-3,0.3,26.2,0.58,0,0.01,0.82
1697352484.66,0.02,0.29,1.06,-3,0.3,26.2,0.58,0,0.01,0.82
1697352484.67,0.02,0.29,1.06,-3,0.3,26.2,0.58,0,0.01,0.82
1697352484.68,0.02,0.29,1.06,-3,0.3,26.2,0.58,0,0.01,0.82
1697352484.69,0.02,0.29,1.06,-3,0.3,26.2,0.58,0,0.01,0.82
1697352484.7,0.02,0.29,1.06,-3,0.3,26.2,0.58,0,0.01,0.82
1697352484.71,0.02,0.29,1.06,-3,0.3,26.2,0.58,0,0.01,0.82
1697352484.72,0.02,0.29,1.06,-3,0.3,26.2,0.58,0,0.01,0.82
1697352484.73,0.02,0.29,1.06,-3,0.3,26.2,0.58,0,0.01,0.82
1697352484.74,0.02,0.29,1.06,-3,0.3,26.2,0.58,0,0.01,0.82
1697352484.75,0.02,0.29,1.06,-3,0.3,26.2,0.58,0,0.01,0.82
1697352484.76,0.02,0.29,1.06,-3,0.3,26.2,0.58,0,0.01,0.82
1697352484.77,0.02,0.29,1.06,-3,0.3,26.2,0.58,0,0.01,0.82
1697352484.78,0.02,0.29,1.06,-3,0.3,26.2,0.58,0,0.01,0.82
1697352484.79,0.02,0.29,1.06,-3,0.3,26.2,0.58,0,0.01,0.82
1697352484.8,0.02,0.29,1.06,-3,0.3,26.2,0.58,0,0.01,0.82
1697352484.81,-0.07,-0.87,0.9,0.9,0.9,-55.7,0.77,-0.01,0,0.64
1697352484.82,-0.35,-0.97,1.37,1.2,2.4,-55.2,0.78,-0.01,0,0.63
1697352484.83,-0.05,-1.01,0.72,0.8,3.4,-54.6,0.78,-0.01,0,0.63
1697352484.84,-0.33,-0.9,1.08,1,4,-53.7,0.78,-0.01,0,0.62
1697352484.85,-0.33,-0.9,1.08,1,4,-53.7,0.78,-0.01,0,0.62
1697352484.86,-0.28,-0.56,1.56,2.5,4.1,-51.5,0.79,-0.01,0,0.62
1697352484.87,0.19,-0.52,0.58,2.5,4.1,-51.5,0.79,-0.01,0,0.62
1697352484.88,-0.15,-0.42,1.12,6.1,1.6,-46.2,0.79,-0.01,0,0.61
1697352484.89,0.04,-0.34,1.01,6.1,1.6,-46.2,0.79,-0.01,0,0.61
1697352484.9,0.06,-0.16,0.52,3.4,-0.9,-38.1,0.79,-0.01,0,0.61
1697352484.91,-0.25,0.13,1.42,3.5,-2.5,-27.7,0.8,-0.01,0,0.6
1697352484.92,-0.29,-0.01,1.33,5.2,-2.7,-23,0.8,-0.01,0,0.6
1697352484.93,-0.08,0.09,0.88,6.5,-2.3,-18.6,0.8,-0.01,0,0.6
1697352484.94,-0.06,0.21,1.01,7.8,-1.8,-13.9,0.8,-0.01,0,0.6
1697352484.95,-0.06,0.21,1.01,7.8,-1.8,-13.9,0.8,-0.01,0,0.6
1697352484.96,0.13,0.41,1.14,10.8,-1.4,-3.8,0.8,-0.01,0,0.6
1697352484.97,0.37,0.65,0.9,10.8,-1.4,-3.8,0.8,-0,0,0.6
1697352484.98,0.37,0.65,0.9,13.1,-2.1,2.1,0.8,-0,0.01,0.6
1697352484.99,0.28,0.63,1.56,13.3,-3.5,6.9,0.8,-0,0.01,0.6
1697352485,0.28,0.63,1.56,10.6,-4.8,11.6,0.8,-0,0.01,0.6
1697352485.01,0.27,0.46,1.07,7.4,-5,14.8,0.8,-0,0.01,0.6
1697352485.02,-0.1,0.62,1.36,4.7,-4.2,17.5,0.8,0,0.01,0.6
1697352485.03,-0.2,0.94,0.58,4.7,-4.2,17.5,0.8,0,0.01,0.6
1697352485.04,-0.15,1.05,0.69,4.9,-2.6,20.3,0.8,0,0.01,0.6
1697352485.05,-0.35,1.02,1.47,6.8,-1.3,23.4,0.8,0,0.01,0.6
1697352485.06,-0.05,0.96,0.87,8.3,-1,26.4,0.8,0,0.01,0.61
1697352485.07,-0.17,1,1.13,7.1,-0.5,29.3,0.79,0,0.01,0.61
1697352485.08,-0.04,1.01,0.95,5.1,-0.4,32,0.79,0,0.01,0.61
1697352485.09,0.26,0.84,0.72,4,-0.4,34.1,0.79,0,0.01,0.61
1697352485.1,0.28,0.8,0.96,1.8,-1.4,35.3,0.79,0,0.01,0.62
1697352485.11,0.38,0.82,1.24,-0.9,-2.5,36.4,0.79,0,0.01,0.62
1697352485.12,0.31,0.76,1.01,-2.6,-3.9,37.5,0.78,0,0.01,0.62
1697352485.13,0.21,0.82,0.9,-2,-4.2,36.8,0.78,0,0.01,0.62
1697352485.14,-0.14,0.79,1.54,0.2,-2.7,36.2,0.78,0,0.01,0.63
1697352485.15,-0.02,0.74,0.74,2.1,-1.4,35.8,0.78,0,0.01,0.63
1697352485.16,-0.21,0.65,1.08,2.9,0.8,35.6,0.78,0,0.01,0.63
1697352485.17,-0.12,0.55,1.17,1.9,2.5,36.2,0.77,0,0.01,0.63
1697352485.18,0.21,0.61,0.46,0,3.7,36.3,0.77,0,0.01,0.64
1697352485.19,0.08,0.6,1.22,-2.5,4,36.3,0.77,0,0.01,0.64
1697352485.2,0.08,0.6,1.22,-2.5,4,36.3,0.77,0,0.01,0.64
1697352485.21,0.08,0.6,1.22,-2.5,4,36.3,0.77,0,0.01,0.64
1697352485.22,0.08,0.6,1.22,-2.5,4,36.3,0.77,0,0.01,0.64
1697352485.23,0.08,0.6,1.22,-2.5,4,36.3,0.77,0,0.01,0.64
1697352485.24,0.08,0.6,1.22,-2.5,4,36.3,0.77,0,0.01,0.64
1697352485.25,0.08,0.6,1.22,-2.5,4,36.3,0.77,0,0.01,0.64
1697352485.26,0.08,0.6,1.22,-2.5,4,36.3,0.77,0,0.01,0.64
1697352485.27,0.08,0.6,1.22,-2.5,4,36.3,0.77,0,0.01,0.64
1697352485.28,0.08,0.6,1.22,-2.5,4,36.3,0.77,0,0.01,0.64
1697352485.29,0.08,0.6,1.22,-2.5,4,36.3,0.77,0,0.01,0.64
1697352485.3,0.08,0.6,1.22,-2.5,4,36.3,0.77,0,0.01,0.64
1697352485.31,0.08,0.6,1.22,-2.5,4,36.3,0.77,0,0.01,0.64
1697352485.32,0.08,0.6,1.22,-2.5,4,36.3,0.77,0,0.01,0.64
1697352485.33,0.08,0.6,1.22,-2.5,4,36.3,0.77,0,0.01,0.64
1697352485.34,0.08,0.6,1.22,-2.5,4,36.3,0.77,0,0.01,0.64
1697352485.35,0.08,0.6,1.22,-2.5,4,36.3,0.77,0,0.01,0.64
1697352485.36,0.08,0.6,1.22,-2.5,4,36.3,0.77,0,0.01,0.64
1697352485.37,0.08,0.6,1.22,-2.5,4,36.3,0.77,0,0.01,0.64
1697352485.38,0.08,0.6,1.22,-2.5,4,36.3,0.77,0,0.01,0.64
1697352485.39,0.08,0.6,1.22,-2.5,4,36.3,0.77,0,0.01,0.64
1697352485.4,0.08,0.6,1.22,-2.5,4,36.3,0.77,0,0.01,0.64
1697352485.41,0.08,0.6,1.22,-2.5,4,36.3,0.77,0,0.01,0.64
1697352485.42,0.08,0.6,1.22,-2.5,4,36.3,0.77,0,0.01,0.64
1697352485.43,0.08,0.6,1.22,-2.5,4,36.3,0.77,0,0.01,0.64
1697352485.44,0.08,0.6,1.22,-2.5,4,36.3,0.77,0,0.01,0.64
1697352485.45,0.08,0.6,1.22,-2.5,4,36.3,0.77,0,0.01,0.64
1697352485.46,0.08,0.6,1.22,-2.5,4,36.3,0.77,0,0.01,0.64
1697352485.47,0.08,0.6,1.22,-2.5,4,36.3,0.77,0,0.01,0.64
1697352485.48,0.08,0.6,1.22,-2.5,4,36.3,0.77,0,0.01,0.64
1697352485.49,0.08,0.6,1.22,-2.5,4,36.3,0.77,0,0.01,0.64
1697352485.5,0.08,0.6,1.22,-2.5,4,36.3,0.77,0,0.01,0.64
1697352485.51,0.08,0.6,1.22,-2.5,4,36.3,0.77,0,0.01,0.64
1697352485.52,0.08,0.6,0.93,-2.5,4,36.3,0.77,0,0.01,0.64
1697352485.53,0.24,0.46,0.77,-2.2,-2,27.8,0.7,0,0.01,0.71
1697352485.54,0.25,0.57,0.79,-2.2,-1.5,26.9,0.7,0,0.01,0.72
1697352485.55,0.14,0.58,0.87,-0.6,-0.5,26.5,0.7,0,0.01,0.72
1697352485.56,0.08,0.51,1.16,1.5,0.8,26.3,0.69,0,0.01,0.72
1697352485.57,0.12,0.32,0.98,1.9,1.2,26.3,0.69,0,0.01,0.72
1697352485.58,0.08,0.39,1.24,1.9,2.7,26.2,0.69,0,0.01,0.72
1697352485.59,0.06,0.42,1.21,0.4,3.7,26.5,0.69,0,0.01,0.72
1697352485.6,0.1,0.41,1.11,0.4,3.7,26.5,0.69,0,0.01,0.72
1697352485.61,0.25,0.53,0.89,0.3,4.4,26.5,0.69,0,0.01,0.73
1697352485.62,0.24,0.46,1.05,2,3.2,27.4,0.68,0,0.01,0.73
1697352485.63,0.13,0.31,0.92,2,3.2,27.4,0.68,0,0.01,0.73
1697352485.64,0.18,0.37,0.78,0.1,0.8,25.6,0.68,0,0.01,0.73
1697352485.65,0.18,0.37,0.78,0.1,0.8,25.6,0.68,0,0.01,0.73
1697352485.66,0.15,0.39,0.95,-1.9,0.1,24.4,0.68,0,0.01,0.73
1697352485.67,0.15,0.39,0.95,-1.9,0.1,24.4,0.68,0,0.01,0.74
1697352485.68,0.14,0.45,1.05,-1.2,-1.5,20.9,0.68,0,0.01,0.74
1697352485.69,0.08,0.35,1.1,-0.6,-1.3,19.9,0.67,0,0.01,0.74
1697352485.7,0.08,0.35,1.1,-0.6,-1.3,19.9,0.67,0,0.01,0.74
1697352485.71,0.1,0.39,0.8,-0.2,-0.6,19,0.67,0,0.01,0.74
1697352485.72,0.08,0.28,0.88,0.5,0.3,18.2,0.67,0,0.01,0.74
1697352485.73,0.07,0.27,1.05,0.5,0.5,18,0.67,0,0.01,0.74
1697352485.74,0.04,0.3,1.31,-1.5,1.7,17.5,0.67,0,0.01,0.74
1697352485.75,0.15,0.23,1.15,-2,2.3,17.2,0.67,0,0.01,0.75
1697352485.76,0.19,0.37,0.92,-0.5,2.9,17.6,0.67,0,0.01,0.75
1697352485.77,-0,0.3,1.16,2.3,3.5,17.7,0.66,0,0.01,0.75
1697352485.78,0.2,0.17,0.94,2.7,3.4,17.4,0.66,0,0.01,0.75
1697352485.79,0.14,0.09,0.92,0.4,3.1,17,0.66,0,0.01,0.75
1697352485.8,0.16,0.06,0.97,-1.2,1.8,16.3,0.66,0,0.01,0.75
1697352485.81,0.16,0.23,1.13,-2.6,0.1,15.7,0.66,0,0.01,0.75
1697352485.82,0.18,0.36,0.74,-2.6,0.1,15.7,0.66,0,0.01,0.75
1697352485.83,0.08,0.41,1.18,-1.8,-0.4,15.2,0.66,0,0.01,0.75
1697352485.84,0.08,0.41,1.18,0.5,-0.7,14.7,0.66,0,0.01,0.75
1697352485.85,0.09,0.24,0.87,1.9,-1.1,14,0.66,0,0.01,0.75
1697352485.86,0.09,0.24,0.87,1.9,-1.1,14,0.66,0,0.01,0.75
1697352485.87,-0.01,0.22,1.22,0.2,0.2,13.8,0.66,0,0.01,0.76
1697352485.88,0.1,0.22,0.92,-1,0.6,14,0.65,0,0.01,0.76
1697352485.89,0.08,0.35,1.04,-1.2,0.7,14.3,0.65,0,0.01,0.76
1697352485.9,0.08,0.35,1.04,-1.2,0.7,14.3,0.65,0,0.01,0.76
1697352485.91,0.06,0.31,0.97,1.9,0.5,15.7,0.65,0,0.01,0.76
1697352485.92,0.06,0.31,0.97,1.9,0.5,15.7,0.65,0,0.01,0.76
1697352485.93,0.06,0.31,0.97,1.9,0.5,15.7,0.65,0,0.01,0.76
1697352485.94,0.06,0.31,0.97,1.9,0.5,15.7,0.65,0,0.01,0.76
1697352485.95,0.06,0.31,0.97,1.9,0.5,15.7,0.65,0,0.01,0.76
1697352485.96,0.06,0.31,0.97,1.9,0.5,15.7,0.65,0,0.01,0.76
1697352485.97,0.06,0.31,0.97,1.9,0.5,15.7,0.65,0,0.01,0.76
1697352485.98,0.06,0.31,0.97,1.9,0.5,15.7,0.65,0,0.01,0.76
1697352485.99,0.06,0.31,0.97,1.9,0.5,15.7,0.65,0,0.01,0.76
1697352486,0.06,0.31,0.97,1.9,0.5,15.7,0.65,0,0.01,0.76
1697352486.01,0.06,0.31,0.97,1.9,0.5,15.7,0.65,0,0.01,0.76
1697352486.02,0.06,0.31,0.97,1.9,0.5,15.7,0.65,0,0.01,0.76
1697352486.03,0.06,0.31,0.97,1.9,0.5,15.7,0.65,0,0.01,0.76
1697352486.04,0.06,0.31,0.97,1.9,0.5,15.7,0.65,0,0.01,0.76
1697352486.05,-0.03,0.33,0.92,0.7,2.6,15.6,0.64,0,0.01,0.77
1697352486.06,-0.07,0.3,1.12,2.1,2.4,15.9,0.64,0,0.01,0.77
1697352486.07,0.06,0.21,1.06,2.8,2.1,16.2,0.63,0,0.01,0.77
1697352486.08,0.11,0.15,1.14,-0.1,0.2,16,0.63,0,0.01,0.77
1697352486.09,-0.05,0.25,1.03,-0.6,0,15.9,0.63,0,0.01,0.77
1697352486.1,0.07,0.39,1.05,-1.9,-1.6,15.8,0.63,0,0.01,0.78
1697352486.11,0.18,0.44,0.98,-1.1,-2.3,15.5,0.63,0,0.01,0.78
1697352486.12,0.1,0.42,0.95,-0.3,-2.9,15.1,0.63,0,0.01,0.78
1697352486.13,0.12,0.33,0.79,0,-3,14.9,0.63,0,0.01,0.78
1697352486.14,0.02,0.28,1.03,-0.8,-2.3,14.6,0.63,0,0.01,0.78
1697352486.15,-0.06,0.26,1.17,-1,-1.5,14.3,0.63,0,0.01,0.78
1697352486.16,0.03,0.35,1.04,-1,-1.2,14.1,0.62,0,0.01,0.78
1697352486.17,-0.02,0.38,1.14,-0.9,-0.8,14.3,0.62,0,0.01,0.78
1697352486.18,-0.05,0.24,0.99,0.4,-0.4,15,0.62,0,0.01,0.78
1697352486.19,0.04,0.35,1.22,1.7,0,15.2,0.62,0,0.01,0.78
1697352486.2,0.07,0.23,1.21,2.1,0.4,16.1,0.62,0,0.01,0.78
1697352486.21,0.09,0.16,0.98,2,0.2,16.9,0.62,0.01,0.01,0.79
1697352486.22,0.04,0.34,1.11,-0.4,-0.2,17.1,0.62,0,0.01,0.79
1697352486.23,0.23,0.49,0.79,-1.8,-0.3,17.4,0.62,0,0.01,0.79
1697352486.24,0.14,0.58,0.96,-1.8,-0.3,17.4,0.62,0,0.01,0.79
1697352486.25,0.08,0.61,0.98,0,-1.3,18.5,0.61,0.01,0.01,0.79
1697352486.26,0.02,0.48,1.12,2.1,-1.5,18.7,0.61,0.01,0.01,0.79
1697352486.27,0.06,0.42,0.85,2.3,-1.7,19.2,0.61,0.01,0.01,0.79
1697352486.28,-0.11,0.46,1.08,1.4,-1.8,19.5,0.61,0.01,0.01,0.79
1697352486.29,-0.09,0.48,1.12,-0.4,-1.7,20.3,0.61,0.01,0.01,0.79
1697352486.3,-0.09,0.48,1.12,-0.4,-1.7,20.3,0.61,0.01,0.01,0.79
1697352486.31,0.01,0.71,1.15,2.9,0.1,23.2,0.61,0.01,0.01,0.79
1697352486.32,0.01,0.71,1.15,2.9,0.1,23.2,0.61,0.01,0.01,0.8
1697352486.33,-0.03,0.55,1.25,2.6,0.2,25.4,0.6,0.01,0.01,0.8
1697352486.34,-0.03,0.55,1.25,2.6,0.2,25.4,0.6,0.01,0.01,0.8
1697352486.35,0,0.48,1,1.1,0,26.8,0.6,0.01,0.01,0.8
1697352486.36,-0.01,0.51,0.98,-0.1,-0.6,27.2,0.6,0.01,0.01,0.8
1697352486.37,0.07,0.51,0.91,-1,-0.9,26.7,0.6,0.01,0.01,0.8
1697352486.38,0.1,0.51,1.09,-1.2,-1.2,26.2,0.59,0.01,0.01,0.8
1697352486.39,0.08,0.75,1.06,1.4,-0.9,25.3,0.59,0.01,0.01,0.81
1697352486.4,0.08,0.75,1.06,1.4,-0.9,25.3,0.59,0.01,0.01,0.81
1697352486.41,-0.12,0.59,1.03,2.9,-0.6,25.6,0.59,0.01,0.01,0.81
1697352486.42,-0.12,0.59,1.03,2.7,-0.5,25.7,0.59,0.01,0.01,0.81
1697352486.43,-0.12,0.67,0.91,0.9,0,26.7,0.58,0.01,0.01,0.81
1697352486.44,-0.12,0.67,0.91,0.9,0,26.7,0.58,0.01,0.01,0.81
1697352486.45,-0.12,0.67,0.91,0.9,0,26.7,0.58,0.01,0.01,0.81
1697352486.46,-0.12,0.67,0.91,0.9,0,26.7,0.58,0.01,0.01,0.81
1697352486.47,-0.12,0.67,0.91,0.9,0,26.7,0.58,0.01,0.01,0.81
1697352486.48,-0.12,0.67,0.91,0.9,0,26.7,0.58,0.01,0.01,0.81
1697352486.49,-0.12,0.67,0.91,0.9,0,26.7,0.58,0.01,0.01,0.81
1697352486.5,-0.12,0.67,0.91,0.9,0,26.7,0.58,0.01,0.01,0.81
1697352486.51,-0.12,0.67,0.91,0.9,0,26.7,0.58,0.01,0.01,0.81
1697352486.52,-0.12,0.67,0.91,0.9,0,26.7,0.58,0.01,0.01,0.81
1697352486.53,-0.12,0.67,0.91,0.9,0,26.7,0.58,0.01,0.01,0.81
1697352486.54,-0.12,0.67,0.91,0.9,0,26.7,0.58,0.01,0.01,0.81
1697352486.55,-0.12,0.67,0.91,0.9,0,26.7,0.58,0.01,0.01,0.81
1697352486.56,-0.12,0.67,0.91,0.9,0,26.7,0.58,0.01,0.01,0.81
1697352486.57,-0.21,0.65,1.07,2.5,2.3,33.5,0.55,0.01,0.01,0.83
1697352486.58,-0.2,0.57,0.97,1.5,3.4,33,0.55,0.01,0.01,0.83
1697352486.59,0.04,0.65,0.82,-0.9,3.6,32.9,0.55,0.01,0.01,0.84
1697352486.6,-0.09,0.74,0.89,-2.7,3.8,32.8,0.55,0.01,0.01,0.84
1697352486.61,0.04,0.69,0.7,-2,4.5,32.9,0.54,0.01,0.01,0.84
1697352486.62,-0.32,0.76,1.51,-0.9,4.2,33.1,0.54,0.01,0.01,0.84
1697352486.63,-0.23,0.64,0.76,0.1,4,33.4,0.54,0,0.01,0.84
1697352486.64,-0.05,0.61,0.48,0.2,3.6,33.2,0.54,0,0.01,0.84
1697352486.65,-0.21,0.56,0.62,-0.7,3.9,32.7,0.53,0,0.01,0.85
1697352486.66,-0.21,0.56,0.62,-0.7,3.9,32.7,0.53,0,0.01,0.85
1697352486.67,-0.21,0.56,0.62,-0.7,3.9,32.7,0.53,0,0.01,0.85
1697352486.68,-0.21,0.56,0.62,-0.7,3.9,32.7,0.53,0,0.01,0.85
1697352486.69,-0.21,0.56,0.62,-0.7,3.9,32.7,0.53,0,0.01,0.85
1697352486.7,-0.21,0.56,0.62,-0.7,3.9,32.7,0.53,0,0.01,0.85
1697352486.71,-0.21,0.56,0.62,-0.7,3.9,32.7,0.53,0,0.01,0.85
1697352486.72,-0.21,0.56,0.62,-0.7,3.9,32.7,0.53,0,0.01,0.85
1697352486.73,-0,0.49,0.89,1.6,3.9,33.9,0.51,0,0.01,0.86
1697352486.74,0.29,0.6,0.49,-0.2,2.7,34,0.51,0,0.01,0.86
1697352486.75,0.33,0.67,0.97,-1.8,2,34,0.51,0,0.01,0.86
1697352486.76,0.39,0.74,0.84,-2,0.8,34,0.5,0,0.01,0.86
1697352486.77,0.22,0.52,0.75,-0.8,-0.7,33.4,0.5,0,0.01,0.86
1697352486.78,0.12,0.64,0.84,0.5,-1.8,32.5,0.5,0,0.01,0.87
1697352486.79,0,0.55,0.92,0.5,-2.4,31.1,0.5,0,0.01,0.87
1697352486.8,-0.06,0.64,0.78,-0.3,-1.9,30.7,0.49,0,0.01,0.87
1697352486.81,-0.06,0.64,0.78,-0.4,-0.4,30.3,0.49,0,0.01,0.87
1697352486.82,-0.27,0.62,1.27,-0.7,1.3,30.5,0.49,0,0.01,0.87
1697352486.83,-0,0.7,0.63,0.1,3,30.9,0.49,0,0.01,0.87
1697352486.84,0.2,0.75,0.33,0.8,4.3,31.1,0.49,0,0.01,0.87
1697352486.85,-0.16,0.65,1.37,1.9,4.8,31.5,0.48,0,0.01,0.88
1697352486.86,-0.15,0.59,1.15,2.8,4.5,32.2,0.48,0,0.01,0.88
1697352486.87,-0.15,0.59,1.15,3.5,3.6,32.5,0.48,0,0.01,0.88
1697352486.88,-0.21,0.56,1.04,2.7,2.8,32.6,0.48,0,0.02,0.88
1697352486.89,0.02,0.59,0.9,2,1.8,32.6,0.48,0,0.02,0.88
1697352486.9,0.02,0.59,0.9,2.5,1,32.4,0.47,0,0.02,0.88
1697352486.91,0.07,0.58,0.86,3.1,0.4,32,0.47,0,0.02,0.88
1697352486.92,0.07,0.58,0.86,3.1,0.4,32,0.47,0,0.02,0.88
1697352486.93,0.01,0.65,1,1.6,-1.9,31.8,0.46,0,0.02,0.89
1697352486.94,0.02,0.61,0.78,2,-2.3,31.4,0.46,0,0.02,0.89
1697352486.95,0.02,0.61,0.78,2,-2.3,31.4,0.46,0,0.02,0.89
1697352486.96,0.07,0.69,1.4,0.9,-2.7,30.7,0.46,0,0.02,0.89
1697352486.97,0.07,0.69,1.4,0.9,-2.7,30.7,0.46,0,0.02,0.89
1697352486.98,0.17,0.5,0.98,3,-3.9,31.3,0.45,0,0.02,0.89
1697352486.99,0.18,0.69,1.18,3,-3.9,31.3,0.45,0,0.02,0.89
1697352487,0.21,0.73,0.97,2.8,-3.6,30,0.45,0,0.02,0.89
1697352487.01,0.21,0.73,0.97,2.8,-3.6,30,0.45,0,0.02,0.89
1697352487.02,0.21,0.73,0.97,2.8,-3.6,30,0.45,0,0.02,0.89
1697352487.03,-0.1,0.76,1.06,4.4,-1.6,32.7,0.44,0,0.02,0.9
1697352487.04,-0.1,0.77,0.91,3.8,-1.4,34.5,0.44,0.01,0.02,0.9
1697352487.05,-0.1,0.77,0.91,3.8,-1.4,34.5,0.44,0.01,0.02,0.9
1697352487.06,-0.02,0.79,0.86,2.6,-1.4,38,0.43,0.01,0.02,0.9
1697352487.07,-0.02,0.79,0.86,5,-1.5,41,0.43,0.01,0.02,0.9
1697352487.08,-0.12,0.83,1.18,5.6,-1,41.9,0.43,0.01,0.02,0.9
1697352487.09,-0.02,0.5,0.96,3.3,-0.6,40.8,0.42,0.01,0.02,0.91
1697352487.1,0.03,0.57,1.05,-1.2,-0.6,39.2,0.42,0.01,0.02,0.91
1697352487.11,-0.06,0.88,1.01,-3.6,-0.2,38.4,0.42,0.01,0.02,0.91
1697352487.12,0.09,0.95,0.79,1.1,0.3,36.5,0.41,0.01,0.02,0.91
1697352487.13,0.01,0.93,0.79,3.1,0.3,35.9,0.41,0.01,0.02,0.91
1697352487.14,0.01,0.93,0.79,3.1,0.3,35.9,0.41,0.01,0.02,0.91
1697352487.15,0.01,0.93,0.79,3.1,0.3,35.9,0.41,0.01,0.02,0.91
1697352487.16,0.01,0.93,0.79,3.1,0.3,35.9,0.41,0.01,0.02,0.91
1697352487.17,0.01,0.93,0.79,3.1,0.3,35.9,0.41,0.01,0.02,0.91
1697352487.18,0.01,0.93,0.79,3.1,0.3,35.9,0.41,0.01,0.02,0.91
1697352487.19,0.01,0.93,0.79,3.1,0.3,35.9,0.41,0.01,0.02,0.91
1697352487.2,0.01,0.93,0.79,3.1,0.3,35.9,0.41,0.01,0.02,0.91
1697352487.21,0.01,0.93,0.79,3.1,0.3,35.9,0.41,0.01,0.02,0.91
1697352487.22,0.01,0.93,0.79,3.1,0.3,35.9,0.41,0.01,0.02,0.91
1697352487.23,0.01,0.93,0.79,3.1,0.3,35.9,0.41,0.01,0.02,0.91
1697352487.24,0.01,0.93,0.79,3.1,0.3,35.9,0.41,0.01,0.02,0.91
1697352487.25,0.01,0.93,0.79,3.1,0.3,35.9,0.41,0.01,0.02,0.91
1697352487.26,0,0.95,0.9,-2.9,2.2,38.9,0.37,0.01,0.02,0.93
1697352487.27,-0,1.02,0.65,0.1,1.3,39.4,0.37,0.01,0.02,0.93
1697352487.28,-0.11,0.64,1.04,3.3,0.1,40.3,0.36,0.01,0.02,0.93
1697352487.29,-0.13,0.54,1.06,3.3,0.1,40.3,0.36,0.01,0.02,0.93
1697352487.3,-0.08,0.58,1.02,-0.2,-1.5,39.2,0.36,0.01,0.02,0.93
1697352487.31,-0.09,0.76,0.93,-5,-0.4,38.7,0.35,0.01,0.02,0.94
1697352487.32,-0.07,1.04,0.85,-7.4,0.7,38.8,0.35,0.01,0.02,0.94
1697352487.33,-0.12,1.1,0.92,-3.3,2.1,39,0.35,0.01,0.02,0.94
1697352487.34,-0.02,0.96,0.63,4.2,3.2,39.1,0.35,0.01,0.02,0.94
1697352487.35,-0.02,0.96,0.63,4.2,3.2,39.1,0.35,0.01,0.02,0.94
1697352487.36,-0.06,0.59,1.31,8.1,4.4,39.8,0.34,0.01,0.02,0.94
1697352487.37,-0.06,0.59,1.31,8.1,4.4,39.8,0.34,0.01,0.02,0.94
1697352487.38,-0.16,0.23,0.95,-1.1,2.6,38.7,0.33,0.01,0.02,0.94
1697352487.39,-0.16,0.23,0.95,-1.1,2.6,38.7,0.33,0.01,0.02,0.94
1697352487.4,-0.09,0.92,0.96,-8.8,2.7,37.1,0.33,0,0.02,0.94
1697352487.41,-0.1,1.19,1.11,-11.5,3,38,0.32,0,0.02,0.95
1697352487.42,-0.07,1.3,0.87,-7.1,3,38.6,0.32,0,0.02,0.95
1697352487.43,0.05,1.12,0.98,4.3,2.6,39.4,0.32,0,0.02,0.95
1697352487.44,-0.1,0.37,1.15,10,2.8,40.5,0.31,0,0.02,0.95
1697352487.45,-0.1,0.37,1.15,7.1,2.3,41.5,0.31,0,0.02,0.95
1697352487.46,-0.1,0.53,1.07,-0.2,2,40.8,0.31,0,0.02,0.95
1697352487.47,-0.23,0.76,0.96,-6.4,1.4,40.5,0.3,0,0.02,0.95
1697352487.48,-0.07,1.16,0.59,-8.3,1.5,40.7,0.3,0,0.02,0.95
1697352487.49,-0.09,1.26,0.92,-3.1,1.4,41.4,0.3,0,0.02,0.96
1697352487.5,-0.2,1,1.29,3,1.5,42.3,0.29,0,0.02,0.96
1697352487.51,0.02,0.8,0.88,7.8,0.4,42.7,0.29,0,0.02,0.96
1697352487.52,-0.1,0.63,0.89,7.3,0.5,43.3,0.28,0,0.02,0.96
1697352487.53,-0.15,0.54,0.96,1.9,1.1,43.5,0.28,0,0.02,0.96
1697352487.54,-0.12,0.79,1.14,-5,1.5,43.3,0.28,0,0.02,0.96
1697352487.55,-0.18,1.09,0.78,-7.4,1.7,43.2,0.27,0,0.02,0.96
1697352487.56,-0.12,1.24,0.82,-6.3,1.8,44.2,0.27,0,0.02,0.96
1697352487.57,-0.03,1.29,0.9,-1.6,2.3,45.7,0.27,0,0.02,0.96
1697352487.58,-0.12,0.93,1.28,5.1,1.9,46.6,0.26,0,0.02,0.97
1697352487.59,-0.16,0.85,1.13,8,1.3,46.7,0.26,0,0.02,0.97
1697352487.6,-0.11,0.74,1.15,5.7,1.1,47.1,0.25,0,0.02,0.97
1697352487.61,-0.14,0.8,0.96,-2.3,0,47.1,0.25,0,0.02,0.97
1697352487.62,-0.15,0.95,1.11,-2.7,0.6,47.1,0.24,0,0.02,0.97
1697352487.63,-0.08,1.33,1.29,0.9,0.8,47.7,0.24,0,0.02,0.97
1697352487.64,-0.06,0.84,0.74,4.2,2.8,46.9,0.24,0,0.02,0.97
1697352487.65,-0.1,1.11,0.76,5.4,4.1,46.9,0.23,0,0.02,0.97
1697352487.66,-0.1,1.11,0.76,5.4,4.1,46.9,0.23,0,0.02,0.97
1697352487.67,-0.1,1.11,0.76,5.4,4.1,46.9,0.23,0,0.02,0.97
1697352487.68,-0.1,1.11,0.76,5.4,4.1,46.9,0.23,0,0.02,0.97
1697352487.69,-0.1,1.11,0.76,5.4,4.1,46.9,0.23,0,0.02,0.97
1697352487.7,-0.1,1.11,0.76,5.4,4.1,46.9,0.23,0,0.02,0.97
1697352487.71,-0.1,1.11,0.76,5.4,4.1,46.9,0.23,0,0.02,0.97
1697352487.72,-0.1,1.11,0.76,5.4,4.1,46.9,0.23,0,0.02,0.97
1697352487.73,-0.1,1.11,0.76,5.4,4.1,46.9,0.23,0,0.02,0.97
1697352487.74,-0.1,1.11,0.76,5.4,4.1,46.9,0.23,0,0.02,0.97
1697352487.75,-0.1,1.11,0.76,5.4,4.1,46.9,0.23,0,0.02,0.97
1697352487.76,-0.1,1.11,0.76,5.4,4.1,46.9,0.23,0,0.02,0.97
1697352487.77,-0.1,1.11,0.76,5.4,4.1,46.9,0.23,0,0.02,0.97
1697352487.78,-0.1,1.11,0.76,5.4,4.1,46.9,0.23,0,0.02,0.97
1697352487.79,-0.1,1.11,0.76,5.4,4.1,46.9,0.23,0,0.02,0.97
1697352487.8,-0.1,1.11,0.76,5.4,4.1,46.9,0.23,0,0.02,0.97
1697352487.81,-0.1,1.11,0.76,5.4,4.1,46.9,0.23,0,0.02,0.97
1697352487.82,-0.1,1.11,0.76,5.4,4.1,46.9,0.23,0,0.02,0.97
1697352487.83,-0.1,1.11,0.76,5.4,4.1,46.9,0.23,0,0.02,0.97
1697352487.84,-0.1,1.11,0.76,5.4,4.1,46.9,0.23,0,0.02,0.97
1697352487.85,-0.1,1.11,0.76,5.4,4.1,46.9,0.23,0,0.02,0.97
1697352487.86,-0.1,1.11,0.76,5.4,4.1,46.9,0.23,0,0.02,0.97
1697352487.87,-0.1,1.11,0.76,5.4,4.1,46.9,0.23,0,0.02,0.97
1697352487.88,-0.1,1.11,0.76,5.4,4.1,46.9,0.23,0,0.02,0.97
1697352487.89,-0.1,1.11,0.76,5.4,4.1,46.9,0.23,0,0.02,0.97
1697352487.9,-0.1,1.11,0.76,5.4,4.1,46.9,0.23,0,0.02,0.97
1697352487.91,-0.1,1.11,0.76,5.4,4.1,46.9,0.23,0,0.02,0.97
1697352487.92,-0.1,1.11,0.76,5.4,4.1,46.9,0.23,0,0.02,0.97
1697352487.93,-0.1,1.11,0.76,5.4,4.1,46.9,0.23,0,0.02,0.97
1697352487.94,-0.1,1.11,0.76,5.4,4.1,46.9,0.23,0,0.02,0.97
1697352487.95,-0.1,1.11,0.76,5.4,4.1,46.9,0.23,0,0.02,0.97
1697352487.96,-0.1,1.11,0.76,5.4,4.1,46.9,0.23,0,0.02,0.97
1697352487.97,-0.1,1.11,0.76,5.4,4.1,46.9,0.23,0,0.02,0.97
1697352487.98,-0.1,1.11,0.76,5.4,4.1,46.9,0.23,0,0.02,0.97
1697352487.99,-0.1,1.11,0.76,5.4,4.1,46.9,0.23,0,0.02,0.97
1697352488,-0.1,1.11,0.76,5.4,4.1,46.9,0.23,0,0.02,0.97
1697352488.01,-0.1,1.11,0.76,5.4,4.1,46.9,0.23,0,0.02,0.97
1697352488.02,-0.1,1.11,0.76,5.4,4.1,46.9,0.23,0,0.02,0.97
1697352488.03,-0.1,1.11,0.76,5.4,4.1,46.9,0.23,0,0.02,0.97
1697352488.04,-0.1,1.11,0.76,5.4,4.1,46.9,0.23,0,0.02,0.97
1697352488.05,-0.1,1.11,0.76,5.4,4.1,46.9,0.23,0,0.02,0.97
1697352488.06,-0.1,1.11,0.76,5.4,4.1,46.9,0.23,0,0.02,0.97
1697352488.07,-0.1,1.11,0.76,5.4,4.1,46.9,0.23,0,0.02,0.97
1697352488.08,-0.1,1.11,0.76,5.4,4.1,46.9,0.23,0,0.02,0.97
1697352488.09,-0.1,1.11,0.76,5.4,4.1,46.9,0.23,0,0.02,0.97
1697352488.1,-0.1,1.11,0.76,5.4,4.1,46.9,0.23,0,0.02,0.97
1697352488.11,-0.1,1.11,0.76,5.4,4.1,46.9,0.23,0,0.02,0.97
1697352488.12,-0.1,1.11,0.76,5.4,4.1,46.9,0.23,0,0.02,0.97
1697352488.13,-0.1,1.11,0.76,5.4,4.1,46.9,0.23,0,0.02,0.97
1697352488.14,-0.1,1.11,0.76,5.4,4.1,46.9,0.23,0,0.02,0.97
1697352488.15,-0.1,1.11,0.76,5.4,4.1,46.9,0.23,0,0.02,0.97
1697352488.16,-0.1,1.11,0.76,5.4,4.1,46.9,0.23,0,0.02,0.97
1697352488.17,-0.1,1.11,0.76,5.4,4.1,46.9,0.23,0,0.02,0.97
1697352488.18,-0.1,1.11,0.76,5.4,4.1,46.9,0.23,0,0.02,0.97
1697352488.19,-0.1,1.11,0.76,5.4,4.1,46.9,0.23,0,0.02,0.97
1697352488.2,-0.1,1.11,0.76,5.4,4.1,46.9,0.23,0,0.02,0.97
1697352488.21,-0.1,1.11,0.76,5.4,4.1,46.9,0.23,0,0.02,0.97
1697352488.22,-0.1,1.11,0.76,5.4,4.1,46.9,0.23,0,0.02,0.97
1697352488.23,-0.1,1.11,0.76,5.4,4.1,46.9,0.23,0,0.02,0.97
1697352488.24,-0.1,1.11,0.76,5.4,4.1,46.9,0.23,0,0.02,0.97
1697352488.25,-0.1,1.11,0.76,5.4,4.1,46.9,0.23,0,0.02,0.97
1697352488.26,-0.1,1.11,0.76,5.4,4.1,46.9,0.23,0,0.02,0.97
1697352488.27,-0.1,1.11,0.76,5.4,4.1,46.9,0.23,0,0.02,0.97
1697352488.28,-0.1,1.11,0.76,5.4,4.1,46.9,0.23,0,0.02,0.97
1697352488.29,-0.1,1.11,0.76,5.4,4.1,46.9,0.23,0,0.02,0.97
1697352488.3,-0.1,1.11,0.76,5.4,4.1,46.9,0.23,0,0.02,0.97
1697352488.31,-0.1,1.11,0.76,5.4,4.1,46.9,0.23,0,0.02,0.97
1697352488.32,-0.1,1.11,0.76,5.4,4.1,46.9,0.23,0,0.02,0.97
1697352488.33,-0.1,1.11,0.76,5.4,4.1,46.9,0.23,0,0.02,0.97
1697352488.34,-0.1,1.11,0.76,5.4,4.1,46.9,0.23,0,0.02,0.97
1697352488.35,-0.1,1.11,0.76,5.4,4.1,46.9,0.23,0,0.02,0.97
1697352488.36,-0.1,1.11,0.76,5.4,4.1,46.9,0.23,0,0.02,0.97
1697352488.37,-0.1,1.11,0.76,5.4,4.1,46.9,0.23,0,0.02,0.97
1697352488.38,-0.1,1.11,0.76,5.4,4.1,46.9,0.23,0,0.02,0.97
1697352488.39,-0.1,1.11,0.76,5.4,4.1,46.9,0.23,0,0.02,0.97
1697352488.4,-0.1,1.11,0.76,5.4,4.1,46.9,0.23,0,0.02,0.97
1697352488.41,-0.1,1.11,0.76,5.4,4.1,46.9,0.23,0,0.02,0.97
1697352488.42,-0.1,1.11,0.76,5.4,4.1,46.9,0.23,0,0.02,0.97
1697352488.43,-0.1,1.11,0.76,5.4,4.1,46.9,0.23,0,0.02,0.97
1697352488.44,-0.1,1.11,0.76,5.4,4.1,46.9,0.23,0,0.02,0.97
1697352488.45,-0.1,1.11,0.76,5.4,4.1,46.9,0.23,0,0.02,0.97
1697352488.46,-0.1,1.11,0.76,5.4,4.1,46.9,0.23,0,0.02,0.97
1697352488.47,-0.1,1.11,0.76,5.4,4.1,46.9,0.23,0,0.02,0.97
1697352488.48,-0.1,1.11,0.76,5.4,4.1,46.9,0.23,0,0.02,0.97
1697352488.49,-0.1,1.11,0.76,5.4,4.1,46.9,0.23,0,0.02,0.97
1697352488.5,-0.1,1.11,0.76,5.4,4.1,46.9,0.23,0,0.02,0.97
1697352488.51,-0.1,1.11,0.76,5.4,4.1,46.9,0.23,0,0.02,0.97
1697352488.52,-0.1,1.11,0.76,5.4,4.1,46.9,0.23,0,0.02,0.97
1697352488.53,-0.1,1.11,0.76,5.4,4.1,46.9,0.23,0,0.02,0.97
1697352488.54,-0.1,1.11,0.76,5.4,4.1,46.9,0.23,0,0.02,0.97
1697352488.55,-0.1,1.11,0.76,5.4,4.1,46.9,0.23,0,0.02,0.97
1697352488.56,-0.1,1.11,0.76,5.4,4.1,46.9,0.23,0,0.02,0.97
1697352488.57,-0.1,1.11,0.76,5.4,4.1,46.9,0.23,0,0.02,0.97
1697352488.58,-0.1,1.11,0.76,5.4,4.1,46.9,0.23,0,0.02,0.97
1697352488.59,-0.1,1.11,0.76,5.4,4.1,46.9,0.23,0,0.02,0.97
1697352488.6,-0.1,1.11,0.76,5.4,4.1,46.9,0.23,0,0.02,0.97
1697352488.61,-0.1,1.11,0.76,5.4,4.1,46.9,0.23,0,0.02,0.97
1697352488.62,-0.1,1.11,0.76,5.4,4.1,46.9,0.23,0,0.02,0.97
1697352488.63,-0.1,1.11,0.76,5.4,4.1,46.9,0.23,0,0.02,0.97
1697352488.64,-0.1,1.11,0.76,5.4,4.1,46.9,0.23,0,0.02,0.97
1697352488.65,-0.1,1.11,0.76,5.4,4.1,46.9,0.23,0,0.02,0.97
1697352488.66,-0.1,1.11,0.76,5.4,4.1,46.9,0.23,0,0.02,0.97
1697352488.67,-0.1,1.11,0.76,5.4,4.1,46.9,0.23,0,0.02,0.97
1697352488.68,-0.1,1.11,0.76,5.4,4.1,46.9,0.23,0,0.02,0.97
1697352488.69,-0.1,1.11,0.76,5.4,4.1,46.9,0.23,0,0.02,0.97
1697352488.7,-0.1,1.11,0.76,5.4,4.1,46.9,0.23,0,0.02,0.97
1697352488.71,-0.1,1.11,0.76,5.4,4.1,46.9,0.23,0,0.02,0.97
1697352488.72,-0.1,1.11,0.76,5.4,4.1,46.9,0.23,0,0.02,0.97
1697352488.73,-0.1,1.11,0.76,5.4,4.1,46.9,0.23,0,0.02,0.97
1697352488.74,-0.1,1.11,0.76,5.4,4.1,46.9,0.23,0,0.02,0.97
1697352488.75,-0.1,1.11,0.76,5.4,4.1,46.9,0.23,0,0.02,0.97
1697352488.76,-0.1,1.11,0.76,5.4,4.1,46.9,0.23,0,0.02,0.97
1697352488.77,-0.1,1.11,0.76,5.4,4.1,46.9,0.23,0,0.02,0.97
1697352488.78,-0.1,1.11,0.76,5.4,4.1,46.9,0.23,0,0.02,0.97
1697352488.79,-0.1,1.11,0.76,5.4,4.1,46.9,0.23,0,0.02,0.97
1697352488.8,-0.1,1.11,0.76,5.4,4.1,46.9,0.23,0,0.02,0.97
1697352488.81,-0.1,1.11,0.76,5.4,4.1,46.9,0.23,0,0.02,0.97
1697352488.82,-0.1,1.11,0.76,5.4,4.1,46.9,0.23,0,0.02,0.97
1697352488.83,-0.1,1.11,0.76,5.4,4.1,46.9,0.23,0,0.02,0.97
1697352488.84,-0.1,1.11,0.76,5.4,4.1,46.9,0.23,0,0.02,0.97
1697352488.85,-0.1,1.11,0.76,5.4,4.1,46.9,0.23,0,0.02,0.97
1697352488.86,-0.1,1.11,0.76,5.4,4.1,46.9,0.23,0,0.02,0.97
1697352488.87,-0.1,1.11,0.76,5.4,4.1,46.9,0.23,0,0.02,0.97
1697352488.88,-0.1,1.11,0.76,5.4,4.1,46.9,0.23,0,0.02,0.97
1697352488.89,-0.1,1.11,0.76,5.4,4.1,46.9,0.23,0,0.02,0.97
1697352488.9,-0.1,1.11,0.76,5.4,4.1,46.9,0.23,0,0.02,0.97
1697352488.91,-0.1,1.11,0.76,5.4,4.1,46.9,0.23,0,0.02,0.97
1697352488.92,-0.1,1.11,0.76,5.4,4.1,46.9,0.23,0,0.02,0.97
1697352488.93,-0.1,1.11,0.76,5.4,4.1,46.9,0.23,0,0.02,0.97
1697352488.94,-0.1,1.11,0.76,5.4,4.1,46.9,0.23,0,0.02,0.97
1697352488.95,-0.1,1.11,0.76,5.4,4.1,46.9,0.23,0,0.02,0.97
1697352488.96,-0.1,1.11,0.76,5.4,4.1,46.9,0.23,0,0.02,0.97
1697352488.97,-0.1,1.11,0.76,5.4,4.1,46.9,0.23,0,0.02,0.97
1697352488.98,-0.13,1.39,1.17,0.9,-3.3,50.7,0.3,0.01,-0.02,-0.95
1697352488.99,-0.14,1.02,1.2,4.9,-1.6,50,0.3,0.01,-0.02,-0.95
1697352489,-0.1,0.96,0.93,6.6,0,48.4,0.31,0.01,-0.02,-0.95
1697352489.01,-0.15,0.83,1,0.6,3.2,46.8,0.31,0.01,-0.02,-0.95
1697352489.02,0.03,0.98,0.72,-2.3,4.3,46.1,0.32,0.01,-0.02,-0.95
1697352489.03,-0.05,1.22,1.24,-4,4.5,45.9,0.32,0.01,-0.02,-0.95
1697352489.04,-0.04,1.23,0.97,-4.3,4.1,47.2,0.32,0.01,-0.02,-0.95
1697352489.05,-0.08,1.21,0.89,-3.6,2.9,48.3,0.33,0.01,-0.02,-0.94
1697352489.06,0.16,1.26,0.91,-2.2,1.8,50.1,0.33,0.01,-0.02,-0.94
1697352489.07,0.13,1.12,0.97,-0.1,0.6,51.3,0.34,0.01,-0.02,-0.94
1697352489.08,0.02,0.98,0.98,0.6,-0.3,52.4,0.34,0.01,-0.02,-0.94
1697352489.09,-0.09,0.92,1.08,-0.2,-1.1,53.6,0.35,0.01,-0.02,-0.94
1697352489.1,-0.07,0.89,0.94,-1.6,-0.6,53.4,0.35,0.01,-0.02,-0.94
1697352489.11,0.02,1.01,0.75,-3.1,0.2,53.1,0.35,0.01,-0.02,-0.94
