time,accel_x,accel_y,accel_z,gyro_x,gyro_y,gyro_z,quat_w,quat_x,quat_y,quat_z
1697352766.45,0.06,0.31,1.01,-3.3,-3,49.3,0.71,0.05,-0.01,0.7
1697352766.46,0.07,0.39,0.98,-3.7,-1.9,45.2,0.71,0.05,-0.01,0.7
1697352766.47,0.07,0.39,0.98,-3.7,-1.9,45.2,0.71,0.05,-0.01,0.7
1697352766.48,0.09,0.45,1,-1,-0.6,43.5,0.7,0.05,-0.01,0.71
1697352766.49,0.1,0.29,0.9,1.4,0.4,42.1,0.7,0.05,-0.01,0.71
1697352766.5,0.09,0.16,1.01,1.4,0.4,42.1,0.7,0.05,-0.01,0.71
1697352766.51,0.09,0.16,1.01,1.9,1.4,40.8,0.7,0.05,-0.01,0.72
1697352766.52,0.12,0.2,0.98,-3.7,1.4,37.3,0.69,0.05,-0.01,0.72
1697352766.53,0.12,0.2,0.98,-3.7,1.4,37.3,0.69,0.05,-0.01,0.72
1697352766.54,0.08,0.3,1.14,-3.8,1,36.3,0.69,0.05,-0.01,0.72
1697352766.55,0.04,0.35,1.01,-0.7,1.1,35.1,0.69,0.05,-0.01,0.73
1697352766.56,0.18,0.32,1.07,2.6,0.9,34,0.68,0.05,-0.01,0.73
1697352766.57,0.14,0.18,1.06,3.3,0.6,32.8,0.68,0.05,-0.01,0.73
1697352766.58,0.17,0.04,0.89,1.3,0.6,31.4,0.68,0.05,-0.01,0.73
1697352766.59,0.13,0.03,1.05,-1.1,0.2,30,0.68,0.05,-0.01,0.73
1697352766.6,0.1,0.09,0.88,-3.2,0.1,28.7,0.68,0.05,-0.01,0.74
1697352766.61,0.1,0.18,0.97,-2.9,0.3,27.6,0.67,0.05,-0.01,0.74
1697352766.62,0.06,0.31,0.89,-2.9,0.3,27.6,0.67,0.05,-0.01,0.74
1697352766.63,0.06,0.31,0.89,-2.9,0.3,27.6,0.67,0.05,-0.01,0.74
1697352766.64,0.06,0.31,0.89,-2.9,0.3,27.6,0.67,0.05,-0.01,0.74
1697352766.65,0.06,0.31,0.89,-2.9,0.3,27.6,0.67,0.05,-0.01,0.74
1697352766.66,0.06,0.31,0.89,-2.9,0.3,27.6,0.67,0.05,-0.01,0.74
1697352766.67,0.06,0.31,0.89,-2.9,0.3,27.6,0.67,0.05,-0.01,0.74
1697352766.68,0.06,0.31,0.89,-2.9,0.3,27.6,0.67,0.05,-0.01,0.74
1697352766.69,0.06,0.31,0.89,-2.9,0.3,27.6,0.67,0.05,-0.01,0.74
1697352766.7,0.06,0.31,0.89,-2.9,0.3,27.6,0.67,0.05,-0.01,0.74
1697352766.71,0.06,0.31,0.89,-2.9,0.3,27.6,0.67,0.05,-0.01,0.74
1697352766.72,0.06,0.31,0.89,-2.9,0.3,27.6,0.67,0.05,-0.01,0.74
1697352766.73,0.06,0.31,0.89,-2.9,0.3,27.6,0.67,0.05,-0.01,0.74
1697352766.74,0.06,0.31,0.89,-2.9,0.3,27.6,0.67,0.05,-0.01,0.74
1697352766.75,0.06,0.31,0.89,-2.9,0.3,27.6,0.67,0.05,-0.01,0.74
1697352766.76,0.06,0.18,1.05,-1.2,-2.1,17.8,0.65,0.05,-0.01,0.76
1697352766.77,0.08,0.08,0.98,-0.4,-1.3,16.8,0.65,0.05,-0.01,0.76
1697352766.78,0.08,0.08,0.98,-0.4,-1.3,16.8,0.65,0.05,-0.01,0.76
1697352766.79,0.04,0.07,0.86,-0.2,0,16.1,0.65,0.05,-0.01,0.76
1697352766.8,0.04,0.07,0.86,-0.2,0,16.1,0.65,0.05,-0.01,0.76
1697352766.81,0.04,0.01,0.96,0.1,2.1,14.5,0.65,0.05,-0.01,0.76
1697352766.82,0.04,0.01,0.96,-0.3,2.5,13.8,0.65,0.05,-0.01,0.76
1697352766.83,0.02,0.07,1.1,-0.9,2.3,13,0.65,0.05,-0.01,0.76
1697352766.84,0.02,0.07,1.1,-1,2.3,12.2,0.65,0.05,-0.01,0.76
1697352766.85,0.17,0.01,0.88,-0.5,1.7,11.4,0.64,0.05,-0.01,0.76
1697352766.86,0.1,0.04,0.94,-0.3,1.5,11.3,0.64,0.05,-0.01,0.76
1697352766.87,0.07,0.13,1.06,-0.1,0.9,10.4,0.64,0.05,-0.01,0.76
1697352766.88,0.04,0.15,1.12,0.1,0.2,10,0.64,0.05,-0.01,0.76
1697352766.89,0.08,0.16,1,0.6,-0.3,9.5,0.64,0.05,-0.01,0.77
1697352766.9,0.1,0.09,0.93,1.5,-0.5,9.5,0.64,0.05,-0.01,0.77
1697352766.91,0.15,0.12,1.08,1.4,-0.3,9.6,0.64,0.05,-0.01,0.77
1697352766.92,0.1,0.09,0.9,1.1,0,9.8,0.64,0.05,-0.01,0.77
1697352766.93,0.01,0.09,0.92,0.5,0.3,9.9,0.64,0.05,-0.01,0.77
1697352766.94,-0.01,0.1,1.07,-1,0.3,10,0.64,0.05,-0.01,0.77
1697352766.95,0.08,0.14,0.97,-3.1,1,10,0.64,0.05,-0.01,0.77
1697352766.96,0.08,0.22,1.2,-3.8,1.8,10.2,0.64,0.05,-0.01,0.77
1697352766.97,0.14,0.18,0.86,-1.4,1.7,10,0.64,0.05,-0.01,0.77
1697352766.98,0.09,0.09,0.99,1.5,1.3,9.6,0.64,0.05,-0.01,0.77
1697352766.99,0.1,-0.03,0.99,0.7,0.2,8.4,0.63,0.05,-0.01,0.77
1697352767,0.08,-0.06,1.19,-0.6,-0.2,7.5,0.63,0.05,-0.01,0.77
1697352767.01,0.09,0.02,1.22,-1.5,-0.2,7.2,0.63,0.05,-0.01,0.77
1697352767.02,0.07,0.11,0.91,-0.2,-0.3,7.1,0.63,0.05,-0.01,0.77
1697352767.03,0.06,0.09,0.93,1.8,0.2,7.1,0.63,0.05,-0.01,0.77
1697352767.04,-0.04,0.09,1.11,2.2,0.8,7.3,0.63,0.05,-0.01,0.77
1697352767.05,0.06,0.03,0.85,1.5,1.1,7.2,0.63,0.05,-0.01,0.77
1697352767.06,0.05,-0.01,1.3,-0.4,1.9,7.3,0.63,0.05,-0.01,0.77
1697352767.07,0.08,0.03,1.1,-0.3,2.3,7.3,0.63,0.05,-0.01,0.77
1697352767.08,0.08,0.09,0.88,0.1,2.7,7.3,0.63,0.05,-0.01,0.77
1697352767.09,0.04,0.14,1.12,1.2,2.5,7.1,0.63,0.05,-0.01,0.78
1697352767.1,0.03,0.19,1.12,2,2.2,7.3,0.63,0.05,-0.01,0.78
1697352767.11,0.04,0.01,1.2,2.5,1.4,7.1,0.63,0.05,-0.01,0.78
1697352767.12,0.23,0,0.91,1.4,0.6,7.1,0.63,0.05,-0.01,0.78
1697352767.13,0.1,0.01,0.96,0.7,-0.6,6.9,0.63,0.05,-0,0.78
1697352767.14,0.1,0.01,0.96,0.7,-0.6,6.9,0.63,0.05,-0,0.78
1697352767.15,0.1,0.01,0.96,0.7,-0.6,6.9,0.63,0.05,-0,0.78
1697352767.16,0.1,0.01,0.96,0.7,-0.6,6.9,0.63,0.05,-0,0.78
1697352767.17,0.1,0.01,0.96,0.7,-0.6,6.9,0.63,0.05,-0,0.78
1697352767.18,0.1,0.01,0.96,0.7,-0.6,6.9,0.63,0.05,-0,0.78
1697352767.19,0.1,0.01,0.96,0.7,-0.6,6.9,0.63,0.05,-0,0.78
1697352767.2,0.1,0.01,0.96,0.7,-0.6,6.9,0.63,0.05,-0,0.78
1697352767.21,0.1,0.01,0.96,0.7,-0.6,6.9,0.63,0.05,-0,0.78
1697352767.22,0.1,0.01,0.96,0.7,-0.6,6.9,0.63,0.05,-0,0.78
1697352767.23,0.1,0.01,0.96,0.7,-0.6,6.9,0.63,0.05,-0,0.78
1697352767.24,0.1,0.01,0.96,0.7,-0.6,6.9,0.63,0.05,-0,0.78
1697352767.25,0.1,0.01,0.96,0.7,-0.6,6.9,0.63,0.05,-0,0.78
1697352767.26,0.1,0.01,0.96,0.7,-0.6,6.9,0.63,0.05,-0,0.78
1697352767.27,-0.05,0.07,1.09,1.7,3.1,6.5,0.62,0.05,-0.01,0.78
1697352767.28,0.02,0.09,1.04,1.3,2.6,6.5,0.62,0.05,-0.01,0.78
1697352767.29,-0.02,0.1,1.03,1.2,2.3,6.5,0.62,0.05,-0,0.78
1697352767.3,-0.04,0.04,1.09,0.7,0.8,6.5,0.62,0.05,-0,0.78
1697352767.31,-0.17,0.13,0.88,0.7,0.8,6.5,0.62,0.05,-0,0.78
1697352767.32,-0.18,0.07,0.81,0,0.4,6.5,0.62,0.05,-0,0.78
1697352767.33,-0.55,0.11,1.22,-0.5,0.5,6.3,0.62,0.05,-0,0.78
1697352767.34,-0.45,0.06,0.99,-0.4,0.7,6.3,0.62,0.05,-0,0.78
1697352767.35,-0.45,0.06,0.99,-0.4,0.7,6.3,0.62,0.05,-0,0.78
1697352767.36,-0.26,-0.01,0.97,-0.5,1.5,5.6,0.62,0.05,-0,0.78
1697352767.37,-0.26,-0.01,0.97,-0.5,1.5,5.6,0.62,0.05,-0,0.78
1697352767.38,0.17,-0.01,1.21,-2.6,-1.4,4.2,0.62,0.05,-0,0.79
1697352767.39,-0.02,0,0.93,-1.3,-2.1,3.8,0.62,0.05,-0,0.79
1697352767.4,-0.03,0.06,0.44,-0.4,-2,3.6,0.62,0.05,-0.01,0.79
1697352767.41,-0.03,-0.17,1.22,-0.4,-2,3.6,0.62,0.05,-0.01,0.79
1697352767.42,-0.04,-0.23,0.82,-0.9,-1.3,1.4,0.62,0.05,-0.01,0.79
1697352767.43,-0.05,-0.22,0.32,-0.9,-1.3,1.4,0.62,0.05,-0.01,0.79
1697352767.44,-0.18,-0.15,1.19,-4.4,1.1,-0.5,0.62,0.05,-0.01,0.79
1697352767.45,-0.18,-0.15,1.19,-4.4,1.1,-0.5,0.62,0.05,-0.01,0.79
1697352767.46,0.05,-0.03,0.7,-1.3,2.5,-2.1,0.62,0.05,-0.01,0.79
1697352767.47,-0.2,-0.08,1.24,-1.3,2.5,-2.1,0.62,0.05,-0.01,0.79
1697352767.48,0,-0.3,1.1,0.5,2.1,-4,0.62,0.05,-0.01,0.79
1697352767.49,-0.05,-0.36,1.1,-0.7,1.4,-5.1,0.62,0.05,-0.01,0.79
1697352767.5,-0.05,-0.36,1.1,-0.7,1.4,-5.1,0.62,0.05,-0.01,0.79
1697352767.51,0.09,-0.29,0.8,-2.6,1.1,-6.3,0.62,0.05,-0.01,0.78
1697352767.52,-0.06,-0.24,0.89,-2.9,0.1,-7.5,0.62,0.05,-0.01,0.78
1697352767.53,-0.06,-0.24,0.89,-3.1,-0.5,-8.7,0.62,0.05,-0.01,0.78
1697352767.54,-0.05,-0.21,0.97,-3,-0.8,-8.9,0.62,0.05,-0.01,0.78
1697352767.55,-0.16,-0.32,1.31,-1,-1.8,-12,0.62,0.05,-0.01,0.78
1697352767.56,-0.07,-0.32,1.03,-0.7,-2.1,-13.6,0.62,0.05,-0.01,0.78
1697352767.57,-0.03,-0.52,1.08,-1.2,-2.4,-15.8,0.62,0.05,-0.01,0.78
1697352767.58,-0.17,-0.5,0.93,-2.8,-2.4,-17.9,0.62,0.05,-0.01,0.78
1697352767.59,-0.25,-0.51,1.06,-3.3,-2.4,-19.9,0.62,0.05,-0.01,0.78
1697352767.6,-0.09,-0.64,1.09,-3.8,-2.4,-22.7,0.63,0.05,-0.01,0.78
1697352767.61,-0.06,-0.62,1.37,-4.6,-1.5,-25.2,0.63,0.05,-0.01,0.78
1697352767.62,0.06,-0.47,0.77,-4.5,-1.6,-27.4,0.63,0.05,-0.01,0.78
1697352767.63,-0.03,-0.61,0.94,-4.3,-1.6,-27.8,0.63,0.05,-0.01,0.77
1697352767.64,0.09,-0.55,0.83,-2.5,-2.6,-30.8,0.63,0.05,-0.01,0.77
1697352767.65,0.03,-0.75,1.17,-4.1,-3.3,-32.2,0.64,0.05,-0.01,0.77
1697352767.66,0.11,-0.72,0.9,-5.9,-4,-33.8,0.64,0.05,-0.01,0.77
1697352767.67,0.11,-0.72,0.9,-5.9,-4,-33.8,0.64,0.05,-0.01,0.77
1697352767.68,0.11,-0.72,0.9,-5.9,-4,-33.8,0.64,0.05,-0.01,0.77
1697352767.69,0.11,-0.72,0.9,-5.9,-4,-33.8,0.64,0.05,-0.01,0.77
1697352767.7,0.11,-0.72,0.9,-5.9,-4,-33.8,0.64,0.05,-0.01,0.77
1697352767.71,0.11,-0.72,0.9,-5.9,-4,-33.8,0.64,0.05,-0.01,0.77
1697352767.72,0.11,-0.72,0.9,-5.9,-4,-33.8,0.64,0.05,-0.01,0.77
1697352767.73,0.11,-0.72,0.9,-5.9,-4,-33.8,0.64,0.05,-0.01,0.77
1697352767.74,0.11,-0.72,0.9,-5.9,-4,-33.8,0.64,0.05,-0.01,0.77
1697352767.75,0.11,-0.72,0.9,-5.9,-4,-33.8,0.64,0.05,-0.01,0.77
1697352767.76,0.11,-0.72,0.9,-5.9,-4,-33.8,0.64,0.05,-0.01,0.77
1697352767.77,0.11,-0.72,0.9,-5.9,-4,-33.8,0.64,0.05,-0.01,0.77
1697352767.78,0.11,-0.72,0.9,-5.9,-4,-33.8,0.64,0.05,-0.01,0.77
1697352767.79,0.11,-0.72,0.9,-5.9,-4,-33.8,0.64,0.05,-0.01,0.77
1697352767.8,0.11,-0.72,0.9,-5.9,-4,-33.8,0.64,0.05,-0.01,0.77
1697352767.81,0.11,-0.72,0.9,-5.9,-4,-33.8,0.64,0.05,-0.01,0.77
1697352767.82,0.11,-0.72,0.9,-5.9,-4,-33.8,0.64,0.05,-0.01,0.77
1697352767.83,0.11,-0.72,0.9,-5.9,-4,-33.8,0.64,0.05,-0.01,0.77
1697352767.84,0.11,-0.72,0.9,-5.9,-4,-33.8,0.64,0.05,-0.01,0.77
1697352767.85,0.11,-0.72,0.9,-5.9,-4,-33.8,0.64,0.05,-0.01,0.77
1697352767.86,-0.15,-0.64,1.09,-0.7,-1.6,-47.1,0.69,0.05,-0.01,0.72
1697352767.87,-0.16,-0.78,0.69,-1.4,-1.2,-47.9,0.69,0.05,-0.01,0.72
1697352767.88,-0.18,-0.82,1.18,-1.7,-1,-49.9,0.7,0.05,-0.01,0.72
1697352767.89,-0.09,-0.86,1.28,-2,-0.7,-50.9,0.7,0.05,-0.01,0.71
1697352767.9,-0.14,-0.71,1.18,-3,-0.8,-52.1,0.7,0.05,-0.01,0.71
1697352767.91,-0.26,-0.72,1.42,-3.9,-1.6,-51.9,0.71,0.05,-0.01,0.71
1697352767.92,-0.08,-0.61,0.92,-4,-2.4,-51.4,0.71,0.05,-0.01,0.7
1697352767.93,-0.25,-0.72,1.21,-4.4,-2.3,-51.8,0.71,0.05,-0.01,0.7
1697352767.94,-0.18,-0.59,0.62,-3.9,-1.4,-51.7,0.72,0.05,-0.01,0.7
1697352767.95,-0.17,-0.44,0.86,-0.9,-0.2,-51.7,0.72,0.05,-0.01,0.69
1697352767.96,-0.54,-0.81,0.99,5.7,2.2,-51.1,0.72,0.05,-0.01,0.69
1697352767.97,-0.46,-1.45,1.32,7.7,5.1,-51.7,0.73,0.05,-0,0.69
1697352767.98,-0.55,-1.09,1.7,2.4,5.2,-55.4,0.73,0.05,-0,0.69
1697352767.99,-0.23,-1.53,0.4,-5,5,-56.5,0.73,0.05,-0,0.68
1697352768,-0.32,-0.88,1.11,-10.4,5,-60,0.73,0.05,-0,0.68
1697352768.01,-0.25,-0.95,1.2,-8.8,3.9,-63.3,0.74,0.05,-0,0.68
1697352768.02,-0.38,-1.03,1.53,-5.3,3.4,-66.4,0.74,0.05,-0,0.67
1697352768.03,-0.16,-0.92,0.51,-1,2.2,-70.1,0.74,0.04,-0,0.67
1697352768.04,-0.3,-1.09,1.03,-1,2.2,-70.1,0.75,0.04,-0,0.66
1697352768.05,-0.31,-1.11,1.04,1,0.5,-76.2,0.75,0.04,-0,0.66
1697352768.06,-0.34,-1.11,1.53,0.1,-0.3,-78.6,0.76,0.04,-0,0.65
1697352768.07,-0.1,-1.2,0.71,-1.5,-1.3,-80.3,0.76,0.04,-0,0.65
1697352768.08,-0.23,-1.09,0.77,-3.1,-1.3,-81.7,0.77,0.04,-0,0.64
1697352768.09,-0.29,-0.93,0.83,-2,-1.2,-82.4,0.77,0.04,-0,0.64
1697352768.1,-0.4,-0.9,1.35,-0.2,-0.8,-82.4,0.78,0.04,-0,0.63
1697352768.11,-0.06,-1.04,0.58,1.7,0.1,-81.7,0.78,0.04,-0,0.62
1697352768.12,-0.05,-1.02,1.07,2.4,1.4,-80.9,0.78,0.04,-0,0.62
1697352768.13,-0.03,-0.96,0.97,1.9,1.7,-79.8,0.79,0.04,-0,0.61
1697352768.14,-0.07,-0.93,0.96,0.2,1.7,-78.3,0.79,0.04,-0,0.61
1697352768.15,-0.24,-0.92,1.55,-1.3,1.7,-77.3,0.8,0.04,0,0.6
1697352768.16,-0.06,-0.88,0.61,-1.7,1.6,-76.5,0.8,0.04,0,0.6
1697352768.17,-0.06,-0.88,0.61,-1.7,1.6,-76.5,0.81,0.04,0,0.59
1697352768.18,-0.24,-0.9,0.88,1,2.3,-76.8,0.81,0.04,0,0.58
1697352768.19,-0.24,-0.9,0.88,1,2.3,-76.8,0.81,0.04,0,0.58
1697352768.2,-0.24,-0.9,0.88,1,2.3,-76.8,0.81,0.04,0,0.58
1697352768.21,-0.24,-0.9,0.88,1,2.3,-76.8,0.81,0.04,0,0.58
1697352768.22,-0.24,-0.9,0.88,1,2.3,-76.8,0.81,0.04,0,0.58
1697352768.23,-0.24,-0.9,0.88,1,2.3,-76.8,0.81,0.04,0,0.58
1697352768.24,-0.24,-0.9,0.88,1,2.3,-76.8,0.81,0.04,0,0.58
1697352768.25,-0.24,-0.9,0.88,1,2.3,-76.8,0.81,0.04,0,0.58
1697352768.26,-0.24,-0.9,0.88,1,2.3,-76.8,0.81,0.04,0,0.58
1697352768.27,-0.24,-0.9,0.88,1,2.3,-76.8,0.81,0.04,0,0.58
1697352768.28,-0.24,-0.9,0.88,1,2.3,-76.8,0.81,0.04,0,0.58
1697352768.29,-0.24,-0.9,0.88,1,2.3,-76.8,0.81,0.04,0,0.58
1697352768.3,-0.24,-0.9,0.88,1,2.3,-76.8,0.81,0.04,0,0.58
1697352768.31,-0.24,-0.9,0.88,1,2.3,-76.8,0.81,0.04,0,0.58
1697352768.32,-0.24,-0.9,0.88,1,2.3,-76.8,0.81,0.04,0,0.58
1697352768.33,-0.24,-0.9,0.88,1,2.3,-76.8,0.81,0.04,0,0.58
1697352768.34,-0.24,-0.9,0.88,1,2.3,-76.8,0.86,0.04,0.01,0.5
1697352768.35,0.17,-0.78,0.9,1,1.9,-64.6,0.87,0.04,0.01,0.49
1697352768.36,0.12,-0.69,1.16,-0.1,1.4,-64.6,0.87,0.04,0.01,0.49
1697352768.37,0.08,-0.67,0.96,-1.3,0.9,-64.3,0.87,0.04,0.01,0.49
1697352768.38,0.12,-0.65,1.01,-0.8,0.3,-64.3,0.88,0.04,0.01,0.48
1697352768.39,0.11,-0.61,0.98,0,0.2,-64.1,0.88,0.04,0.01,0.47
1697352768.4,0.03,-0.71,0.78,1.4,-0.1,-63.8,0.88,0.04,0.01,0.47
1697352768.41,0.06,-0.72,1.13,2.1,-0.2,-63.7,0.88,0.04,0.01,0.47
1697352768.42,0.03,-0.7,1.08,1.8,-0.3,-63.3,0.89,0.04,0.01,0.46
1697352768.43,0.05,-0.66,0.96,0.9,-0.2,-62.7,0.89,0.04,0.01,0.46
1697352768.44,0.06,-0.59,0.94,0.4,0.2,-61.4,0.89,0.04,0.01,0.45
1697352768.45,0.2,-0.58,0.96,0.4,0.1,-60.1,0.89,0.04,0.01,0.45
1697352768.46,0.17,-0.48,0.99,0.4,0.1,-60.1,0.89,0.04,0.01,0.44
1697352768.47,0.21,-0.6,0.94,1.4,0.1,-57.1,0.9,0.04,0.01,0.44
1697352768.48,0.13,-0.48,1.03,2,0.4,-55.7,0.9,0.04,0.01,0.43
1697352768.49,0.25,-0.68,0.65,1.9,0.6,-54.5,0.9,0.04,0.01,0.43
1697352768.5,0.11,-0.63,1.19,1.4,1.2,-53.7,0.9,0.04,0.01,0.42
1697352768.51,0.15,-0.52,0.79,0.2,1.3,-53,0.91,0.04,0.01,0.42
1697352768.52,-0.01,-0.53,1.03,-0.5,1.9,-52.2,0.91,0.04,0.01,0.42
1697352768.53,0.05,-0.41,0.99,0.4,2.2,-51.7,0.91,0.04,0.01,0.41
1697352768.54,0.1,-0.54,0.82,1.6,2.7,-50.9,0.91,0.04,0.01,0.41
1697352768.55,0.17,-0.53,0.96,2.4,2.9,-50.3,0.91,0.04,0.01,0.4
1697352768.56,0.17,-0.66,0.99,2.2,3.3,-49.5,0.92,0.04,0.01,0.4
1697352768.57,0.2,-0.56,1.08,2.2,3.3,-49.5,0.92,0.04,0.01,0.4
1697352768.58,0.13,-0.57,1.02,0,3.4,-48.5,0.92,0.04,0.01,0.39
1697352768.59,0.07,-0.47,1.04,0,3.4,-48.5,0.92,0.04,0.02,0.39
1697352768.6,0.22,-0.43,0.81,0.7,2.7,-47.8,0.92,0.04,0.02,0.38
1697352768.61,0.22,-0.43,0.81,0.7,2.7,-47.8,0.92,0.04,0.02,0.38
1697352768.62,0.1,-0.68,1.01,2.7,1.3,-47,0.93,0.04,0.02,0.38
1697352768.63,0.1,-0.56,1.14,2.7,1.3,-47,0.93,0.04,0.02,0.37
1697352768.64,0.12,-0.37,0.89,-0.3,0.5,-46.2,0.93,0.04,0.02,0.37
1697352768.65,0.12,-0.37,0.89,-0.3,0.5,-46.2,0.93,0.04,0.02,0.36
1697352768.66,0.18,-0.6,0.8,2.9,1.4,-44.8,0.93,0.04,0.02,0.36
1697352768.67,0.18,-0.6,0.8,2.9,1.4,-44.8,0.93,0.04,0.02,0.36
1697352768.68,0.15,-0.71,1.01,3.1,1.4,-44.4,0.93,0.04,0.02,0.35
1697352768.69,0.15,-0.71,1.01,0.8,1.4,-43.9,0.94,0.04,0.02,0.35
1697352768.7,0.08,-0.45,1.11,-1.7,1.5,-44.1,0.94,0.04,0.02,0.35
1697352768.71,0.06,-0.39,1.13,-0.5,1.7,-44.2,0.94,0.04,0.02,0.34
1697352768.72,0.14,-0.47,1.04,1.7,1.7,-44.1,0.94,0.04,0.02,0.34
1697352768.73,0.17,-0.65,1,4,1.8,-44.4,0.94,0.04,0.02,0.33
1697352768.74,0.17,-0.65,1,4,1.8,-44.4,0.94,0.04,0.02,0.33
1697352768.75,0.17,-0.65,1,4,1.8,-44.4,0.94,0.04,0.02,0.33
1697352768.76,0.17,-0.65,1,4,1.8,-44.4,0.94,0.04,0.02,0.33
1697352768.77,0.17,-0.65,1,4,1.8,-44.4,0.94,0.04,0.02,0.33
1697352768.78,0.17,-0.65,1,4,1.8,-44.4,0.94,0.04,0.02,0.33
1697352768.79,0.17,-0.65,1,4,1.8,-44.4,0.94,0.04,0.02,0.33
1697352768.8,0.17,-0.65,1,4,1.8,-44.4,0.94,0.04,0.02,0.33
1697352768.81,0.17,-0.65,1,4,1.8,-44.4,0.94,0.04,0.02,0.33
1697352768.82,0.17,-0.65,1,4,1.8,-44.4,0.94,0.04,0.02,0.33
1697352768.83,0.17,-0.65,1,4,1.8,-44.4,0.94,0.04,0.02,0.33
1697352768.84,0.17,-0.65,1,4,1.8,-44.4,0.94,0.04,0.02,0.33
1697352768.85,0.17,-0.65,1,4,1.8,-44.4,0.94,0.04,0.02,0.33
1697352768.86,0.17,-0.65,1,4,1.8,-44.4,0.94,0.04,0.02,0.33
1697352768.87,0.22,-0.26,0.93,3.1,0.9,-40.9,0.96,0.04,0.02,0.29
1697352768.88,0.25,-0.42,0.84,5.7,-0.1,-39,0.96,0.04,0.03,0.28
1697352768.89,0.24,-0.37,1.04,5.1,-1.6,-36.7,0.96,0.04,0.03,0.28
1697352768.9,0.26,-0.43,0.98,3.4,-2.3,-34.8,0.96,0.04,0.03,0.27
1697352768.91,0.16,-0.33,0.99,1.2,-2.7,-33.2,0.96,0.04,0.03,0.27
1697352768.92,0.1,-0.21,0.98,0,-2.6,-31.4,0.96,0.04,0.03,0.27
1697352768.93,0.11,-0.07,1.03,0.5,-1.9,-29.6,0.96,0.04,0.03,0.27
1697352768.94,0.17,-0.12,0.83,3.7,-0.8,-28.1,0.96,0.04,0.03,0.26
1697352768.95,0.18,-0.32,0.98,6.9,0.1,-27.2,0.96,0.04,0.03,0.26
1697352768.96,0.13,-0.58,1.15,4.8,0.2,-26.5,0.96,0.04,0.03,0.26
1697352768.97,0.16,-0.33,0.8,0.4,0.1,-26.6,0.97,0.04,0.03,0.26
1697352768.98,0.33,-0.08,0.69,-3.1,0.4,-26.1,0.97,0.04,0.03,0.25
1697352768.99,0.06,-0.09,1.46,-3.1,0.4,-26.1,0.97,0.04,0.03,0.25
1697352769,0.26,-0.04,0.85,0.3,-0.8,-25.1,0.97,0.04,0.03,0.25
1697352769.01,0.15,-0.21,0.96,3.6,-1.5,-24.4,0.97,0.04,0.03,0.25
1697352769.02,0.12,-0.33,0.94,3.8,-2.2,-23.6,0.97,0.04,0.03,0.25
1697352769.03,0.12,-0.33,0.94,3.8,-2.2,-23.6,0.97,0.04,0.03,0.25
1697352769.04,0.02,-0.26,1.17,2,-2.6,-23.5,0.97,0.04,0.03,0.24
1697352769.05,0.02,-0.26,1.17,-2.1,-3,-23,0.97,0.04,0.03,0.24
1697352769.06,0.04,-0.21,0.96,-3.9,-3,-22.9,0.97,0.04,0.02,0.24
1697352769.07,0.11,0.01,1.21,-3.5,-3,-22.4,0.97,0.04,0.02,0.23
1697352769.08,0.31,-0.19,0.88,-0.5,-2.2,-21.5,0.97,0.04,0.02,0.23
1697352769.09,0.1,-0.3,0.96,2.7,-1.3,-21.1,0.97,0.04,0.02,0.23
1697352769.1,0.08,-0.36,1.02,2.9,-0.4,-20.9,0.97,0.04,0.02,0.23
1697352769.11,0.24,-0.46,1.07,0.7,-0.1,-20.6,0.97,0.04,0.02,0.23
1697352769.12,0.09,-0.41,0.95,-2.9,0.1,-20.8,0.97,0.04,0.02,0.23
1697352769.13,0.11,-0.24,1.03,-4.1,0.4,-21.1,0.97,0.04,0.02,0.22
1697352769.14,0.11,-0.15,1.28,-3.8,1.2,-21.4,0.97,0.04,0.02,0.22
1697352769.15,0.12,-0.19,0.76,-2.1,2,-21.1,0.97,0.04,0.03,0.22
1697352769.16,0.19,-0.29,0.82,-0.1,2.5,-21,0.97,0.04,0.03,0.22
1697352769.17,0.25,-0.43,1.25,0.7,2.7,-21.5,0.98,0.04,0.03,0.22
1697352769.18,0.31,-0.37,0.61,0.2,1.9,-21.9,0.98,0.04,0.03,0.21
1697352769.19,0.11,-0.28,1.23,-0.3,1.2,-22.1,0.98,0.04,0.03,0.21
1697352769.2,0.31,-0.22,1.04,-0.3,0.4,-21.9,0.98,0.04,0.03,0.21
1697352769.21,0.24,-0.18,1.21,0.9,0,-21.5,0.98,0.04,0.03,0.21
1697352769.22,0.15,-0.2,0.76,3.2,-0.5,-20.6,0.98,0.04,0.03,0.21
1697352769.23,0.13,-0.3,1.15,4.4,-0.9,-19.9,0.98,0.04,0.03,0.21
1697352769.24,0.14,-0.24,1.13,4.4,-0.9,-19.9,0.98,0.04,0.03,0.21
1697352769.25,0.09,-0.28,1.03,0.8,-1,-17.5,0.98,0.04,0.03,0.2
1697352769.26,0.15,-0.18,0.98,0.1,-1.1,-16.9,0.98,0.04,0.03,0.2
1697352769.27,0.11,-0.08,0.7,0.1,-1.1,-16.9,0.98,0.04,0.03,0.2
1697352769.28,0.11,-0.08,0.7,0.1,-1.1,-16.9,0.98,0.04,0.03,0.2
1697352769.29,0.11,-0.08,0.7,0.1,-1.1,-16.9,0.98,0.04,0.03,0.2
1697352769.3,0.11,-0.08,0.7,0.1,-1.1,-16.9,0.98,0.04,0.03,0.2
1697352769.31,0.11,-0.08,0.7,0.1,-1.1,-16.9,0.98,0.04,0.03,0.2
1697352769.32,0.11,-0.08,0.7,0.1,-1.1,-16.9,0.98,0.04,0.03,0.2
1697352769.33,0.11,-0.08,0.7,0.1,-1.1,-16.9,0.98,0.04,0.03,0.2
1697352769.34,0.11,-0.08,0.7,0.1,-1.1,-16.9,0.98,0.04,0.03,0.2
1697352769.35,0.11,-0.08,0.7,0.1,-1.1,-16.9,0.98,0.04,0.03,0.2
1697352769.36,0.11,-0.08,0.7,0.1,-1.1,-16.9,0.98,0.04,0.03,0.2
1697352769.37,0.11,-0.08,0.7,0.1,-1.1,-16.9,0.98,0.04,0.03,0.2
1697352769.38,0.11,-0.08,0.7,0.1,-1.1,-16.9,0.98,0.04,0.03,0.2
1697352769.39,0.11,-0.08,0.7,0.1,-1.1,-16.9,0.98,0.04,0.03,0.2
1697352769.4,0.11,-0.08,0.7,0.1,-1.1,-16.9,0.98,0.04,0.03,0.2
1697352769.41,0.11,0,1.37,0.8,4.4,-9,0.98,0.04,0.03,0.18
1697352769.42,0.22,0.04,0.65,2.7,3.6,-8.4,0.98,0.04,0.03,0.18
1697352769.43,0.13,-0.14,1.38,2.7,3.6,-8.4,0.98,0.04,0.03,0.18
1697352769.44,0.23,-0.16,0.88,3.9,1.7,-5.9,0.98,0.04,0.03,0.18
1697352769.45,0.23,-0.16,0.88,3.9,1.7,-5.9,0.98,0.04,0.03,0.18
1697352769.46,0.3,0.05,1.26,2.7,0.3,-5.9,0.98,0.04,0.03,0.18
1697352769.47,0.3,0.05,1.26,0.9,-1,-5.2,0.98,0.04,0.03,0.18
1697352769.48,0.18,0.17,0.77,0.3,-2.7,-4.3,0.98,0.04,0.03,0.18
1697352769.49,0.18,0.17,0.77,-0.2,-2.9,-3.7,0.98,0.04,0.03,0.18
1697352769.5,0.15,0.28,0.56,-0.3,-2.4,-2.1,0.98,0.04,0.03,0.18
1697352769.51,0.15,0.28,0.56,1,-1.5,-0.2,0.98,0.04,0.03,0.18
1697352769.52,0.17,0.37,1.25,2.6,-1.1,1.3,0.98,0.04,0.03,0.18
1697352769.53,0.06,0.26,1.09,2.3,-0.5,3.3,0.98,0.04,0.03,0.18
1697352769.54,0.15,0.36,1.09,2,0,4.8,0.98,0.04,0.03,0.18
1697352769.55,0.16,0.35,0.79,1.4,1,7.3,0.98,0.04,0.03,0.18
1697352769.56,0.1,0.45,1.24,2.4,1.5,8.7,0.98,0.04,0.03,0.18
1697352769.57,0.04,0.39,1.09,2.5,1.7,10.6,0.98,0.04,0.03,0.18
1697352769.58,0.13,0.45,0.75,2.3,1.8,12.3,0.98,0.04,0.03,0.18
1697352769.59,0.11,0.39,1.29,2.4,2.1,13.5,0.98,0.04,0.03,0.18
1697352769.6,0.07,0.26,0.89,2.2,2,14.5,0.98,0.04,0.03,0.19
1697352769.61,0.2,0.45,1.08,1,1.9,15.1,0.98,0.04,0.03,0.19
1697352769.62,0.12,0.39,1.16,1,1.9,15.1,0.98,0.04,0.03,0.19
1697352769.63,0.21,0.36,0.7,3.7,0.9,15.3,0.98,0.04,0.03,0.19
1697352769.64,0.25,0.18,1.17,2,0,15.2,0.98,0.04,0.03,0.19
1697352769.65,0.23,0.28,1.08,1.7,-0.5,14.4,0.98,0.04,0.03,0.19
1697352769.66,0.06,0.16,1.19,1.7,-0.5,14.4,0.98,0.04,0.03,0.19
1697352769.67,0.15,0.15,0.58,-3,-1.3,14.3,0.98,0.04,0.03,0.19
1697352769.68,0.1,0.32,1.14,-4.9,-1,13.8,0.98,0.04,0.03,0.19
1697352769.69,0.1,0.33,0.85,-4.3,-0.5,14.1,0.98,0.04,0.03,0.2
1697352769.7,0.16,0.3,1.06,-4.3,-0.5,14.1,0.98,0.04,0.03,0.2
1697352769.71,0.16,0.29,1.11,-1.3,-0.4,14.2,0.98,0.04,0.03,0.2
1697352769.72,0.22,0.24,1.14,-1.3,-0.4,14.2,0.98,0.04,0.03,0.2
1697352769.73,0.16,0.25,1.02,-1.4,-1.4,14.9,0.98,0.04,0.03,0.2
1697352769.74,0.1,0.26,1.47,-2.1,-1.5,15.2,0.98,0.04,0.03,0.2
1697352769.75,0.18,0.32,0.53,-1.9,-2.1,15.8,0.98,0.04,0.03,0.2
1697352769.76,0.13,0.26,1.19,-0.3,-2.3,16.6,0.98,0.04,0.03,0.21
1697352769.77,0.05,0.29,0.86,-0.3,-2.3,16.6,0.98,0.04,0.02,0.21
1697352769.78,0.1,0.25,1.14,2.6,-2.7,18.4,0.98,0.04,0.02,0.21
1697352769.79,0.1,0.25,1.14,2.6,-2.7,18.4,0.98,0.04,0.02,0.21
1697352769.8,0.1,0.25,1.14,2.6,-2.7,18.4,0.98,0.04,0.02,0.21
1697352769.81,0.1,0.25,1.14,2.6,-2.7,18.4,0.98,0.04,0.02,0.21
1697352769.82,0.1,0.25,1.14,2.6,-2.7,18.4,0.98,0.04,0.02,0.21
1697352769.83,0.1,0.25,1.14,2.6,-2.7,18.4,0.98,0.04,0.02,0.21
1697352769.84,0.1,0.25,1.14,2.6,-2.7,18.4,0.98,0.04,0.02,0.21
1697352769.85,0.1,0.25,1.14,2.6,-2.7,18.4,0.98,0.04,0.02,0.21
1697352769.86,0.1,0.25,1.14,2.6,-2.7,18.4,0.98,0.04,0.02,0.21
1697352769.87,0.1,0.25,1.14,2.6,-2.7,18.4,0.98,0.04,0.02,0.21
1697352769.88,0.1,0.25,1.14,2.6,-2.7,18.4,0.98,0.04,0.02,0.21
1697352769.89,0.1,0.25,1.14,2.6,-2.7,18.4,0.98,0.04,0.02,0.21
1697352769.9,0.1,0.25,1.14,2.6,-2.7,18.4,0.98,0.04,0.02,0.21
1697352769.91,0.1,0.25,1.14,2.6,-2.7,18.4,0.98,0.04,0.02,0.21
1697352769.92,-0.01,0.35,1.02,-1.8,1.4,16.3,0.97,0.05,0.02,0.23
1697352769.93,0.07,0.42,1.11,-1.7,2.2,16.7,0.97,0.05,0.02,0.23
1697352769.94,0.04,0.25,0.99,-2.4,2.8,17.5,0.97,0.05,0.02,0.23
1697352769.95,0.1,0.32,0.86,-2.7,2.6,18.3,0.97,0.05,0.02,0.23
1697352769.96,-0.07,0.31,1.3,-2.2,2.4,18.8,0.97,0.04,0.02,0.24
1697352769.97,-0.07,0.33,0.86,-0.2,2.6,19.2,0.97,0.04,0.02,0.24
1697352769.98,-0.03,0.27,1.29,2.3,3.3,19.6,0.97,0.05,0.02,0.24
1697352769.99,-0.1,0.18,0.96,3.7,3.6,20.1,0.97,0.05,0.02,0.24
1697352770,0.01,0.2,1.45,2.6,2.7,20.4,0.97,0.05,0.02,0.24
1697352770.01,0.11,0.35,0.89,1.9,1.8,20.7,0.97,0.05,0.02,0.24
1697352770.02,-0.1,0.4,1.18,2,0.8,21.1,0.97,0.05,0.02,0.24
1697352770.03,-0,0.41,0.67,2.4,-0.1,21.7,0.97,0.05,0.02,0.25
1697352770.04,0.06,0.34,1.21,3.1,-0.9,22,0.97,0.05,0.02,0.25
1697352770.05,-0.16,0.34,0.87,1.3,-1.7,22.3,0.97,0.05,0.02,0.25
1697352770.06,0.03,0.47,1.21,-0.9,-2.6,22.4,0.97,0.05,0.02,0.25
1697352770.07,-0.04,0.58,0.67,-2.3,-2.5,22.9,0.97,0.05,0.02,0.25
1697352770.08,-0.1,0.56,1.03,-2.3,-2.5,22.9,0.97,0.05,0.02,0.26
1697352770.09,-0.01,0.46,0.83,1.6,-1.2,23.9,0.97,0.05,0.02,0.26
1697352770.1,-0.16,0.47,1.09,1.5,-0.4,24.3,0.96,0.05,0.02,0.26
1697352770.11,0.02,0.45,0.74,1.6,0.6,25,0.96,0.05,0.02,0.26
1697352770.12,-0.07,0.53,1.52,1.9,1.7,25.3,0.96,0.05,0.02,0.26
1697352770.13,0.18,0.35,0.72,2.2,2.6,25.3,0.96,0.05,0.02,0.27
1697352770.14,0.19,0.43,1,2.2,2.6,25.3,0.96,0.05,0.02,0.27
1697352770.15,0.27,0.44,0.95,-0.1,1.5,25.8,0.96,0.05,0.02,0.27
1697352770.16,0.13,0.59,0.95,-0.6,0.8,26.3,0.96,0.05,0.02,0.27
1697352770.17,0.12,0.73,0.92,0,0.5,27.5,0.96,0.05,0.02,0.27
1697352770.18,-0.05,0.68,0.67,2.2,-0.3,29.2,0.96,0.05,0.02,0.28
1697352770.19,-0.05,0.46,1.15,3.5,-0.7,31.3,0.96,0.05,0.02,0.28
1697352770.2,-0.16,0.44,0.77,1.1,0.3,32.6,0.96,0.05,0.02,0.28
1697352770.21,-0.05,0.59,0.86,-2.2,1.4,34.1,0.96,0.05,0.02,0.29
1697352770.22,-0.17,0.65,1.39,-3.8,2.6,35.1,0.96,0.05,0.02,0.29
1697352770.23,-0.04,0.82,0.52,-3.1,3.9,35.7,0.96,0.05,0.02,0.29
1697352770.24,-0.12,0.79,1.47,-0.4,4.9,36.7,0.95,0.05,0.02,0.29
1697352770.25,-0.05,0.6,1.18,-0.4,4.9,36.7,0.95,0.05,0.02,0.3
1697352770.26,-0.07,0.45,0.72,3.4,7,37.1,0.95,0.05,0.02,0.3
1697352770.27,-0.07,0.45,0.72,3.4,7,37.1,0.95,0.05,0.02,0.3
1697352770.28,0,0.54,0.61,1.5,7.4,36.7,0.95,0.05,0.02,0.31
1697352770.29,-0,0.57,1.3,-0.3,6.8,36.4,0.95,0.05,0.02,0.31
1697352770.3,-0.05,0.75,0.74,-0.4,5.2,36.1,0.95,0.05,0.02,0.31
1697352770.31,-0.05,0.75,0.74,-0.4,5.2,36.1,0.95,0.05,0.02,0.31
1697352770.32,-0.05,0.75,0.74,-0.4,5.2,36.1,0.95,0.05,0.02,0.31
1697352770.33,-0.05,0.75,0.74,-0.4,5.2,36.1,0.95,0.05,0.02,0.31
1697352770.34,-0.05,0.75,0.74,-0.4,5.2,36.1,0.95,0.05,0.02,0.31
1697352770.35,-0.05,0.75,0.74,-0.4,5.2,36.1,0.95,0.05,0.02,0.31
1697352770.36,-0.05,0.75,0.74,-0.4,5.2,36.1,0.95,0.05,0.02,0.31
1697352770.37,-0.05,0.75,0.74,-0.4,5.2,36.1,0.95,0.05,0.02,0.31
1697352770.38,-0.05,0.75,0.74,-0.4,5.2,36.1,0.95,0.05,0.02,0.31
1697352770.39,-0.05,0.75,0.74,-0.4,5.2,36.1,0.95,0.05,0.02,0.31
1697352770.4,-0.05,0.75,0.74,-0.4,5.2,36.1,0.95,0.05,0.02,0.31
1697352770.41,-0.05,0.75,0.74,-0.4,5.2,36.1,0.95,0.05,0.02,0.31
1697352770.42,-0.05,0.75,0.74,-0.4,5.2,36.1,0.95,0.05,0.02,0.31
1697352770.43,-0.05,0.75,0.74,3.2,1.4,47.4,0.93,0.05,0.02,0.35
1697352770.44,-0.19,0.73,0.97,2.9,0.9,50.2,0.93,0.05,0.02,0.36
1697352770.45,-0.08,0.89,1.12,0.9,-0.6,54.1,0.93,0.05,0.02,0.36
1697352770.46,-0.08,0.89,1.12,0.9,-0.6,54.1,0.93,0.05,0.02,0.37
1697352770.47,-0.15,0.96,1.04,-1.1,0,56.4,0.93,0.05,0.02,0.37
1697352770.48,-0.2,0.96,0.73,0,0.5,56.5,0.93,0.05,0.02,0.37
1697352770.49,-0.14,0.95,1.47,1.2,1.4,56.8,0.92,0.05,0.02,0.38
1697352770.5,-0.1,0.97,0.52,1.2,1.4,56.8,0.92,0.05,0.02,0.38
1697352770.51,-0.27,0.87,1.58,2,2.2,56.9,0.92,0.05,0.02,0.39
1697352770.52,-0.27,0.87,1.58,2,2.2,56.9,0.92,0.05,0.02,0.39
1697352770.53,-0.15,0.96,1.04,1,3,56.6,0.92,0.05,0.02,0.4
1697352770.54,-0.15,0.96,1.04,1,3,56.6,0.91,0.05,0.02,0.4
1697352770.55,-0.16,0.87,1.08,1.9,3.5,56.4,0.91,0.05,0.02,0.41
1697352770.56,-0.16,0.87,1.08,2.4,3.5,56.4,0.91,0.05,0.02,0.41
1697352770.57,-0.17,0.88,1.29,2.8,1.9,55.9,0.91,0.05,0.02,0.42
1697352770.58,-0.17,0.88,1.29,2.8,1.9,55.9,0.91,0.05,0.02,0.42
1697352770.59,-0.11,0.82,0.63,3.7,0.9,56,0.9,0.05,0.02,0.43
1697352770.6,-0.41,0.66,1.04,3.7,0.9,56,0.9,0.05,0.02,0.43
1697352770.61,-0.41,0.66,1.04,4.3,1.1,55.4,0.9,0.05,0.02,0.43
1697352770.62,-0.44,0.77,1.55,2.6,1.2,54.1,0.9,0.05,0.02,0.44
1697352770.63,-0.29,0.88,1.05,-0.2,2.7,52.8,0.89,0.05,0.02,0.44
1697352770.64,-0.25,0.92,1.27,-0.4,2.3,53.1,0.89,0.05,0.02,0.45
1697352770.65,-0.09,0.96,0.93,0.5,1.7,53.5,0.89,0.05,0.02,0.45
1697352770.66,-0.23,0.83,1.58,0.8,1.6,54.6,0.89,0.05,0.02,0.46
1697352770.67,-0.23,0.83,1.58,0.8,1.6,54.6,0.89,0.05,0.02,0.46
1697352770.68,-0.07,0.86,0.61,1.3,0.9,55.4,0.88,0.05,0.02,0.46
1697352770.69,-0.24,0.71,1.34,0.4,1.1,56.2,0.88,0.05,0.02,0.46
1697352770.7,0.06,0.88,0.41,-0.6,0.8,56.5,0.88,0.05,0.02,0.47
1697352770.71,-0.14,0.88,1.45,-0.6,0.5,56.8,0.88,0.05,0.02,0.47
1697352770.72,-0.12,1.01,0.61,-0.2,0,57.2,0.87,0.05,0.02,0.48
1697352770.73,-0.09,1.06,1.29,0.8,-0.8,57.8,0.87,0.05,0.02,0.49
1697352770.74,-0.19,1.01,0.92,1.7,-0.9,58.1,0.87,0.06,0.02,0.49
1697352770.75,-0.17,1,0.82,4.9,-1.2,58.9,0.87,0.06,0.02,0.5
1697352770.76,-0.2,0.89,1.24,5.5,-1,59.7,0.86,0.06,0.02,0.5
1697352770.77,-0.17,0.94,0.57,5.2,-1,60.4,0.86,0.06,0.02,0.5
1697352770.78,-0.13,0.98,1.15,4.8,-0.6,61,0.86,0.06,0.02,0.51
1697352770.79,-0.27,0.85,0.95,3.6,-0.3,61.7,0.86,0.06,0.02,0.51
1697352770.8,-0.14,0.95,0.5,1.5,0.2,62.5,0.85,0.06,0.02,0.52
1697352770.81,-0.26,1.02,1.11,-0.1,0.9,63,0.85,0.06,0.02,0.52
1697352770.82,-0.2,1.07,0.96,-0.1,0.9,63,0.85,0.06,0.02,0.52
1697352770.83,-0.2,1.07,0.96,-0.1,0.9,63,0.85,0.06,0.02,0.52
1697352770.84,-0.2,1.07,0.96,-0.1,0.9,63,0.85,0.06,0.02,0.52
1697352770.85,-0.2,1.07,0.96,-0.1,0.9,63,0.85,0.06,0.02,0.52
1697352770.86,-0.2,1.07,0.96,-0.1,0.9,63,0.85,0.06,0.02,0.52
1697352770.87,-0.2,1.07,0.96,-0.1,0.9,63,0.85,0.06,0.02,0.52
1697352770.88,-0.2,1.07,0.96,-0.1,0.9,63,0.85,0.06,0.02,0.52
1697352770.89,-0.2,1.07,0.96,-0.1,0.9,63,0.85,0.06,0.02,0.52
1697352770.9,-0.2,1.07,0.96,-0.1,0.9,63,0.85,0.06,0.02,0.52
1697352770.91,-0.2,1.07,0.96,-0.1,0.9,63,0.85,0.06,0.02,0.52
1697352770.92,-0.2,1.07,0.96,-0.1,0.9,63,0.85,0.06,0.02,0.52
1697352770.93,-0.2,1.07,0.96,-0.1,0.9,63,0.85,0.06,0.02,0.52
1697352770.94,-0.2,1.07,0.96,-0.1,0.9,63,0.85,0.06,0.02,0.52
1697352770.95,-0.17,0.97,1.28,-0.9,0,66.1,0.81,0.06,0.01,0.59
1697352770.96,-0.24,0.96,0.94,-0.6,-0.1,66,0.8,0.06,0.01,0.59
1697352770.97,-0.22,0.99,1.26,-0.6,-0.1,66,0.8,0.06,0.01,0.6
1697352770.98,-0.22,0.99,1.26,-0.1,0,66.2,0.8,0.06,0.01,0.6
1697352770.99,-0.25,0.9,0.85,0.9,0.6,66.1,0.79,0.06,0.01,0.61
1697352771,-0.25,0.9,0.85,0.9,0.6,66.1,0.79,0.06,0.01,0.61
1697352771.01,-0.22,0.97,1.49,-0.8,1.9,66.2,0.79,0.06,0.01,0.62
1697352771.02,-0.22,0.97,1.49,-0.8,1.9,66.2,0.78,0.06,0.01,0.62
1697352771.03,-0.31,0.99,1.41,-1.2,1.9,66.7,0.78,0.06,0.01,0.63
1697352771.04,-0.16,0.97,0.96,-1.2,1.9,66.7,0.77,0.06,0.01,0.63
1697352771.05,-0.16,0.97,0.96,-1.5,1.8,66.9,0.77,0.06,0.01,0.63
1697352771.06,-0.19,0.94,0.88,-1.1,1.7,67.2,0.77,0.06,0.01,0.64
1697352771.07,-0.19,0.93,0.72,-0.3,1.7,67.1,0.76,0.06,0.01,0.64
1697352771.08,-0.3,0.94,1.16,0.1,1.7,67,0.76,0.06,0.01,0.65
1697352771.09,-0.31,0.85,1.03,0.3,1.4,66.5,0.75,0.06,0.01,0.65
1697352771.1,-0.24,0.83,0.76,0,1.7,66.3,0.75,0.06,0.01,0.66
1697352771.11,-0.27,0.94,1.23,-1,2.3,65.8,0.75,0.06,0.01,0.66
1697352771.12,-0.26,0.95,1.16,-1,2.2,65.5,0.74,0.06,0.01,0.67
1697352771.13,-0.1,1.01,0.6,0,2.5,65.4,0.74,0.06,0.01,0.67
1697352771.14,-0.25,0.95,1.33,0.4,2.5,65.5,0.74,0.06,0.01,0.67
1697352771.15,-0.19,0.84,0.88,0.6,1.7,65.6,0.73,0.06,0.01,0.68
1697352771.16,-0.15,0.91,0.78,0.3,1.3,65.8,0.73,0.06,0.01,0.68
1697352771.17,-0.28,0.94,1.31,-0.3,1.4,65.8,0.73,0.06,0.01,0.68
1697352771.18,-0.14,0.95,0.71,-0.6,1.7,66,0.72,0.06,0.01,0.69
1697352771.19,-0.2,0.93,1.17,0,1.9,65.9,0.72,0.06,0.01,0.69
1697352771.2,-0.17,0.95,1.31,-0.1,1.5,65.9,0.71,0.06,0.01,0.7
1697352771.21,-0.22,0.84,1.07,-0.4,1.1,66,0.71,0.06,0.01,0.7
1697352771.22,-0.17,0.95,0.83,-0.9,0.6,66.2,0.71,0.06,0.01,0.71
1697352771.23,-0.21,0.95,1.06,-0.5,0.4,66.2,0.7,0.06,0.01,0.71
1697352771.24,-0.13,0.9,0.59,-0.5,0.4,66.2,0.7,0.06,0.01,0.71
1697352771.25,-0.21,0.94,0.83,0.3,1,66.1,0.69,0.06,0.01,0.72
1697352771.26,-0.2,0.84,0.97,0.2,1,65.7,0.69,0.06,0.01,0.72
1697352771.27,-0.28,0.82,0.98,-0.6,1.1,65.4,0.69,0.06,0.01,0.73
1697352771.28,-0.27,0.83,0.87,-0.9,1.2,64.9,0.68,0.06,0.01,0.73
1697352771.29,-0.1,0.92,0.43,-0.7,1.7,64.3,0.68,0.06,0.01,0.73
1697352771.3,-0.35,0.9,0.85,0.2,1.7,64,0.67,0.06,0,0.74
1697352771.31,-0.23,0.93,1,1.2,2.5,63.7,0.67,0.06,0,0.74
1697352771.32,-0.09,0.9,0.95,1.8,2.9,63.5,0.66,0.06,0,0.75
1697352771.33,-0.15,0.79,0.86,0.9,3,63.4,0.66,0.06,0,0.75
1697352771.34,-0.15,0.79,0.86,0.9,3,63.4,0.66,0.06,0,0.75
1697352771.35,-0.15,0.79,0.86,0.9,3,63.4,0.66,0.06,0,0.75
1697352771.36,-0.15,0.79,0.86,0.9,3,63.4,0.66,0.06,0,0.75
1697352771.37,-0.15,0.79,0.86,0.9,3,63.4,0.66,0.06,0,0.75
1697352771.38,-0.15,0.79,0.86,0.9,3,63.4,0.66,0.06,0,0.75
1697352771.39,-0.15,0.79,0.86,0.9,3,63.4,0.66,0.06,0,0.75
1697352771.4,-0.15,0.79,0.86,0.9,3,63.4,0.66,0.06,0,0.75
1697352771.41,-0.15,0.79,0.86,0.9,3,63.4,0.66,0.06,0,0.75
1697352771.42,-0.15,0.79,0.86,0.9,3,63.4,0.66,0.06,0,0.75
1697352771.43,-0.15,0.79,0.86,0.9,3,63.4,0.66,0.06,0,0.75
1697352771.44,-0.15,0.79,0.86,0.9,3,63.4,0.66,0.06,0,0.75
1697352771.45,-0.15,0.79,0.86,0.9,3,63.4,0.66,0.06,0,0.75
1697352771.46,-0.15,0.79,0.86,0.9,3,63.4,0.66,0.06,0,0.75
1697352771.47,-0.15,0.79,0.86,0.9,3,63.4,0.66,0.06,0,0.75
1697352771.48,0.09,0.64,1.09,-0.5,-1.8,45.7,0.6,0.05,-0,0.8
1697352771.49,-0.09,0.68,0.62,-0.5,-0.7,46.3,0.6,0.05,-0,0.8
1697352771.5,-0.18,0.64,0.71,-0.4,0.3,46.9,0.59,0.05,-0,0.8
1697352771.51,-0.11,0.6,0.75,-1.2,1.4,48.2,0.59,0.05,-0,0.81
1697352771.52,-0.08,0.58,1.09,-1.4,2.7,49.3,0.59,0.05,-0,0.81
1697352771.53,-0.1,0.65,0.96,-0.6,2.8,49.7,0.58,0.05,-0,0.81
1697352771.54,-0.12,0.58,0.64,0.2,3.1,49.8,0.58,0.05,-0,0.81
1697352771.55,-0.06,0.51,1.38,0.2,3.1,49.8,0.58,0.05,-0,0.81
1697352771.56,0.06,0.38,1.2,-0.6,2.5,47.3,0.57,0.05,-0,0.82
1697352771.57,0.23,0.35,0.53,-0.6,2.5,47.3,0.57,0.05,-0,0.82
1697352771.58,0.22,0.39,1.32,-1.2,0.9,41.5,0.57,0.05,-0,0.82
1697352771.59,0.15,0.38,1.13,-1,0,38.7,0.56,0.05,-0,0.82
1697352771.6,0.2,0.37,0.71,-0.8,-0.8,36.4,0.56,0.05,-0,0.83
1697352771.61,0.06,0.47,1.26,-0.8,-0.8,36.4,0.56,0.05,-0,0.83
1697352771.62,-0.07,0.45,0.71,0,-0.8,34.7,0.56,0.05,-0,0.83
1697352771.63,-0.21,0.46,1.08,0.1,-0.1,34.2,0.55,0.05,-0,0.83
1697352771.64,-0.11,0.42,1.14,0,0.6,34.1,0.55,0.05,-0,0.83
1697352771.65,0,0.4,0.96,-1.1,0.5,34.3,0.55,0.05,-0,0.84
1697352771.66,0.04,0.31,1.04,-1.1,0.5,34.3,0.55,0.05,-0,0.84
1697352771.67,0.05,0.36,0.34,-2.1,0.7,34.5,0.54,0.05,-0,0.84
1697352771.68,-0.09,0.4,1.5,-2.1,0.3,33.9,0.54,0.05,-0,0.84
1697352771.69,0.14,0.31,1.01,-1.5,-0.5,33,0.54,0.05,-0,0.84
1697352771.7,0.17,0.28,0.46,-0.2,-0.7,31.4,0.53,0.05,-0.01,0.84
1697352771.71,0.14,0.2,0.48,-0.1,-1.9,29.3,0.53,0.05,-0.01,0.84
1697352771.72,0.14,0.2,0.48,-0.1,-1.9,29.3,0.53,0.05,-0.01,0.84
1697352771.73,-0.07,0.41,1.33,-2.9,-2.2,26.3,0.53,0.05,-0.01,0.85
1697352771.74,-0.07,0.41,1.33,-2.9,-2.2,26.3,0.53,0.05,-0.01,0.85
1697352771.75,-0.11,0.37,0.66,-2.4,-0.8,25.7,0.53,0.05,-0.01,0.85
1697352771.76,-0.11,0.37,0.66,-2.4,-0.8,25.7,0.52,0.05,-0.01,0.85
1697352771.77,-0.17,0.19,1.27,-0.2,0.6,26.3,0.52,0.05,-0.01,0.85
1697352771.78,-0.11,0.08,1.21,1.2,2.5,26.9,0.52,0.05,-0.01,0.85
1697352771.79,-0.11,0.08,1.21,1.2,2.5,26.9,0.52,0.05,-0.01,0.85
1697352771.8,0.07,0.3,0.56,-0.7,3,26.8,0.52,0.05,-0.01,0.85
1697352771.81,0.18,0.26,1.1,-2.5,2.8,25.9,0.51,0.05,-0.01,0.86
1697352771.82,0.1,0.32,0.72,-2.2,2.2,25.1,0.51,0.05,-0.01,0.86
1697352771.83,0.11,0.24,1.32,-0.5,1.4,23.9,0.51,0.05,-0.01,0.86
1697352771.84,0.13,0.25,0.86,0.5,0.3,22.6,0.51,0.05,-0.01,0.86
1697352771.85,0.07,0.26,0.71,1.1,-0.4,21.4,0.51,0.05,-0.01,0.86
1697352771.86,0.01,0.2,1.21,0.5,-1,20.5,0.51,0.05,-0.01,0.86
1697352771.87,-0.09,0.19,1.4,-0.5,-1.4,19.9,0.5,0.05,-0.01,0.86
1697352771.88,-0.09,0.19,1.4,-0.5,-1.4,19.9,0.5,0.05,-0.01,0.86
1697352771.89,-0.09,0.19,1.4,-0.5,-1.4,19.9,0.5,0.05,-0.01,0.86
1697352771.9,-0.09,0.19,1.4,-0.5,-1.4,19.9,0.5,0.05,-0.01,0.86
1697352771.91,-0.09,0.19,1.4,-0.5,-1.4,19.9,0.5,0.05,-0.01,0.86
1697352771.92,-0.09,0.19,1.4,-0.5,-1.4,19.9,0.5,0.05,-0.01,0.86
1697352771.93,-0.09,0.19,1.4,-0.5,-1.4,19.9,0.5,0.05,-0.01,0.86
1697352771.94,-0.09,0.19,1.4,-0.5,-1.4,19.9,0.5,0.05,-0.01,0.86
1697352771.95,-0.09,0.19,1.4,-0.5,-1.4,19.9,0.5,0.05,-0.01,0.86
1697352771.96,-0.09,0.19,1.4,-0.5,-1.4,19.9,0.5,0.05,-0.01,0.86
1697352771.97,-0.09,0.19,1.4,-0.5,-1.4,19.9,0.5,0.05,-0.01,0.86
1697352771.98,-0.09,0.19,1.4,-0.5,-1.4,19.9,0.5,0.05,-0.01,0.86
1697352771.99,-0.09,0.19,1.4,-0.5,-1.4,19.9,0.5,0.05,-0.01,0.86
1697352772,-0.09,0.19,1.4,-0.5,-1.4,19.9,0.5,0.05,-0.01,0.86
1697352772.01,-0.02,-0.64,0.62,-5.1,-1.6,-12.3,0.5,0.05,-0.01,0.87
1697352772.02,0.12,-0.64,1.1,-6.4,-2,-15.2,0.5,0.05,-0.01,0.87
1697352772.03,0.12,-0.64,1.1,-6.4,-2,-15.2,0.5,0.05,-0.01,0.86
1697352772.04,0.06,-0.32,1.35,-8.1,-1.7,-17.7,0.5,0.05,-0.01,0.86
1697352772.05,0.06,-0.32,1.35,-9,-1.4,-20.4,0.5,0.05,-0.02,0.86
1697352772.06,0.17,-0.36,0.97,-4.1,-2,-21.7,0.51,0.05,-0.02,0.86
1697352772.07,0.17,-0.36,0.97,-4.1,-2,-21.7,0.51,0.05,-0.02,0.86
1697352772.08,0.3,-0.38,0.88,-0.9,-2.6,-22.3,0.51,0.05,-0.02,0.86
1697352772.09,0.09,-0.56,1,0.8,-3.6,-21.2,0.51,0.05,-0.02,0.86
1697352772.1,0.17,-0.56,1.08,0.8,-3.6,-21.2,0.51,0.05,-0.02,0.86
1697352772.11,0.18,-0.34,0.99,-1.3,-2.8,-21.9,0.51,0.05,-0.02,0.86
1697352772.12,0.18,-0.34,0.99,-3.4,-2.4,-22.2,0.51,0.05,-0.02,0.86
1697352772.13,0.15,-0.35,0.9,-3.1,-1.1,-22.1,0.52,0.05,-0.02,0.85
1697352772.14,0.15,-0.35,0.9,0,0,-22.3,0.52,0.05,-0.02,0.85
1697352772.15,0.15,-0.53,0.71,2.7,1.4,-22.9,0.52,0.05,-0.02,0.85
1697352772.16,0.18,-0.57,1.11,-0.9,2.6,-24.3,0.52,0.05,-0.02,0.85
1697352772.17,0.14,-0.51,0.97,-2.3,2.4,-25.1,0.52,0.05,-0.02,0.85
1697352772.18,0.17,-0.37,0.79,-1.2,2.1,-26,0.53,0.05,-0.02,0.85
1697352772.19,0.18,-0.35,1.04,0.3,1.5,-26.7,0.53,0.05,-0.02,0.85
1697352772.2,0.05,-0.47,1.14,1.3,1.1,-27.5,0.53,0.05,-0.02,0.85
1697352772.21,0.07,-0.43,0.62,0.9,0.8,-28.2,0.53,0.05,-0.01,0.85
1697352772.22,0.09,-0.37,1.16,-0.3,0,-28.9,0.53,0.05,-0.01,0.84
1697352772.23,0.16,-0.51,0.58,-1.3,-0.8,-29.6,0.54,0.05,-0.01,0.84
1697352772.24,0.1,-0.41,1.25,-1.3,-0.8,-29.6,0.54,0.05,-0.01,0.84
1697352772.25,0.06,-0.41,1.02,-2.2,-1.4,-29.9,0.54,0.05,-0.01,0.84
1697352772.26,0.07,-0.43,0.92,-1.7,-1.2,-29.8,0.54,0.05,-0.01,0.84
1697352772.27,0.15,-0.41,1.23,0,-0.8,-29.7,0.55,0.05,-0.01,0.84
1697352772.28,-0.02,-0.53,1.15,0.9,-0.9,-29.9,0.55,0.05,-0.01,0.84
1697352772.29,0.14,-0.67,0.84,0,-0.7,-30.7,0.55,0.05,-0.01,0.84
1697352772.3,0.06,-0.74,1.14,-2.5,0,-32.3,0.55,0.05,-0.01,0.83
1697352772.31,0.11,-0.6,0.97,-3.2,0.1,-33,0.56,0.05,-0.01,0.83
1697352772.32,0.07,-0.72,1.08,-2.3,0.8,-34.3,0.56,0.05,-0.01,0.83
1697352772.33,0.01,-0.65,0.82,-1.5,1.6,-35.7,0.56,0.05,-0.01,0.83
1697352772.34,0.1,-0.83,1.07,-1.3,1.7,-37.3,0.56,0.05,-0.01,0.83
1697352772.35,0.04,-0.84,0.91,-2.8,1.9,-39,0.57,0.05,-0.01,0.82
1697352772.36,0.04,-0.84,0.96,-3.7,2.3,-40.8,0.57,0.05,-0.01,0.82
1697352772.37,0.04,-0.84,0.96,-3.7,2.3,-40.8,0.57,0.05,-0.01,0.82
1697352772.38,0.14,-0.83,0.85,-4.6,1.7,-44.6,0.58,0.05,-0.01,0.82
1697352772.39,0.14,-0.83,0.85,-4.6,1.7,-44.6,0.58,0.05,-0.01,0.82
1697352772.4,0.11,-0.91,0.76,-4.2,1.6,-46.4,0.58,0.05,-0.01,0.81
1697352772.41,0.11,-0.91,0.76,-4.2,1.6,-46.4,0.58,0.05,-0.01,0.81
1697352772.42,0.11,-0.91,0.76,-4.2,1.6,-46.4,0.58,0.05,-0.01,0.81
1697352772.43,0.11,-0.91,0.76,-4.2,1.6,-46.4,0.58,0.05,-0.01,0.81
1697352772.44,0.11,-0.91,0.76,-4.2,1.6,-46.4,0.58,0.05,-0.01,0.81
1697352772.45,0.11,-0.91,0.76,-4.2,1.6,-46.4,0.58,0.05,-0.01,0.81
1697352772.46,0.11,-0.91,0.76,-4.2,1.6,-46.4,0.58,0.05,-0.01,0.81
1697352772.47,0.11,-0.91,0.76,-4.2,1.6,-46.4,0.58,0.05,-0.01,0.81
1697352772.48,0.11,-0.91,0.76,-4.2,1.6,-46.4,0.58,0.05,-0.01,0.81
1697352772.49,0.11,-0.91,0.76,-4.2,1.6,-46.4,0.58,0.05,-0.01,0.81
1697352772.5,0.11,-0.91,0.76,-4.2,1.6,-46.4,0.58,0.05,-0.01,0.81
1697352772.51,0.11,-0.91,0.76,-4.2,1.6,-46.4,0.58,0.05,-0.01,0.81
1697352772.52,0.11,-0.91,0.76,-4.2,1.6,-46.4,0.58,0.05,-0.01,0.81
1697352772.53,0.11,-0.91,0.76,-4.2,1.6,-46.4,0.58,0.05,-0.01,0.81
1697352772.54,0.11,-0.91,0.76,-4.2,1.6,-46.4,0.58,0.05,-0.01,0.81
1697352772.55,-0.06,-0.85,0.74,1.9,1.4,-56.4,0.64,0.05,-0.01,0.77
1697352772.56,0.16,-1.04,0.68,1.9,1.4,-56.4,0.64,0.05,-0.01,0.77
1697352772.57,-0.12,-0.97,1.1,-2,0.4,-57.4,0.64,0.05,-0.01,0.76
1697352772.58,0.13,-0.89,1.04,-2.7,-0.6,-57.4,0.65,0.05,-0.01,0.76
1697352772.59,0.06,-0.91,1,-2.2,-1.5,-57.6,0.65,0.05,-0.01,0.76
1697352772.6,-0.18,-0.69,1.38,-2.2,-1.5,-57.6,0.65,0.05,-0.01,0.76
1697352772.61,0.23,-0.92,1.05,1.9,-1.5,-57.5,0.66,0.05,-0.01,0.75
1697352772.62,-0.16,-0.83,1.17,1.9,-1.5,-57.5,0.66,0.05,-0.01,0.75
1697352772.63,0.14,-1.07,1.09,0,-1.3,-57.2,0.67,0.05,-0.01,0.74
1697352772.64,0.04,-0.8,0.77,-0.5,-1,-57,0.67,0.05,-0.01,0.74
1697352772.65,-0.01,-0.97,1.32,-1.6,-0.1,-56.4,0.67,0.05,-0.01,0.74
1697352772.66,-0.06,-0.86,1.12,-1.6,-0.1,-56.4,0.67,0.05,-0.01,0.74
1697352772.67,0.08,-0.81,1.13,-2.4,0.1,-56.3,0.68,0.05,-0.01,0.73
1697352772.68,-0.01,-0.71,1.02,-1.5,0,-55.9,0.69,0.05,-0.01,0.73
1697352772.69,0.1,-0.8,1.03,0.6,0.6,-55.5,0.69,0.05,-0.01,0.72
1697352772.7,-0.02,-0.84,0.84,2.6,1.1,-54.9,0.69,0.05,-0.01,0.72
1697352772.71,0.06,-1.01,1.06,4.5,1.7,-54.1,0.7,0.05,-0.01,0.72
1697352772.72,0.19,-1.17,0.64,3.9,1.1,-54.3,0.7,0.05,-0.01,0.72
1697352772.73,0.04,-0.94,0.72,0.2,1.7,-55,0.7,0.05,-0.01,0.71
1697352772.74,0.08,-0.86,1.23,-3,1.7,-54.8,0.71,0.05,-0.01,0.71
1697352772.75,0.1,-0.71,1.08,-3.1,1.3,-55,0.71,0.05,-0.01,0.7
1697352772.76,0.14,-0.87,0.77,-0.7,0.9,-55,0.71,0.05,-0.01,0.7
1697352772.77,0.14,-0.87,0.77,-0.7,0.9,-55,0.71,0.05,-0.01,0.7
1697352772.78,0.23,-1.07,0.99,0.7,0.6,-56.1,0.72,0.05,-0.01,0.7
1697352772.79,0.23,-1.07,0.99,0.7,0.6,-56.1,0.72,0.05,-0.01,0.69
1697352772.8,0.08,-0.99,1.25,-0.9,0.7,-57.2,0.72,0.05,-0.01,0.69
1697352772.81,0.08,-0.99,1.25,-0.9,0.7,-57.2,0.73,0.05,-0.01,0.68
1697352772.82,0.07,-0.91,0.68,-1.3,0.9,-57.7,0.73,0.05,-0.01,0.68
1697352772.83,0.12,-0.82,1.12,-1.5,1.3,-58.3,0.73,0.05,-0,0.68
1697352772.84,0.04,-0.87,0.86,-0.7,1.3,-58,0.74,0.05,-0,0.67
1697352772.85,0.05,-1.01,0.8,1.3,1.4,-57.4,0.74,0.05,-0,0.67
1697352772.86,0.08,-0.99,1.21,1,1.7,-57.4,0.75,0.05,-0,0.66
1697352772.87,0.13,-1.03,0.68,-1,1.5,-57.4,0.75,0.04,-0,0.66
1697352772.88,-0.06,-0.73,1.14,-1,2.3,-57.2,0.75,0.04,-0,0.66
1697352772.89,0.21,-0.89,0.81,0.9,2.3,-57.1,0.76,0.04,-0,0.65
1697352772.9,-0.03,-0.88,0.82,1.6,2.1,-57.3,0.76,0.04,-0,0.65
1697352772.91,0.14,-0.89,1.09,1.8,1.5,-58,0.76,0.04,-0,0.65
1697352772.92,0.13,-1.03,1.15,-0.5,0.8,-58.6,0.77,0.04,-0,0.64
1697352772.93,0.13,-1.03,1.15,-0.5,0.8,-58.6,0.77,0.04,-0,0.64
1697352772.94,0.13,-1.03,1.15,-0.5,0.8,-58.6,0.77,0.04,-0,0.64
1697352772.95,0.13,-1.03,1.15,-0.5,0.8,-58.6,0.77,0.04,-0,0.64
1697352772.96,0.13,-1.03,1.15,-0.5,0.8,-58.6,0.77,0.04,-0,0.64
1697352772.97,0.13,-1.03,1.15,-0.5,0.8,-58.6,0.77,0.04,-0,0.64
1697352772.98,0.13,-1.03,1.15,-0.5,0.8,-58.6,0.77,0.04,-0,0.64
1697352772.99,0.13,-1.03,1.15,-0.5,0.8,-58.6,0.77,0.04,-0,0.64
1697352773,0.13,-1.03,1.15,-0.5,0.8,-58.6,0.77,0.04,-0,0.64
1697352773.01,0.13,-1.03,1.15,-0.5,0.8,-58.6,0.77,0.04,-0,0.64
1697352773.02,0.13,-1.03,1.15,-0.5,0.8,-58.6,0.77,0.04,-0,0.64
1697352773.03,0.13,-1.03,1.15,-0.5,0.8,-58.6,0.77,0.04,-0,0.64
1697352773.04,0.13,-1.03,1.15,-0.5,0.8,-58.6,0.77,0.04,-0,0.64
1697352773.05,0.13,-1.03,1.15,-0.5,0.8,-58.6,0.77,0.04,-0,0.64
1697352773.06,0.06,-0.3,0.99,2.3,2.9,-32.6,0.8,0.05,0,0.6
1697352773.07,0.18,-0.27,0.99,0.7,1.5,-28.1,0.8,0.05,0,0.59
1697352773.08,0.18,-0.27,0.99,1.7,1.6,-26.8,0.8,0.05,0,0.59
1697352773.09,0.1,-0.2,0.99,1.7,1.6,-24.8,0.81,0.05,0,0.59
1697352773.1,0.1,-0.2,0.99,1.7,1.6,-24.8,0.81,0.05,0,0.59
1697352773.11,0.15,-0.12,0.95,2.3,1.7,-24.6,0.81,0.05,0,0.59
1697352773.12,0.15,-0.12,0.95,2.3,1.7,-24.6,0.81,0.05,0.01,0.58
1697352773.13,0.06,-0.11,1.11,2.7,1.7,-24,0.81,0.05,0.01,0.58
1697352773.14,0.06,-0.11,1.11,2.3,1,-23.6,0.81,0.05,0.01,0.58
1697352773.15,-0.03,-0.14,1.06,2.2,0.4,-23.3,0.81,0.05,0.01,0.58
1697352773.16,-0.03,-0.14,1.06,1.3,-0.4,-22.5,0.81,0.05,0.01,0.58
1697352773.17,0.05,-0.31,1.05,-0.3,-0.4,-21.2,0.82,0.05,0.01,0.58
1697352773.18,0.02,-0.13,1.1,-0.1,-0.4,-19.9,0.82,0.05,0.01,0.58
1697352773.19,0.08,-0.04,1.11,1.3,-0.2,-17.5,0.82,0.05,0.01,0.57
1697352773.2,0.13,0.03,1.13,2.6,0,-14.9,0.82,0.05,0.01,0.57
1697352773.21,0,0.1,0.87,4.2,0.6,-11.8,0.82,0.05,0.01,0.57
1697352773.22,0.12,0.11,1.13,5.1,1.4,-8,0.82,0.05,0.01,0.57
1697352773.23,0.02,0.18,1.21,4.6,2.1,-4.3,0.82,0.05,0.01,0.57
1697352773.24,0.1,0.24,0.78,3.8,2.6,-0.6,0.82,0.05,0.01,0.57
1697352773.25,0.15,0.37,0.88,3.5,2.5,3.9,0.82,0.05,0.01,0.57
1697352773.26,0.04,0.4,0.99,4.9,1.7,7,0.82,0.05,0.01,0.57
1697352773.27,0.11,0.51,0.94,5.4,1.3,7.6,0.82,0.05,0.01,0.57
1697352773.28,0.16,0.39,0.89,7.6,0,11.1,0.82,0.05,0.01,0.57
1697352773.29,0.1,0.42,0.97,7.9,-0.9,12.2,0.82,0.05,0.01,0.57
1697352773.3,0.13,0.39,1.17,7.4,-1.3,12.8,0.82,0.05,0.01,0.57
1697352773.31,0.22,0.4,0.7,5.6,-1.9,13.6,0.82,0.05,0.01,0.57
1697352773.32,0.17,0.51,1.31,4.3,-1.8,14.5,0.82,0.05,0.01,0.58
1697352773.33,0.16,0.68,0.9,3.4,-1.8,16.1,0.81,0.05,0.01,0.58
1697352773.34,0.13,0.83,0.81,5.1,-1,19,0.81,0.05,0.01,0.58
1697352773.35,0.11,0.72,1.27,7,-0.4,21.2,0.81,0.05,0.01,0.58
1697352773.36,0.18,0.63,0.74,6.7,0.2,23.5,0.81,0.05,0.01,0.58
1697352773.37,0.15,0.7,1.03,5.1,0.5,26.6,0.81,0.05,0.01,0.58
1697352773.38,0.17,0.59,1.03,3.4,0.7,28.7,0.81,0.05,0.01,0.58
1697352773.39,0.15,0.66,0.9,1.1,0.6,30.7,0.81,0.05,0.01,0.59
1697352773.4,0.12,0.58,0.99,0,0.5,31.9,0.81,0.05,0.01,0.59
1697352773.41,0.17,0.74,1.28,0,0.5,32.4,0.81,0.05,0.01,0.59
1697352773.42,0.17,0.74,1.28,0,0.5,32.4,0.8,0.05,0.01,0.59
1697352773.43,0.07,0.61,1.15,3.5,0.2,33.5,0.8,0.05,0.01,0.59
1697352773.44,0.07,0.61,1.15,3.5,0.2,33.5,0.8,0.05,0.01,0.6
1697352773.45,0.07,0.61,1.15,3.5,0.2,33.5,0.8,0.05,0.01,0.6
1697352773.46,0.07,0.61,1.15,3.5,0.2,33.5,0.8,0.05,0.01,0.6
1697352773.47,0.07,0.61,1.15,3.5,0.2,33.5,0.8,0.05,0.01,0.6
1697352773.48,0.07,0.61,1.15,3.5,0.2,33.5,0.8,0.05,0.01,0.6
1697352773.49,0.07,0.61,1.15,3.5,0.2,33.5,0.8,0.05,0.01,0.6
1697352773.5,0.07,0.61,1.15,3.5,0.2,33.5,0.8,0.05,0.01,0.6
1697352773.51,0.07,0.61,1.15,3.5,0.2,33.5,0.8,0.05,0.01,0.6
1697352773.52,0.07,0.61,1.15,3.5,0.2,33.5,0.8,0.05,0.01,0.6
1697352773.53,0.07,0.61,1.15,3.5,0.2,33.5,0.8,0.05,0.01,0.6
1697352773.54,0.07,0.61,1.15,3.5,0.2,33.5,0.8,0.05,0.01,0.6
1697352773.55,0.07,0.61,1.15,3.5,0.2,33.5,0.8,0.05,0.01,0.6
1697352773.56,0.07,0.61,1.15,3.5,0.2,33.5,0.8,0.05,0.01,0.6
1697352773.57,0.07,0.61,1.15,3.5,0.2,33.5,0.8,0.05,0.01,0.6
1697352773.58,0.01,0.37,1.05,0.7,2.6,28.6,0.78,0.05,0.01,0.63
1697352773.59,-0.03,0.19,1.43,2.2,2.5,27.3,0.77,0.05,0.01,0.63
1697352773.6,0.17,0.14,0.93,2,1.7,26.1,0.77,0.05,0.01,0.63
1697352773.61,0.08,0.28,1.18,0.3,0.8,24.6,0.77,0.05,0.01,0.63
1697352773.62,0.26,0.27,0.84,-0.4,-0.6,22.8,0.77,0.05,0.01,0.63
1697352773.63,0.14,0.39,0.86,-1,-1.9,21.7,0.77,0.05,0.01,0.64
1697352773.64,0.08,0.4,1.08,-1.6,-2.9,21.1,0.77,0.05,0.01,0.64
1697352773.65,0.08,0.4,1.08,-1.6,-2.9,21.1,0.77,0.05,0.01,0.64
1697352773.66,0.24,0.42,0.66,-1.7,-3.3,20.1,0.77,0.05,0.01,0.64
1697352773.67,-0.04,0.39,1.31,-1.4,-2.4,20.3,0.77,0.05,0.01,0.64
1697352773.68,0.03,0.36,1.26,-1,-1.5,20.4,0.76,0.06,0.01,0.64
1697352773.69,0.18,0.35,0.7,-0.8,-0.3,20.8,0.76,0.06,0.01,0.64
1697352773.7,-0.07,0.41,1.39,-1,1,20.9,0.76,0.05,0.01,0.64
1697352773.71,0.01,0.44,1.3,-1,1,20.9,0.76,0.05,0.01,0.65
1697352773.72,0.25,0.4,0.69,0.5,3.3,21.6,0.76,0.05,0.01,0.65
1697352773.73,-0.01,0.31,1.31,3.6,3.4,22.2,0.76,0.05,0.01,0.65
1697352773.74,0.19,0.21,1.09,2.2,3.3,22.4,0.76,0.05,0.01,0.65
1697352773.75,0.07,0.35,1.4,1.4,3,22.3,0.76,0.05,0.01,0.65
1697352773.76,0.19,0.38,0.48,-0.1,1.7,22.6,0.75,0.05,0.01,0.65
1697352773.77,-0.01,0.42,1.27,-0.2,1.3,22.5,0.75,0.05,0.01,0.66
1697352773.78,0.15,0.46,0.8,-0.2,0.4,22.4,0.75,0.05,0.01,0.66
1697352773.79,0.06,0.47,0.77,-0.2,-0.6,22.2,0.75,0.05,0.01,0.66
1697352773.8,-0.04,0.47,1.62,-0.6,-1.4,22.2,0.75,0.05,0.01,0.66
1697352773.81,0.27,0.44,0.65,-0.8,-2.3,22,0.75,0.05,0.01,0.66
1697352773.82,0.33,0.43,0.61,-1,-2.5,21.6,0.75,0.05,0.01,0.66
1697352773.83,0.09,0.47,0.7,-1.6,-2.2,21.2,0.75,0.05,0.01,0.66
1697352773.84,0.09,0.47,0.7,-1.6,-2.2,21.2,0.75,0.05,0.01,0.66
1697352773.85,0.22,0.36,0.62,-0.7,-0.6,21,0.74,0.05,0.01,0.67
1697352773.86,0.22,0.36,0.62,-0.7,-0.6,21,0.74,0.05,0.01,0.67
1697352773.87,0.01,0.44,1.02,-0.2,0.3,20.9,0.74,0.05,0.01,0.67
1697352773.88,-0.03,0.37,1.06,-0.1,1.6,21.1,0.74,0.05,0.01,0.67
1697352773.89,0.22,0.36,0.72,-0.1,1.6,21.1,0.74,0.05,0.01,0.67
1697352773.9,-0.03,0.42,1.15,-1.1,2.2,21.4,0.74,0.05,0.01,0.67
1697352773.91,0.11,0.39,0.88,-0.4,2.3,22.2,0.74,0.05,0.01,0.68
1697352773.92,0.11,0.39,0.88,0.9,1.5,22.4,0.73,0.05,0.01,0.68
1697352773.93,0.04,0.39,1.1,2.7,0.6,22.7,0.73,0.05,0.01,0.68
1697352773.94,-0.1,0.38,1.25,3.1,0,23.2,0.73,0.05,0.01,0.68
1697352773.95,0.28,0.32,0.62,1.7,-0.8,23.2,0.73,0.05,0.01,0.68
1697352773.96,0.14,0.34,0.72,-0.5,-1,22.8,0.73,0.05,0.01,0.68
1697352773.97,0.19,0.46,0.78,-1.1,-1,22.2,0.73,0.05,0.01,0.68
1697352773.98,0.19,0.46,0.78,-1.1,-1,22.2,0.73,0.05,0.01,0.68
1697352773.99,0.19,0.46,0.78,-1.1,-1,22.2,0.73,0.05,0.01,0.68
1697352774,0.19,0.46,0.78,-1.1,-1,22.2,0.73,0.05,0.01,0.68
1697352774.01,0.19,0.46,0.78,-1.1,-1,22.2,0.73,0.05,0.01,0.68
1697352774.02,0.19,0.46,0.78,-1.1,-1,22.2,0.73,0.05,0.01,0.68
1697352774.03,0.19,0.46,0.78,-1.1,-1,22.2,0.73,0.05,0.01,0.68
1697352774.04,0.19,0.46,0.78,-1.1,-1,22.2,0.73,0.05,0.01,0.68
1697352774.05,0.19,0.46,0.78,-1.1,-1,22.2,0.73,0.05,0.01,0.68
1697352774.06,0.19,0.46,0.78,-1.1,-1,22.2,0.73,0.05,0.01,0.68
1697352774.07,0.19,0.46,0.78,-1.1,-1,22.2,0.73,0.05,0.01,0.68
1697352774.08,0.19,0.46,0.78,-1.1,-1,22.2,0.73,0.05,0.01,0.68
1697352774.09,0.19,0.46,0.78,-1.1,-1,22.2,0.73,0.05,0.01,0.68
1697352774.1,0.19,0.46,0.78,-2.7,0.6,13.1,0.71,0.05,0,0.7
1697352774.11,0.04,0.21,1.24,-3.9,-0.8,12.2,0.71,0.05,0,0.7
1697352774.12,0.26,0.2,0.78,1.3,-3.2,11.4,0.71,0.05,0,0.7
1697352774.13,0.26,0.2,0.78,1.3,-3.2,11.4,0.71,0.05,0,0.7
1697352774.14,0.12,0.09,0.91,2.3,-4.3,11.2,0.71,0.05,0,0.7
1697352774.15,-0.09,0.16,0.96,0.9,-4.4,11.6,0.71,0.05,0,0.7
1697352774.16,-0.06,0.13,0.97,-1.2,-2.5,11.9,0.71,0.05,0,0.7
1697352774.17,-0.06,0.13,0.97,-1.2,-2.5,11.9,0.71,0.05,0,0.7
1697352774.18,0.09,0.24,1.11,-2.9,0.1,12.4,0.71,0.05,0,0.7
1697352774.19,0.09,0.24,1.11,-2.9,0.1,12.4,0.71,0.05,0,0.71
1697352774.2,0.06,0.26,0.82,-2,1.3,12.7,0.71,0.05,0,0.71
1697352774.21,0.15,0.08,1.06,-0.3,2.3,13,0.71,0.05,0,0.71
1697352774.22,0.15,0.08,1.06,1.9,2.5,12.6,0.7,0.05,0,0.71
1697352774.23,0.29,-0.04,0.58,2,2.2,11.8,0.7,0.05,0,0.71
1697352774.24,0.02,-0.09,1.33,-0.7,1.5,10.4,0.7,0.05,0,0.71
1697352774.25,0.18,0.09,1.05,-4.1,-0.4,8.3,0.7,0.05,0,0.71
1697352774.26,0.32,0.24,0.93,-5.6,-2.6,6.8,0.7,0.05,0,0.71
1697352774.27,0.1,0.23,1.11,-3.3,-4.1,5.5,0.7,0.05,0,0.71
1697352774.28,0.06,0.13,0.97,-0.5,-4.6,4.8,0.7,0.05,0,0.71
1697352774.29,0.09,-0,1.01,-0.2,-3.6,4.1,0.7,0.05,0,0.71
1697352774.3,0.03,0.1,1.12,-1.9,-2.4,3.5,0.7,0.05,0,0.71
1697352774.31,0.23,0.09,0.83,-3.5,-1,3.9,0.7,0.05,0,0.71
1697352774.32,0.24,0.15,0.94,-2.5,0,4.1,0.7,0.05,-0,0.71
1697352774.33,0.25,0.1,0.93,-0.2,1.5,4.4,0.7,0.05,-0,0.71
1697352774.34,0.18,0.01,1.11,-0.1,2.2,5.1,0.7,0.05,-0,0.71
1697352774.35,0.08,0.06,1.27,-0.8,2.3,5.6,0.7,0.05,-0,0.71
1697352774.36,0.26,0.07,0.78,-1.3,1.8,5.8,0.7,0.05,-0,0.71
1697352774.37,0.27,0.1,0.9,-0.1,1.4,5.9,0.7,0.05,-0,0.71
1697352774.38,0.16,0.07,1.14,0,1.2,6.2,0.7,0.05,-0,0.71
1697352774.39,0.06,0.11,1.19,0.2,0,6.3,0.7,0.05,-0,0.71
1697352774.4,0.12,0.15,1.27,0.4,-0.5,6.1,0.7,0.05,-0,0.71
1697352774.41,0.2,0.18,0.68,0.5,-1.2,6,0.7,0.05,-0,0.71
1697352774.42,0.19,0.07,0.89,0.5,-1.6,5.9,0.7,0.05,-0,0.71
1697352774.43,0.29,0.1,0.71,-0.5,-2,5.8,0.7,0.05,-0,0.72
1697352774.44,0.04,0.25,1.03,-2,-2,5.6,0.7,0.05,-0,0.72
1697352774.45,-0.04,0.27,1.11,-0.9,-2.1,5.5,0.7,0.05,-0,0.72
1697352774.46,0.19,0.06,0.96,2.3,-1.1,5.6,0.7,0.05,-0,0.72
1697352774.47,0.04,-0.03,1.3,3.1,0.5,5.8,0.7,0.05,-0,0.72
1697352774.48,-0.03,0.01,1.33,1.9,1.8,5.6,0.7,0.05,-0,0.72
1697352774.49,-0.03,0.01,1.33,1.9,1.8,5.6,0.7,0.05,-0,0.72
1697352774.5,0.2,0.08,1.05,1.9,1.8,5.6,0.7,0.05,-0,0.72
1697352774.51,0.2,0.08,1.05,1.9,1.8,5.6,0.7,0.05,-0,0.72
1697352774.52,0.2,0.08,1.05,1.9,1.8,5.6,0.7,0.05,-0,0.72
1697352774.53,0.2,0.08,1.05,1.9,1.8,5.6,0.7,0.05,-0,0.72
1697352774.54,0.2,0.08,1.05,1.9,1.8,5.6,0.7,0.05,-0,0.72
1697352774.55,0.2,0.08,1.05,1.9,1.8,5.6,0.7,0.05,-0,0.72
1697352774.56,0.2,0.08,1.05,1.9,1.8,5.6,0.7,0.05,-0,0.72
1697352774.57,0.2,0.08,1.05,1.9,1.8,5.6,0.7,0.05,-0,0.72
1697352774.58,0.2,0.08,1.05,1.9,1.8,5.6,0.7,0.05,-0,0.72
1697352774.59,0.2,0.08,1.05,1.9,1.8,5.6,0.7,0.05,-0,0.72
1697352774.6,0.2,0.08,1.05,1.9,1.8,5.6,0.7,0.05,-0,0.72
1697352774.61,0.2,0.08,1.05,1.9,1.8,5.6,0.7,0.05,-0,0.72
1697352774.62,0.2,0.08,1.05,1.9,1.8,5.6,0.7,0.05,-0,0.72
1697352774.63,0.2,0.08,1.05,1.9,1.8,5.6,0.7,0.05,-0,0.72
1697352774.64,0.2,0.08,1.05,1.9,1.8,5.6,0.7,0.05,-0,0.72
1697352774.65,0.2,0.08,1.05,1.9,1.8,5.6,0.7,0.05,-0,0.72
1697352774.66,0.2,0.08,1.05,1.9,1.8,5.6,0.7,0.05,-0,0.72
1697352774.67,0.14,0.01,1.13,0,2.7,4.8,0.69,0.05,-0,0.72
1697352774.68,0.18,-0.02,1.23,-1.7,1.8,4.6,0.69,0.05,-0,0.72
1697352774.69,0.29,0.1,0.85,-2.1,0.9,4,0.69,0.05,-0,0.72
1697352774.7,0.16,0.18,0.85,-2.1,0.9,4,0.69,0.05,-0,0.72
1697352774.71,0.07,0.07,1.01,-0.6,-2.1,2.9,0.69,0.05,-0,0.72
1697352774.72,0.24,-0.06,0.87,1.5,-3,2.2,0.69,0.05,-0,0.72
1697352774.73,0.15,-0.25,0.93,1,-3.2,1.2,0.69,0.05,-0,0.72
1697352774.74,0.1,-0.27,0.6,1,-3.2,1.2,0.69,0.05,-0,0.72
1697352774.75,0.07,-0.03,1.02,-4.8,-1.2,-0.3,0.69,0.05,-0,0.72
1697352774.76,0.19,0.14,1.17,-4.8,-1.2,-0.3,0.69,0.05,-0.01,0.72
1697352774.77,0.19,0.15,1.06,-1.8,0.9,-0.7,0.69,0.05,-0.01,0.72
1697352774.78,0.09,-0,1.22,-1.8,0.9,-0.7,0.69,0.05,-0.01,0.72
1697352774.79,0.09,-0,1.22,2.7,1.5,-0.3,0.69,0.05,-0.01,0.72
1697352774.8,0.21,-0.4,1.11,4.6,1.8,-0.5,0.69,0.05,-0.01,0.72
1697352774.81,0.21,-0.4,1.11,1.5,0.9,-1.1,0.69,0.05,-0.01,0.72
1697352774.82,0.32,-0.05,0.73,-2.6,-0.1,-2.1,0.69,0.05,-0.01,0.72
1697352774.83,0.21,0.08,1.04,-5.5,-0.8,-2.8,0.69,0.05,-0.01,0.72
1697352774.84,0.2,0.01,1.08,-3.9,-2.5,-3.6,0.69,0.05,-0.01,0.72
1697352774.85,0.16,-0.18,1.08,0.6,-3.6,-4.1,0.69,0.05,-0.01,0.72
1697352774.86,0.14,-0.4,0.95,4.7,-4.6,-4.4,0.69,0.05,-0.01,0.72
1697352774.87,0.05,-0.53,0.89,4.7,-5,-5.2,0.69,0.05,-0.01,0.72
1697352774.88,0.07,-0.31,0.79,0.2,-4.6,-6.1,0.69,0.05,-0.01,0.72
1697352774.89,0.07,-0.31,0.79,0.2,-4.6,-6.1,0.69,0.05,-0.01,0.72
1697352774.9,0,0,0.97,-6.8,-2.2,-7.7,0.69,0.05,-0.01,0.72
1697352774.91,0,0,0.97,-4.6,-0.3,-7.8,0.69,0.05,-0.01,0.72
1697352774.92,0.16,-0.19,0.91,0.7,1.7,-7.7,0.69,0.05,-0.01,0.72
1697352774.93,0.16,-0.19,0.91,4,3,-7.7,0.69,0.05,-0.01,0.72
1697352774.94,0.17,-0.45,1.01,3.4,3.6,-7.9,0.69,0.05,-0.01,0.72
1697352774.95,0.1,-0.24,1.1,-0.1,3.4,-8.5,0.69,0.05,-0.01,0.72
1697352774.96,0.11,0.04,0.95,-3.9,3,-9,0.69,0.05,-0.01,0.72
1697352774.97,0.11,0.04,0.95,-5.1,2,-9.1,0.69,0.05,-0.01,0.72
1697352774.98,-0.01,0,0.98,-2.4,0.7,-8,0.69,0.05,-0.01,0.72
1697352774.99,-0.01,0,0.98,2.3,-0.2,-7.3,0.69,0.05,-0.01,0.72
1697352775,0.13,-0.16,0.91,5.4,-1.4,-6.7,0.7,0.05,-0.01,0.72
1697352775.01,0.1,-0.32,1.1,4,-2.2,-6,0.7,0.05,-0.01,0.72
1697352775.02,0.02,-0.3,0.97,0.8,-2.7,-6,0.7,0.05,-0.01,0.72
1697352775.03,0.13,-0.12,0.88,-2.6,-2.9,-5.8,0.7,0.05,-0.01,0.72
1697352775.04,0.18,0.13,0.57,-2.4,-2.8,-5,0.7,0.05,-0.01,0.72
1697352775.05,0.03,0.2,1.25,0.3,-2.4,-3.9,0.7,0.05,-0.01,0.72
1697352775.06,0.03,0.2,1.25,0.3,-2.4,-3.9,0.7,0.05,-0.01,0.72
1697352775.07,0.03,0.2,1.25,0.3,-2.4,-3.9,0.7,0.05,-0.01,0.72
1697352775.08,0.03,0.2,1.25,0.3,-2.4,-3.9,0.7,0.05,-0.01,0.72
1697352775.09,0.03,0.2,1.25,0.3,-2.4,-3.9,0.7,0.05,-0.01,0.72
1697352775.1,0.03,0.2,1.25,0.3,-2.4,-3.9,0.7,0.05,-0.01,0.72
1697352775.11,0.03,0.2,1.25,0.3,-2.4,-3.9,0.7,0.05,-0.01,0.72
1697352775.12,0.03,0.2,1.25,0.3,-2.4,-3.9,0.7,0.05,-0.01,0.72
1697352775.13,0.03,0.2,1.25,0.3,-2.4,-3.9,0.7,0.05,-0.01,0.72
1697352775.14,0.03,0.2,1.25,0.3,-2.4,-3.9,0.7,0.05,-0.01,0.72
1697352775.15,0.03,0.2,1.25,0.3,-2.4,-3.9,0.7,0.05,-0.01,0.72
1697352775.16,0.03,0.2,1.25,0.3,-2.4,-3.9,0.7,0.05,-0.01,0.72
1697352775.17,0.03,0.2,1.25,0.3,-2.4,-3.9,0.7,0.05,-0.01,0.72
1697352775.18,0.03,0.2,1.25,0.3,-2.4,-3.9,0.7,0.05,-0.01,0.72
1697352775.19,0.03,0.2,1.25,0.3,-2.4,-3.9,0.7,0.05,-0.01,0.72
1697352775.2,0.03,0.2,1.25,0.3,-2.4,-3.9,0.7,0.05,-0.01,0.72
1697352775.21,0.03,0.2,1.25,0.3,-2.4,-3.9,0.7,0.05,-0.01,0.72
1697352775.22,0.03,0.2,1.25,0.3,-2.4,-3.9,0.7,0.05,-0.01,0.72
1697352775.23,0.03,0.2,1.25,0.3,-2.4,-3.9,0.7,0.05,-0.01,0.72
1697352775.24,0.03,0.2,1.25,0.3,-2.4,-3.9,0.7,0.05,-0.01,0.72
1697352775.25,0.03,0.2,1.25,0.3,-2.4,-3.9,0.7,0.05,-0.01,0.72
1697352775.26,0.03,0.2,1.25,0.3,-2.4,-3.9,0.7,0.05,-0.01,0.72
1697352775.27,0.03,0.2,1.25,0.3,-2.4,-3.9,0.7,0.05,-0.01,0.72
1697352775.28,0.21,0.12,1.02,3.1,-3.2,1.6,0.7,0.05,-0,0.72
1697352775.29,0.21,0.12,1.02,3.1,-3.2,1.6,0.7,0.05,-0,0.72
1697352775.3,0.12,-0.28,1.13,4.9,-3.9,1,0.7,0.05,-0,0.72
1697352775.31,0.12,-0.28,1.13,4.9,-3.9,1,0.7,0.05,-0,0.72
1697352775.32,0.11,-0.26,0.96,-1.3,-3.1,0.9,0.7,0.05,-0,0.72
1697352775.33,0.1,0.15,0.87,-5.9,-1.2,0,0.7,0.05,-0.01,0.72
1697352775.34,0.07,0.2,1.16,-5,0.4,0.1,0.7,0.05,-0.01,0.72
1697352775.35,0.1,0.17,1.06,-1.5,1.7,0.5,0.69,0.05,-0,0.72
1697352775.36,0.22,0.07,0.76,3.5,2,0.7,0.69,0.05,-0,0.72
1697352775.37,0,-0.24,1.29,5.7,1.7,1,0.69,0.05,-0,0.72
1697352775.38,0.08,-0.28,0.64,4.7,0.7,0.5,0.69,0.05,-0,0.72
1697352775.39,0.12,-0.18,1.05,0.5,0.5,0,0.69,0.05,-0,0.72
1697352775.4,0.1,0.07,0.75,-3.5,-0.5,-0.1,0.69,0.05,-0,0.72
1697352775.41,0.15,0.22,1.06,-3.5,-1.3,0,0.69,0.05,-0,0.72
1697352775.42,0.1,0.07,1,1.1,-2.1,0,0.69,0.05,-0,0.72
1697352775.43,0.08,-0.09,0.95,3.6,-2.7,0.5,0.69,0.05,-0,0.72
1697352775.44,0.1,-0.13,0.93,2.8,-2.9,0.6,0.69,0.05,-0,0.72
1697352775.45,-0.01,-0.11,0.83,0.5,-1.9,0.3,0.69,0.05,-0.01,0.72
1697352775.46,0.03,0.01,0.63,-1.5,-0.5,0.1,0.69,0.05,-0.01,0.72
1697352775.47,0,0.05,1.06,-2.5,1,0.4,0.69,0.05,-0.01,0.72
1697352775.48,0.23,0.05,0.91,-1.6,2.6,0.3,0.69,0.05,-0.01,0.72
1697352775.49,0.09,0.07,0.7,-0.1,3.4,0.3,0.69,0.05,-0,0.72
1697352775.5,0.06,-0.01,1.08,2,3.3,0.4,0.69,0.05,-0,0.72
1697352775.51,0.15,-0.12,1.04,2.9,2.5,0,0.69,0.05,-0,0.72
1697352775.52,0.25,-0.06,0.79,1.3,1.2,-0.1,0.69,0.05,-0,0.72
1697352775.53,0.12,-0.04,1.17,-0.9,-0.7,-0.2,0.69,0.05,-0,0.72
1697352775.54,0.12,-0.04,1.17,-0.9,-0.7,-0.2,0.69,0.05,-0,0.72
1697352775.55,0.14,0.05,0.9,-1.5,-3.2,-0.6,0.69,0.05,-0.01,0.72
1697352775.56,0.14,0.05,0.9,-1.5,-3.2,-0.6,0.69,0.05,-0.01,0.72
1697352775.57,0.1,-0.01,1.39,0.2,-3.5,-0.4,0.69,0.05,-0.01,0.72
1697352775.58,0.1,-0.12,1.18,0.3,-1.6,-0.4,0.69,0.05,-0.01,0.72
1697352775.59,-0.04,-0.03,1.12,-0.4,0.5,-0.3,0.69,0.05,-0.01,0.72
1697352775.6,-0.04,-0.03,1.12,-0.4,0.5,-0.3,0.69,0.05,-0.01,0.72
1697352775.61,0.16,-0.01,0.89,-0.7,2.1,0,0.69,0.05,-0.01,0.72
1697352775.62,0.16,-0.01,0.89,-0.7,2.1,0,0.69,0.05,-0.01,0.72
1697352775.63,0.1,0.03,1.23,1.5,3.2,0,0.69,0.05,-0.01,0.72
1697352775.64,0.1,0.03,1.23,1.5,3.2,0,0.69,0.05,-0.01,0.72
1697352775.65,0.11,-0.1,1.32,2.2,3.3,0.5,0.69,0.05,-0,0.72
1697352775.66,0.23,-0.02,1.03,1.2,2.2,0.2,0.69,0.05,-0,0.72
1697352775.67,0.23,-0.02,1.03,1.2,2.2,0.2,0.69,0.05,-0,0.72
1697352775.68,0.23,-0.02,1.03,1.2,2.2,0.2,0.69,0.05,-0,0.72
1697352775.69,0.23,-0.02,1.03,1.2,2.2,0.2,0.69,0.05,-0,0.72
1697352775.7,0.23,-0.02,1.03,1.2,2.2,0.2,0.69,0.05,-0,0.72
1697352775.71,0.23,-0.02,1.03,1.2,2.2,0.2,0.69,0.05,-0,0.72
1697352775.72,0.23,-0.02,1.03,1.2,2.2,0.2,0.69,0.05,-0,0.72
1697352775.73,0.23,-0.02,1.03,1.2,2.2,0.2,0.69,0.05,-0,0.72
1697352775.74,0.23,-0.02,1.03,1.2,2.2,0.2,0.69,0.05,-0,0.72
1697352775.75,0.23,-0.02,1.03,1.2,2.2,0.2,0.69,0.05,-0,0.72
1697352775.76,0.23,-0.02,1.03,1.2,2.2,0.2,0.69,0.05,-0,0.72
1697352775.77,0.23,-0.02,1.03,1.2,2.2,0.2,0.69,0.05,-0,0.72
1697352775.78,0.23,-0.02,1.03,1.2,2.2,0.2,0.69,0.05,-0,0.72
1697352775.79,0.23,-0.02,1.03,1.2,2.2,0.2,0.69,0.05,-0,0.72
1697352775.8,0.23,-0.02,1.03,1.2,2.2,0.2,0.69,0.05,-0,0.72
1697352775.81,0.23,-0.02,1.03,1.2,2.2,0.2,0.69,0.05,-0,0.72
1697352775.82,0.23,-0.02,1.03,1.2,2.2,0.2,0.69,0.05,-0,0.72
1697352775.83,0.23,-0.02,1.03,1.2,2.2,0.2,0.69,0.05,-0,0.72
1697352775.84,0.23,-0.02,1.03,1.2,2.2,0.2,0.69,0.05,-0,0.72
1697352775.85,0.23,-0.02,1.03,1.2,2.2,0.2,0.69,0.05,-0,0.72
1697352775.86,0.23,-0.02,1.03,1.2,2.2,0.2,0.69,0.05,-0,0.72
1697352775.87,0.23,-0.02,1.03,1.2,2.2,0.2,0.69,0.05,-0,0.72
1697352775.88,0.23,-0.02,1.03,1.2,2.2,0.2,0.69,0.05,-0,0.72
1697352775.89,0.23,-0.02,1.03,1.2,2.2,0.2,0.69,0.05,-0,0.72
1697352775.9,0.23,-0.02,1.03,1.2,2.2,0.2,0.69,0.05,-0,0.72
1697352775.91,-0,0.01,1.23,-2.1,3.1,0.6,0.69,0.05,-0.01,0.72
1697352775.92,0.08,0.16,0.99,-2.6,3.3,0.3,0.69,0.05,-0.01,0.72
1697352775.93,0.05,0.15,1.09,-1.5,2.4,0.5,0.69,0.05,-0.01,0.72
1697352775.94,-0.03,0.06,1.2,1.1,1.3,0.6,0.69,0.05,-0,0.72
1697352775.95,0.01,-0.24,0.74,-0.2,0.4,-0.1,0.69,0.05,-0,0.72
1697352775.96,0.01,-0.24,0.74,-0.2,0.4,-0.1,0.69,0.05,-0,0.72
1697352775.97,0.11,0.05,0.5,-6.6,0.3,-0.2,0.69,0.05,-0.01,0.72
1697352775.98,0.14,0.04,0.76,-4.7,1.2,-0.9,0.69,0.05,-0.01,0.72
1697352775.99,0.26,0.34,0.88,-4.7,1.2,-0.9,0.69,0.05,-0.01,0.72
1697352776,0.01,0.05,1.1,0.7,2,-0.3,0.69,0.05,-0.01,0.72
1697352776.01,-0.02,-0.12,1.29,5.9,2.8,0,0.69,0.05,-0.01,0.72
1697352776.02,-0.02,-0.12,1.29,5.9,2.8,0,0.69,0.05,-0,0.72
1697352776.03,0.1,-0.36,0.97,-3.8,2.8,-0.6,0.69,0.05,-0,0.72
1697352776.04,0.1,-0.36,0.97,-3.8,2.8,-0.6,0.69,0.05,-0,0.72
1697352776.05,0.21,0.2,0.98,-5.7,2.2,-0.7,0.69,0.05,-0,0.72
1697352776.06,0.21,0.2,0.98,-2.5,1,-0.1,0.69,0.05,-0,0.72
1697352776.07,0.2,0.13,1.02,2.8,-1,-0.4,0.69,0.05,-0,0.72
1697352776.08,0.18,-0.08,0.62,2.3,-2.7,0,0.69,0.05,-0,0.72
1697352776.09,0,-0.24,1.03,-2.7,-3.6,-0.4,0.69,0.05,-0,0.72
1697352776.1,0.07,-0.18,0.69,-5.2,-3.8,-1.5,0.69,0.05,-0.01,0.72
1697352776.11,-0.15,0,1.35,-7,-3.1,-1.6,0.69,0.05,-0.01,0.72
1697352776.12,-0.07,0.31,1.14,-5,-1.9,-1.2,0.69,0.05,-0.01,0.72
1697352776.13,-0.03,0.13,0.87,1.3,-0.2,-1.1,0.69,0.05,-0.01,0.72
1697352776.14,-0.09,-0.12,1.25,5.2,0.9,-1.5,0.7,0.05,-0.01,0.72
1697352776.15,0.11,-0.47,0.93,3.8,1.8,-2.4,0.7,0.05,-0.01,0.72
1697352776.16,0.11,-0.52,1.31,1.1,1.9,-2.9,0.7,0.05,-0.01,0.72
1697352776.17,0.09,-0.11,1.01,-4.7,2.2,-4.1,0.7,0.05,-0.01,0.72
1697352776.18,0.15,0.03,0.9,-5.4,2.5,-5,0.7,0.05,-0.01,0.72
1697352776.19,0.08,-0.07,1.16,-3.2,2.6,-4.4,0.7,0.05,-0.01,0.72
1697352776.2,0.08,0.01,1.22,-1.2,2,-4.1,0.7,0.05,-0.01,0.72
1697352776.21,0.11,-0.25,0.94,2.4,1,-4.1,0.7,0.05,-0.01,0.72
1697352776.22,0.04,-0.34,1.34,3.3,0.1,-4.1,0.7,0.05,-0.01,0.72
1697352776.23,0.04,-0.31,1.03,3.3,0.1,-4.1,0.7,0.05,-0.01,0.72
1697352776.24,0.16,0.06,1.1,-6.2,-0.7,-4.9,0.7,0.05,-0.01,0.71
1697352776.25,0.2,0.16,0.72,-5.9,-0.7,-4.7,0.7,0.05,-0.01,0.71
1697352776.26,0.17,0.12,0.89,-1.6,-0.3,-4.2,0.7,0.05,-0.01,0.71
1697352776.27,0.17,-0.07,1.21,2.6,0.1,-4,0.7,0.05,-0.01,0.71
1697352776.28,0.17,-0.3,0.76,5.2,0.8,-4.2,0.7,0.05,-0.01,0.71
1697352776.29,0.18,-0.36,0.95,5.2,0.8,-4.2,0.7,0.05,-0.01,0.71
1697352776.3,0.18,-0.36,0.95,1.2,0.8,-3.9,0.7,0.05,-0.01,0.71
1697352776.31,0.18,-0.36,0.95,1.2,0.8,-3.9,0.7,0.05,-0.01,0.71
1697352776.32,0.18,-0.36,0.95,1.2,0.8,-3.9,0.7,0.05,-0.01,0.71
1697352776.33,0.18,-0.36,0.95,1.2,0.8,-3.9,0.7,0.05,-0.01,0.71
1697352776.34,0.18,-0.36,0.95,1.2,0.8,-3.9,0.7,0.05,-0.01,0.71
1697352776.35,0.18,-0.36,0.95,1.2,0.8,-3.9,0.7,0.05,-0.01,0.71
1697352776.36,0.18,-0.36,0.95,1.2,0.8,-3.9,0.7,0.05,-0.01,0.71
1697352776.37,0.18,-0.36,0.95,1.2,0.8,-3.9,0.7,0.05,-0.01,0.71
1697352776.38,0.18,-0.36,0.95,1.2,0.8,-3.9,0.7,0.05,-0.01,0.71
1697352776.39,0.18,-0.36,0.95,1.2,0.8,-3.9,0.7,0.05,-0.01,0.71
1697352776.4,0.18,-0.36,0.95,1.2,0.8,-3.9,0.7,0.05,-0.01,0.71
1697352776.41,0.18,-0.36,0.95,1.2,0.8,-3.9,0.7,0.05,-0.01,0.71
1697352776.42,0.18,-0.36,0.95,1.2,0.8,-3.9,0.7,0.05,-0.01,0.71
1697352776.43,-0.01,-0.11,1.2,0.2,1.4,-0.6,0.7,0.05,-0.01,0.71
1697352776.44,0.09,-0.05,0.96,-1.3,1.7,-0.7,0.7,0.05,-0.01,0.71
1697352776.45,0.16,0.03,0.87,-1.8,1.1,-0.9,0.7,0.05,-0.01,0.71
1697352776.46,0.04,0.1,1.4,-2.6,0.5,-0.5,0.7,0.05,-0.01,0.71
1697352776.47,-0.06,0.13,0.94,0.8,0.4,-0.6,0.7,0.05,-0.01,0.71
1697352776.48,0.05,-0.02,1.16,2.6,0.4,-0.6,0.7,0.05,-0.01,0.71
1697352776.49,0.28,0.02,0.76,2.2,0.1,-0.7,0.7,0.05,-0.01,0.71
1697352776.5,0.18,-0.13,0.9,0.8,-0.3,-0.6,0.7,0.05,-0.01,0.71
1697352776.51,0.04,-0.17,1.02,-2.3,0,-1,0.7,0.05,-0.01,0.71
1697352776.52,0.01,0.05,0.92,-3.4,0.4,-1.1,0.7,0.05,-0.01,0.71
1697352776.53,0.02,0.15,0.72,-3,1.6,-0.6,0.7,0.05,-0.01,0.71
1697352776.54,0.11,0.04,0.79,0.1,2.3,-0.2,0.7,0.05,-0.01,0.71
1697352776.55,0.04,-0.03,0.97,1.8,2.3,0,0.7,0.05,-0.01,0.71
1697352776.56,0.23,-0.04,0.74,2,2.2,-0.4,0.7,0.05,-0.01,0.71
1697352776.57,0.16,-0.09,0.79,0.2,1.1,0,0.7,0.05,-0.01,0.71
1697352776.58,0.23,0.05,0.9,-1.6,0.3,0,0.7,0.05,-0.01,0.71
1697352776.59,0.23,0.05,0.9,-1.6,0.3,0,0.7,0.05,-0.01,0.71
1697352776.6,0.09,0.04,1.15,0,-2.2,-0.1,0.7,0.05,-0.01,0.71
1697352776.61,0.09,0.04,1.15,0,-2.2,-0.1,0.7,0.05,-0.01,0.71
1697352776.62,-0.02,-0.02,1,2.7,-2.1,0.9,0.7,0.05,-0.01,0.71
1697352776.63,-0.05,-0.28,1.2,2.7,-2.1,0.9,0.7,0.05,-0.01,0.71
1697352776.64,-0.05,-0.08,1,1.7,-0.1,0.1,0.7,0.05,-0.01,0.71
1697352776.65,-0.06,0,1.03,1.7,-0.1,0.1,0.7,0.05,-0.01,0.71
1697352776.66,-0.06,0.2,1.03,-3.2,1.5,0.8,0.7,0.05,-0.01,0.71
1697352776.67,0.08,0.09,1.12,-1.3,2.4,1.2,0.7,0.05,-0.01,0.71
1697352776.68,-0.06,0.1,1.27,0.9,2,1.1,0.7,0.05,-0.01,0.71
1697352776.69,-0.02,0.08,1.16,1.7,1.5,1.5,0.7,0.05,-0.01,0.71
1697352776.7,-0.02,0.08,1.16,1.7,1.5,1.5,0.7,0.05,-0,0.71
1697352776.71,0.02,-0.09,0.96,1.3,0,1.5,0.7,0.05,-0,0.71
1697352776.72,0.14,-0,1.16,-1.5,-1.9,0.7,0.7,0.05,-0.01,0.71
1697352776.73,0.02,0.15,1.05,-1.2,-2.2,0.6,0.7,0.05,-0.01,0.71
1697352776.74,-0.07,0.1,1.09,-1.2,-2.2,0.6,0.7,0.05,-0.01,0.71
1697352776.75,-0.08,-0.09,0.79,3.3,-1.5,1.3,0.7,0.05,-0.01,0.71
1697352776.76,-0.08,-0.09,0.79,3.3,-1.5,1.3,0.7,0.05,-0.01,0.71
1697352776.77,-0.04,-0.01,1,-1,1.7,0.7,0.7,0.05,-0.01,0.71
1697352776.78,-0.04,-0.01,1,-1,1.7,0.7,0.7,0.05,-0.01,0.71
1697352776.79,0.06,0.29,0.93,-3,3.1,0.9,0.7,0.05,-0.01,0.71
1697352776.8,0.12,0.21,0.9,-2.6,3.7,1.8,0.7,0.05,-0.01,0.71
1697352776.81,0.03,-0.05,0.94,1.9,3.7,2.3,0.7,0.05,-0,0.71
1697352776.82,0.03,-0.05,0.94,4.3,3.5,2.6,0.7,0.05,-0,0.71
1697352776.83,0.03,-0.05,0.94,4.3,3.5,2.6,0.7,0.05,-0,0.71
1697352776.84,0.03,-0.05,0.94,4.3,3.5,2.6,0.7,0.05,-0,0.71
1697352776.85,0.03,-0.05,0.94,4.3,3.5,2.6,0.7,0.05,-0,0.71
1697352776.86,0.03,-0.05,0.94,4.3,3.5,2.6,0.7,0.05,-0,0.71
1697352776.87,0.03,-0.05,0.94,4.3,3.5,2.6,0.7,0.05,-0,0.71
1697352776.88,0.03,-0.05,0.94,4.3,3.5,2.6,0.7,0.05,-0,0.71
1697352776.89,0.03,-0.05,0.94,4.3,3.5,2.6,0.7,0.05,-0,0.71
1697352776.9,0.03,-0.05,0.94,4.3,3.5,2.6,0.7,0.05,-0,0.71
1697352776.91,0.03,-0.05,0.94,4.3,3.5,2.6,0.7,0.05,-0,0.71
1697352776.92,0.03,-0.05,0.94,4.3,3.5,2.6,0.7,0.05,-0,0.71
1697352776.93,0.03,-0.05,0.94,4.3,3.5,2.6,0.7,0.05,-0,0.71
1697352776.94,0.03,-0.05,0.94,4.3,3.5,2.6,0.7,0.05,-0,0.71
1697352776.95,0.03,-0.05,0.94,4.3,3.5,2.6,0.7,0.05,-0,0.71
1697352776.96,-0.07,0.04,1.39,1.4,-1.4,2.3,0.7,0.05,-0,0.71
1697352776.97,0.11,-0.01,0.85,-0.5,-2,2.6,0.7,0.05,-0,0.71
1697352776.98,-0.16,0.21,1.27,-1.3,-2.2,2.3,0.7,0.05,-0,0.71
1697352776.99,-0.11,0.12,0.91,-0.6,-1.5,2.7,0.7,0.05,-0,0.71
1697352777,-0.26,0.08,1.5,0.3,-0.7,2.9,0.7,0.05,-0,0.72
1697352777.01,-0.1,0.25,0.96,0.6,0.6,3,0.7,0.05,-0,0.72
1697352777.02,0.04,0.09,0.86,1.3,1.5,3.4,0.7,0.05,-0,0.72
1697352777.03,0.13,0.21,0.96,1.9,2.1,4,0.7,0.05,-0,0.72
1697352777.04,0.19,0.24,0.86,1.7,2.6,4.4,0.7,0.05,-0,0.72
1697352777.05,0.32,0.38,0.88,0.1,2.2,5.5,0.7,0.05,-0,0.72
1697352777.06,0.11,0.5,1.01,0.8,1.3,6.7,0.7,0.05,-0,0.72
1697352777.07,0.11,0.39,1.01,2.5,0.4,8.9,0.7,0.05,-0,0.72
1697352777.08,-0.07,0.32,1.21,3.7,-0.3,10.5,0.69,0.05,-0,0.72
1697352777.09,-0.07,0.24,0.91,3.9,-1.5,12.1,0.69,0.05,-0,0.72
1697352777.1,-0.2,0.22,1.09,1.9,-1.8,13.6,0.69,0.05,-0,0.72
1697352777.11,-0.13,0.27,0.97,0.1,-1.2,14.8,0.69,0.05,-0,0.72
1697352777.12,-0.23,0.34,1.15,-1.1,0,15.3,0.69,0.05,-0,0.72
1697352777.13,-0.22,0.44,1.04,-0.3,1.8,15.4,0.69,0.05,-0,0.72
1697352777.14,-0.22,0.46,1.18,2.4,3.3,15.7,0.69,0.05,-0,0.72
1697352777.15,-0.21,0.45,1.53,4.2,3.6,15.8,0.69,0.05,-0,0.72
1697352777.16,-0.1,0.43,1.14,3.7,3.2,16.3,0.69,0.05,-0,0.72
1697352777.17,-0.03,0.53,1.08,2.4,2.5,16.6,0.69,0.05,0,0.73
1697352777.18,-0.03,0.53,1.08,2.4,2.5,16.6,0.69,0.05,0,0.73
1697352777.19,0.11,0.86,0.56,2.9,-0.3,19.7,0.68,0.05,0,0.73
1697352777.2,-0.03,0.94,1.25,4.8,-1.8,23.5,0.68,0.05,0,0.73
1697352777.21,-0.09,1.03,1.05,5.9,-1.8,26.5,0.68,0.05,0,0.73
1697352777.22,-0.09,1.03,1.05,5.9,-1.8,26.5,0.68,0.05,0,0.73
1697352777.23,0.03,0.98,1.02,5,-2,34.7,0.68,0.05,0,0.73
1697352777.24,0.03,0.98,1.02,5,-2,34.7,0.68,0.05,0,0.74
1697352777.25,-0.1,0.97,1.17,4,-0.2,40.3,0.67,0.05,0,0.74
1697352777.26,-0.1,0.97,1.17,4,-0.2,40.3,0.67,0.05,0,0.74
1697352777.27,-0.23,1.1,1.31,3.3,0.2,42.3,0.67,0.05,0,0.74
1697352777.28,-0.23,1.1,1.31,3.1,1.1,43.9,0.67,0.05,0,0.74
1697352777.29,0.06,0.9,0.83,3.3,0.9,45.1,0.66,0.05,0,0.75
1697352777.3,-0.06,1,1.15,2.3,0.8,45.3,0.66,0.05,0,0.75
1697352777.31,-0.11,0.96,1.13,0.6,0.4,45.7,0.66,0.05,0,0.75
1697352777.32,-0.06,1.13,0.86,-0.2,-0.3,45.7,0.65,0.05,0,0.76
1697352777.33,-0.22,0.96,1.01,-0.2,-0.3,45.7,0.65,0.05,0,0.76
1697352777.34,-0.22,0.96,1.01,-0.2,-0.3,45.7,0.65,0.05,0,0.76
1697352777.35,-0.22,0.96,1.01,-0.2,-0.3,45.7,0.65,0.05,0,0.76
1697352777.36,-0.22,0.96,1.01,-0.2,-0.3,45.7,0.65,0.05,0,0.76
1697352777.37,-0.22,0.96,1.01,-0.2,-0.3,45.7,0.65,0.05,0,0.76
1697352777.38,-0.22,0.96,1.01,-0.2,-0.3,45.7,0.65,0.05,0,0.76
1697352777.39,-0.22,0.96,1.01,-0.2,-0.3,45.7,0.65,0.05,0,0.76
1697352777.4,-0.22,0.96,1.01,-0.2,-0.3,45.7,0.65,0.05,0,0.76
1697352777.41,-0.22,0.96,1.01,-0.2,-0.3,45.7,0.65,0.05,0,0.76
1697352777.42,-0.22,0.96,1.01,-0.2,-0.3,45.7,0.65,0.05,0,0.76
1697352777.43,-0.22,0.96,1.01,-0.2,-0.3,45.7,0.65,0.05,0,0.76
1697352777.44,-0.22,0.96,1.01,-0.2,-0.3,45.7,0.65,0.05,0,0.76
1697352777.45,-0.22,0.96,1.01,-0.2,-0.3,45.7,0.65,0.05,0,0.76
1697352777.46,-0.22,0.96,1.01,-0.2,-0.3,45.7,0.65,0.05,0,0.76
1697352777.47,0.13,0.83,0.58,-3.6,-4.3,31.7,0.61,0.05,-0,0.79
1697352777.48,-0.08,0.56,0.95,-2,-4.1,30.9,0.61,0.05,-0,0.79
1697352777.49,-0.21,0.38,0.98,-1.3,-3.1,29.5,0.61,0.05,-0,0.79
1697352777.5,-0.21,0.38,1.06,-1.3,-0.7,27.7,0.61,0.05,-0,0.79
1697352777.51,-0.06,0.3,1.02,-1.6,2.2,25.6,0.61,0.05,-0,0.79
1697352777.52,-0.1,0.52,0.98,-1.8,3.8,24.8,0.6,0.05,-0,0.8
1697352777.53,-0.15,0.61,1.16,0.1,4.5,24,0.6,0.05,-0.01,0.8
1697352777.54,-0.28,0.41,1.45,0.5,3.6,23.7,0.6,0.05,-0,0.8
1697352777.55,0.06,0.34,0.91,-0.2,2.5,23.4,0.6,0.05,-0,0.8
1697352777.56,0.06,0.34,0.91,-0.2,2.5,23.4,0.6,0.05,-0,0.8
1697352777.57,0.07,0.26,1.29,-5.3,-0.8,21.5,0.6,0.05,-0,0.8
1697352777.58,0.07,0.26,1.29,-5.3,-0.8,21.5,0.59,0.05,-0.01,0.8
1697352777.59,-0.17,0.46,0.89,-6.9,-3.2,20.4,0.59,0.05,-0.01,0.8
1697352777.6,-0.08,0.2,1,1.4,-5.1,17.6,0.59,0.05,-0.01,0.81
1697352777.61,-0.21,0.03,1.03,1.4,-5.1,17.6,0.59,0.05,-0.01,0.81
1697352777.62,-0.21,0.03,1.03,2.9,-5.4,15.7,0.59,0.05,-0.01,0.81
1697352777.63,-0.29,0.14,0.72,1.8,-4.5,14.6,0.59,0.05,-0.01,0.81
1697352777.64,-0.29,0.14,0.72,0.8,-3.3,13.7,0.59,0.05,-0.01,0.81
1697352777.65,-0.37,0.09,1.05,0.2,-0.8,12.3,0.59,0.05,-0.01,0.81
1697352777.66,-0.22,0.2,1.13,-0.9,1,11.2,0.59,0.05,-0.01,0.81
1697352777.67,0.02,0.46,0.98,-2.8,2.1,11.3,0.58,0.05,-0.01,0.81
1697352777.68,0.07,0.39,1.1,-2,2.4,12.6,0.58,0.05,-0.01,0.81
1697352777.69,-0.04,0.27,0.9,1.7,1.9,13.5,0.58,0.05,-0.01,0.81
1697352777.7,-0.09,-0.02,1.42,1,0.9,14.2,0.58,0.05,-0.01,0.81
1697352777.71,-0.05,0,1.06,-1.8,-0.6,13.8,0.58,0.05,-0.01,0.81
1697352777.72,0.05,0.12,1,-3.2,-1.9,12.9,0.58,0.05,-0.01,0.81
1697352777.73,-0.13,-0.07,0.97,-3,-2.6,11.3,0.58,0.05,-0.01,0.81
1697352777.74,-0.06,0.05,1.13,-3,-2.2,8.8,0.58,0.05,-0.01,0.81
1697352777.75,-0.16,-0.09,0.79,-3,-2.2,8.8,0.58,0.05,-0.01,0.81
1697352777.76,-0.08,-0.19,1,0,-1.2,3,0.58,0.05,-0.01,0.82
1697352777.77,-0.05,-0.33,0.85,-0.1,0.1,0.3,0.58,0.05,-0.01,0.82
1697352777.78,-0.1,-0.49,0.86,-2,0.8,-3.1,0.58,0.05,-0.01,0.82
1697352777.79,-0.05,-0.28,0.93,-5.6,1.1,-6.3,0.58,0.05,-0.01,0.82
1697352777.8,-0.04,-0.06,1.19,-7.4,1.6,-8.6,0.58,0.05,-0.01,0.82
1697352777.81,-0.04,-0.06,1.19,-7.4,1.6,-8.6,0.58,0.05,-0.01,0.81
1697352777.82,-0.08,-0.22,0.93,-0.7,0.1,-10,0.58,0.05,-0.01,0.81
1697352777.83,-0.23,-0.35,1.19,0.1,0,-9.9,0.58,0.05,-0.01,0.81
1697352777.84,-0.28,-0.42,1.13,-1.3,0.3,-9.8,0.58,0.05,-0.01,0.81
1697352777.85,-0.32,-0.37,1.08,-1.3,0.3,-9.8,0.58,0.05,-0.01,0.81
1697352777.86,-0.32,-0.37,1.08,-3.5,0.8,-9.4,0.58,0.05,-0.01,0.81
1697352777.87,-0.32,-0.37,1.08,-3.5,0.8,-9.4,0.58,0.05,-0.01,0.81
1697352777.88,-0.32,-0.37,1.08,-3.5,0.8,-9.4,0.58,0.05,-0.01,0.81
1697352777.89,-0.32,-0.37,1.08,-3.5,0.8,-9.4,0.58,0.05,-0.01,0.81
1697352777.9,-0.32,-0.37,1.08,-3.5,0.8,-9.4,0.58,0.05,-0.01,0.81
1697352777.91,-0.32,-0.37,1.08,-3.5,0.8,-9.4,0.58,0.05,-0.01,0.81
1697352777.92,-0.32,-0.37,1.08,-3.5,0.8,-9.4,0.58,0.05,-0.01,0.81
1697352777.93,-0.32,-0.37,1.08,-3.5,0.8,-9.4,0.58,0.05,-0.01,0.81
1697352777.94,-0.32,-0.37,1.08,-3.5,0.8,-9.4,0.58,0.05,-0.01,0.81
1697352777.95,-0.32,-0.37,1.08,-3.5,0.8,-9.4,0.58,0.05,-0.01,0.81
1697352777.96,-0.32,-0.37,1.08,-3.5,0.8,-9.4,0.58,0.05,-0.01,0.81
1697352777.97,-0.32,-0.37,1.08,-3.5,0.8,-9.4,0.58,0.05,-0.01,0.81
1697352777.98,-0.32,-0.37,1.08,-3.5,0.8,-9.4,0.58,0.05,-0.01,0.81
1697352777.99,-0.32,-0.37,1.08,-3.5,0.8,-9.4,0.58,0.05,-0.01,0.81
1697352778,-0.32,-0.37,1.08,-3.5,0.8,-9.4,0.58,0.05,-0.01,0.81
1697352778.01,-0.32,-0.37,1.08,-3.5,0.8,-9.4,0.58,0.05,-0.01,0.81
1697352778.02,-0.32,-0.37,1.08,-3.5,0.8,-9.4,0.58,0.05,-0.01,0.81
1697352778.03,-0.33,-1.05,1.03,-4.7,1.8,-31.9,0.6,0.05,-0.01,0.8
1697352778.04,-0.33,-1.05,1.03,-3.8,2.9,-33.6,0.61,0.05,-0.01,0.79
1697352778.05,-0.18,-1.05,0.83,-5.6,4,-35.8,0.61,0.05,-0.01,0.79
1697352778.06,-0.18,-1.05,0.83,-8.2,4,-38.5,0.61,0.05,-0.01,0.79
1697352778.07,-0.15,-0.95,0.96,-8.5,3.8,-40.2,0.61,0.05,-0.01,0.79
1697352778.08,-0.15,-0.84,1.19,-7,2.9,-41.4,0.62,0.05,-0.01,0.79
1697352778.09,-0.24,-0.94,1.43,-2.9,1.3,-43,0.62,0.05,-0.01,0.78
1697352778.1,-0.13,-0.88,1.06,1.2,0.1,-44.3,0.62,0.05,-0.01,0.78
1697352778.11,-0.16,-0.94,1.11,2.2,-0.5,-44.4,0.63,0.05,-0.01,0.78
1697352778.12,-0.22,-1.02,0.94,1.6,-0.9,-44.5,0.63,0.05,-0.01,0.78
1697352778.13,-0.16,-0.96,1.04,-1.2,-0.6,-43.8,0.63,0.05,-0.01,0.77
1697352778.14,-0.07,-0.89,1.04,-3.5,0,-42.7,0.64,0.05,-0.01,0.77
1697352778.15,-0.19,-0.8,1.17,-3.6,0.9,-42,0.64,0.05,-0.01,0.77
1697352778.16,-0.15,-0.87,1.03,-2.1,1.7,-40.5,0.64,0.05,-0.01,0.77
1697352778.17,-0.09,-0.79,0.74,0.7,2.8,-39.2,0.64,0.05,-0.01,0.76
1697352778.18,-0.2,-1.17,0.83,1,2.5,-38.5,0.65,0.05,-0.01,0.76
1697352778.19,-0.24,-1.05,1.09,-1.1,2.2,-39.4,0.65,0.05,-0.01,0.76
1697352778.2,-0.24,-1.05,1.09,-1.1,2.2,-39.4,0.65,0.05,-0.01,0.76
1697352778.21,-0.24,-1.05,1.09,-1.1,2.2,-39.4,0.65,0.05,-0.01,0.76
1697352778.22,-0.24,-1.05,1.09,-1.1,2.2,-39.4,0.65,0.05,-0.01,0.76
1697352778.23,-0.24,-1.05,1.09,-1.1,2.2,-39.4,0.65,0.05,-0.01,0.76
1697352778.24,-0.24,-1.05,1.09,-1.1,2.2,-39.4,0.65,0.05,-0.01,0.76
1697352778.25,-0.24,-1.05,1.09,-1.1,2.2,-39.4,0.65,0.05,-0.01,0.76
1697352778.26,-0.24,-1.05,1.09,-1.1,2.2,-39.4,0.65,0.05,-0.01,0.76
1697352778.27,-0.24,-1.05,1.09,-1.1,2.2,-39.4,0.65,0.05,-0.01,0.76
1697352778.28,-0.24,-1.05,1.09,-1.1,2.2,-39.4,0.65,0.05,-0.01,0.76
1697352778.29,-0.17,-1.31,0.86,-2.2,1.6,-53.1,0.68,0.04,-0.01,0.73
1697352778.3,-0.15,-1.16,1.3,-4,2,-55.3,0.68,0.04,-0.01,0.73
1697352778.31,-0.15,-1.16,1.3,-4,2,-55.3,0.68,0.04,-0.01,0.73
1697352778.32,-0.13,-1.21,1.06,-0.1,0.8,-57.5,0.69,0.04,-0.01,0.73
1697352778.33,-0.13,-1.21,1.06,-0.1,0.8,-57.5,0.69,0.04,-0.01,0.73
1697352778.34,-0.08,-1.36,1.03,-0.7,-0.2,-58.9,0.7,0.04,-0.01,0.72
1697352778.35,-0.07,-1.22,0.88,-2.5,-1.6,-60.2,0.7,0.04,-0.01,0.72
1697352778.36,-0.14,-1.08,0.91,-3.1,-2.3,-61,0.7,0.04,-0.01,0.71
1697352778.37,-0.3,-1.21,1.44,-1.8,-2.6,-60.6,0.7,0.04,-0.01,0.71
1697352778.38,-0.17,-1.09,0.84,-0.3,-1.9,-60.5,0.71,0.04,-0.01,0.71
1697352778.39,-0.49,-1.21,1.32,1.9,-0.5,-59.3,0.71,0.04,-0.01,0.7
1697352778.4,-0.21,-1.37,0.48,2,1,-58.3,0.71,0.04,-0.01,0.7
1697352778.41,-0.2,-1.25,1.12,0.7,2.5,-57.5,0.72,0.04,-0.01,0.69
1697352778.42,0.01,-1.31,0.49,-0.6,3.5,-57,0.73,0.04,-0.01,0.69
1697352778.43,-0.23,-1.27,0.99,-1.7,4.5,-56.7,0.73,0.04,-0.01,0.68
1697352778.44,-0.14,-1.22,1,-0.9,4.9,-56.7,0.73,0.04,-0.01,0.68
1697352778.45,-0.19,-1.28,0.97,0,4.7,-57,0.74,0.04,-0.01,0.68
1697352778.46,-0.29,-1.18,1.17,0,4.7,-57.2,0.74,0.04,-0.01,0.68
1697352778.47,-0.03,-1.25,0.58,1.2,5.1,-58,0.74,0.04,-0.01,0.67
1697352778.48,-0.26,-1.25,1.02,1.2,5.1,-58,0.74,0.04,-0.01,0.67
1697352778.49,-0.2,-1.44,1.23,-0.4,4.7,-58.8,0.75,0.04,-0,0.66
1697352778.5,0,-1.26,1.17,-0.4,4.7,-58.8,0.75,0.04,-0,0.66
1697352778.51,-0.12,-1.17,0.94,0,2.5,-60.4,0.76,0.04,-0,0.65
1697352778.52,-0.39,-1.19,1.44,1,1.6,-60.9,0.76,0.04,-0,0.65
1697352778.53,-0.26,-0.88,0.9,2.8,0.7,-60.2,0.76,0.04,-0,0.64
1697352778.54,-0.09,-1.04,0.96,4.3,0.3,-58.9,0.77,0.04,-0,0.64
1697352778.55,-0.04,-0.9,0.86,5.3,0.2,-56.9,0.77,0.04,-0,0.64
1697352778.56,-0.01,-0.78,0.84,4.8,0.5,-53.4,0.77,0.04,-0,0.64
1697352778.57,-0.14,-0.73,1.01,5.4,1.2,-48.7,0.78,0.04,-0,0.63
1697352778.58,-0.02,-0.69,0.69,5.5,1.7,-44.2,0.78,0.04,0,0.63
1697352778.59,0.03,-0.67,0.68,5.5,1.7,-44.2,0.78,0.04,0,0.63
1697352778.6,-0.02,-0.57,0.78,3.5,1.9,-39.9,0.78,0.04,0,0.62
1697352778.61,-0.2,-0.57,1,2.5,2.2,-36.3,0.79,0.04,0,0.62
1697352778.62,-0.16,-0.68,1.02,3,2.1,-33,0.79,0.04,0,0.62
1697352778.63,-0.01,-0.63,0.71,3.8,2.3,-30.9,0.79,0.04,0,0.62
1697352778.64,-0.21,-0.67,1.08,3.7,2.2,-29.3,0.79,0.04,0,0.61
1697352778.65,-0.14,-0.68,0.82,3.7,2.5,-28.3,0.79,0.04,0,0.61
1697352778.66,-0.13,-0.5,1.01,3.7,2.5,-28.3,0.79,0.04,0,0.61
1697352778.67,-0.05,-0.45,1.03,1.8,3.1,-27.9,0.79,0.04,0,0.61
1697352778.68,-0.01,-0.25,0.96,1.8,3.7,-28.1,0.79,0.04,0,0.61
1697352778.69,-0.01,-0.25,0.96,2.6,4,-27.9,0.8,0.04,0,0.6
1697352778.7,-0.01,-0.25,0.96,2.6,4,-27.9,0.8,0.04,0,0.6
1697352778.71,-0.01,-0.25,0.96,2.6,4,-27.9,0.8,0.04,0,0.6
1697352778.72,-0.01,-0.25,0.96,2.6,4,-27.9,0.8,0.04,0,0.6
1697352778.73,-0.01,-0.25,0.96,2.6,4,-27.9,0.8,0.04,0,0.6
1697352778.74,-0.01,-0.25,0.96,2.6,4,-27.9,0.8,0.04,0,0.6
1697352778.75,-0.01,-0.25,0.96,2.6,4,-27.9,0.8,0.04,0,0.6
1697352778.76,-0.01,-0.25,0.96,2.6,4,-27.9,0.8,0.04,0,0.6
1697352778.77,-0.01,-0.25,0.96,2.6,4,-27.9,0.8,0.04,0,0.6
1697352778.78,-0.01,-0.25,0.96,2.6,4,-27.9,0.8,0.04,0,0.6
1697352778.79,-0.01,-0.25,0.96,2.6,4,-27.9,0.8,0.04,0,0.6
1697352778.8,-0.01,-0.25,0.96,2.6,4,-27.9,0.8,0.04,0,0.6
1697352778.81,-0.01,-0.25,0.96,2.6,4,-27.9,0.8,0.04,0,0.6
1697352778.82,-0.01,-0.25,0.96,2.6,4,-27.9,0.8,0.04,0,0.6
1697352778.83,0.04,0.71,0.71,8.3,-2.1,18.4,0.8,0.05,0.01,0.6
1697352778.84,-0.13,0.77,1.09,8.3,-1.6,21.6,0.8,0.05,0.01,0.6
1697352778.85,-0.16,0.94,1.03,6.7,-1.7,24.3,0.8,0.05,0.01,0.6
1697352778.86,-0.12,1.01,0.99,6.4,-0.8,27.9,0.79,0.05,0.01,0.6
1697352778.87,-0.06,1.06,0.98,7,0,30.4,0.79,0.05,0.01,0.61
1697352778.88,-0.07,1.06,1.2,7,0,30.4,0.79,0.05,0.01,0.61
1697352778.89,-0.01,0.88,1.13,4.9,0.1,36,0.79,0.05,0.01,0.61
1697352778.9,0.04,0.83,1.32,4.9,0.1,36,0.79,0.05,0.01,0.61
1697352778.91,-0.14,0.85,1.41,0,-1.3,36.3,0.78,0.06,0.01,0.62
1697352778.92,-0.04,0.95,1.01,0,-1.8,36.4,0.78,0.06,0.01,0.62
1697352778.93,-0.02,1.03,0.91,0.9,-1.6,37.1,0.78,0.06,0.01,0.62
1697352778.94,-0.24,1,1.37,0.9,-1.6,37.1,0.78,0.06,0.01,0.62
1697352778.95,-0.22,1.03,0.88,5.3,-1,39,0.78,0.06,0.01,0.63
1697352778.96,-0.22,1.03,0.88,5.3,-1,39,0.78,0.06,0.01,0.63
1697352778.97,-0.19,0.82,1.12,4.5,0.5,41.1,0.77,0.06,0.01,0.63
1697352778.98,-0.16,0.86,0.99,0.6,0.8,42.1,0.77,0.06,0.01,0.63
1697352778.99,-0.27,0.95,1,-2.6,0.9,43.4,0.77,0.06,0.01,0.64
1697352779,-0.02,1,0.86,-4.4,0.7,44.9,0.76,0.06,0.01,0.64
1697352779.01,-0.03,1.18,0.73,-4.4,0.7,44.9,0.76,0.06,0.01,0.64
1697352779.02,-0.27,1.23,0.87,0.1,0,49.3,0.76,0.06,0.01,0.64
1697352779.03,-0.32,1.12,1.41,0.1,0,49.3,0.76,0.06,0.01,0.65
1697352779.04,-0.24,0.97,0.5,3.2,0,50.7,0.76,0.06,0.01,0.65
1697352779.05,-0.49,0.91,1.14,4.2,0.5,50.8,0.75,0.06,0.01,0.66
1697352779.06,-0.49,0.91,1.14,2.2,1.4,51.2,0.75,0.06,0.01,0.66
1697352779.07,-0.4,0.89,1.09,0.4,1.5,51,0.75,0.06,0.01,0.66
1697352779.08,-0.29,1.03,0.96,-1.5,1.9,51.3,0.74,0.06,0.01,0.67
1697352779.09,-0.28,1.14,1.27,-0.7,2.2,52.1,0.74,0.06,0.01,0.67
1697352779.1,-0.09,1.22,0.85,2.2,2,52.8,0.74,0.06,0.01,0.67
1697352779.11,-0.2,1.16,1.46,3.8,2,53.9,0.73,0.06,0.01,0.68
1697352779.12,-0.14,1.08,0.85,4.2,2.3,54.2,0.73,0.06,0.01,0.68
1697352779.13,-0.26,0.95,1.3,1,2.5,53.9,0.73,0.06,0.01,0.68
1697352779.14,-0,0.91,0.89,-1.9,2.7,53.6,0.72,0.06,0.01,0.69
1697352779.15,0,1.07,0.77,-3.7,2.6,53.6,0.72,0.06,0.01,0.69
1697352779.16,-0.1,1.21,0.98,-2.2,2.6,53.8,0.72,0.06,0.01,0.69
1697352779.17,-0.2,1.28,1.19,0.7,2.5,54.1,0.71,0.06,0.01,0.7
1697352779.18,-0.07,1.22,0.78,3.1,2.4,54.6,0.71,0.06,0.01,0.7
1697352779.19,-0.01,1.07,1.07,3.7,0.6,54.8,0.71,0.06,0.01,0.7
1697352779.2,-0.11,0.8,0.81,0.9,0,55,0.7,0.06,0.01,0.71
1697352779.21,-0.29,1,1.27,0.9,0,55,0.7,0.06,0.01,0.71
1697352779.22,-0.29,1,1.27,0.9,0,55,0.7,0.06,0.01,0.71
1697352779.23,-0.29,1,1.27,0.9,0,55,0.7,0.06,0.01,0.71
1697352779.24,-0.29,1,1.27,0.9,0,55,0.7,0.06,0.01,0.71
1697352779.25,-0.29,1,1.27,0.9,0,55,0.7,0.06,0.01,0.71
1697352779.26,-0.29,1,1.27,0.9,0,55,0.7,0.06,0.01,0.71
1697352779.27,-0.29,1,1.27,0.9,0,55,0.7,0.06,0.01,0.71
1697352779.28,-0.29,1,1.27,0.9,0,55,0.7,0.06,0.01,0.71
1697352779.29,-0.29,1,1.27,0.9,0,55,0.7,0.06,0.01,0.71
1697352779.3,-0.29,1,1.27,0.9,0,55,0.7,0.06,0.01,0.71
1697352779.31,-0.29,1,1.27,0.9,0,55,0.7,0.06,0.01,0.71
1697352779.32,-0.29,1,1.27,0.9,0,55,0.7,0.06,0.01,0.71
1697352779.33,-0.29,1,1.27,0.9,0,55,0.7,0.06,0.01,0.71
1697352779.34,-0.29,1,1.27,0.9,0,55,0.66,0.06,0,0.75
1697352779.35,-0.17,1.03,1.06,1.9,0,57.1,0.65,0.06,0,0.76
1697352779.36,-0.17,1.03,1.06,1.9,0,57.1,0.65,0.06,0,0.76
1697352779.37,-0.13,0.88,1.03,1.9,-1.2,57.1,0.65,0.06,0,0.76
1697352779.38,-0.13,0.88,1.03,1.9,-1.2,57.1,0.64,0.06,0,0.76
1697352779.39,-0.18,1.01,0.84,-3.2,-0.2,56.3,0.64,0.06,0,0.77
1697352779.4,-0.16,1.11,0.75,-3.2,-0.2,56.3,0.64,0.06,0,0.77
1697352779.41,-0.16,1.11,0.75,-3.3,0.3,55.4,0.63,0.06,0,0.77
1697352779.42,-0.15,1.22,0.73,-1.7,1.5,54.9,0.63,0.06,0,0.78
1697352779.43,-0.34,1.08,0.86,1.1,2.4,54.7,0.62,0.05,0,0.78
1697352779.44,-0.22,0.97,0.88,3.6,2.7,53.8,0.62,0.05,0,0.78
1697352779.45,-0.22,0.97,0.88,2.7,3.3,53.3,0.62,0.05,0,0.79
1697352779.46,-0.16,0.95,1.08,0.2,3.4,52.7,0.61,0.05,0,0.79
1697352779.47,-0.24,1.04,1.17,-2.4,3.1,52.5,0.61,0.05,0,0.79
1697352779.48,-0.24,1.04,1.17,-4.8,1.8,53.2,0.61,0.05,0,0.79
1697352779.49,-0.12,1.14,1.01,-5.3,0.7,53.5,0.6,0.05,0,0.8
1697352779.5,-0.11,1.04,1.18,-3.5,0.2,53.9,0.6,0.05,-0,0.8
1697352779.51,-0.07,0.9,0.9,-0.9,-0.2,53.6,0.59,0.05,-0,0.8
1697352779.52,-0.19,0.7,1.14,0.9,-0.6,52.3,0.59,0.05,-0,0.81
1697352779.53,-0.2,0.34,1.14,0.3,-0.7,49.8,0.59,0.05,-0,0.81
1697352779.54,0.05,0.37,1.07,-2.2,-1,46.1,0.58,0.05,-0,0.81
1697352779.55,-0.25,0.42,1.27,-6,-0.2,41.6,0.58,0.05,-0,0.81
1697352779.56,-0.11,0.47,0.98,-7.8,0.2,37.5,0.58,0.05,-0,0.81
1697352779.57,-0.06,0.53,0.9,-5.8,0.8,33.2,0.58,0.05,-0,0.82
1697352779.58,-0.02,0.51,0.71,-3.3,2,29.9,0.57,0.05,-0,0.82
1697352779.59,0.06,0.27,0.74,-1,3.5,26.2,0.57,0.05,-0,0.82
1697352779.6,-0.22,0.26,0.99,-2,4.1,23.6,0.57,0.05,-0,0.82
1697352779.61,-0.16,0.15,1.1,-2,4.1,23.6,0.57,0.05,-0,0.82
1697352779.62,0.07,0.29,0.78,-7.4,3.2,20.6,0.57,0.05,-0,0.82
1697352779.63,-0.07,0.19,1.09,-7.5,2.5,19.3,0.57,0.05,-0.01,0.82
1697352779.64,-0.05,0.08,0.9,-5.9,1.4,18.3,0.56,0.05,-0.01,0.82
1697352779.65,-0.02,-0.27,0.83,-4.9,0.5,16.6,0.56,0.05,-0.01,0.82
1697352779.66,-0.02,-0.27,0.83,-4.9,0.5,16.6,0.56,0.05,-0.01,0.82
1697352779.67,-0.08,-0.54,1,-8.4,-2.5,5.9,0.56,0.05,-0.01,0.83
1697352779.68,0.04,-0.31,0.86,-8.3,-1.6,2.4,0.56,0.05,-0.01,0.83
1697352779.69,-0.26,-0.41,1.1,-8.3,-1.6,2.4,0.56,0.05,-0.01,0.83
1697352779.7,-0.14,-0.47,0.64,-5.6,0,-4.8,0.56,0.05,-0.01,0.83
1697352779.71,-0.01,-0.45,1.15,-5.6,0,-4.8,0.56,0.05,-0.01,0.83
1697352779.72,-0.16,-0.59,1.08,-4.3,0.4,-11.1,0.56,0.05,-0.01,0.82
1697352779.73,-0.16,-0.59,1.08,-4.3,0.4,-11.1,0.56,0.05,-0.01,0.82
1697352779.74,-0.16,-0.59,1.08,-4.3,0.4,-11.1,0.56,0.05,-0.01,0.82
1697352779.75,-0.16,-0.59,1.08,-4.3,0.4,-11.1,0.56,0.05,-0.01,0.82
1697352779.76,-0.16,-0.59,1.08,-4.3,0.4,-11.1,0.56,0.05,-0.01,0.82
1697352779.77,-0.16,-0.59,1.08,-4.3,0.4,-11.1,0.56,0.05,-0.01,0.82
1697352779.78,-0.16,-0.59,1.08,-4.3,0.4,-11.1,0.56,0.05,-0.01,0.82
1697352779.79,-0.16,-0.59,1.08,-4.3,0.4,-11.1,0.56,0.05,-0.01,0.82
1697352779.8,-0.16,-0.59,1.08,-4.3,0.4,-11.1,0.56,0.05,-0.01,0.82
1697352779.81,-0.16,-0.59,1.08,-4.3,0.4,-11.1,0.56,0.05,-0.01,0.82
1697352779.82,-0.16,-0.59,1.08,-4.3,0.4,-11.1,0.56,0.05,-0.01,0.82
1697352779.83,-0.16,-0.59,1.08,-4.3,0.4,-11.1,0.56,0.05,-0.01,0.82
1697352779.84,-0.16,-0.59,1.08,-4.3,0.4,-11.1,0.56,0.05,-0.01,0.82
1697352779.85,-0.16,-0.59,1.08,-4.3,0.4,-11.1,0.56,0.05,-0.01,0.82
1697352779.86,0.11,-0.87,0.61,-1.8,0.7,-35.6,0.59,0.04,-0.01,0.81
1697352779.87,-0.1,-1,1.01,-0.5,0.2,-37.2,0.59,0.04,-0.01,0.81
1697352779.88,-0.28,-0.89,1.05,0,0.3,-38.3,0.59,0.04,-0.01,0.8
1697352779.89,-0.21,-0.83,1.18,-1,0.3,-39.6,0.59,0.04,-0.01,0.8
1697352779.9,-0.03,-0.82,0.65,-2.5,0.7,-40,0.6,0.04,-0.01,0.8
1697352779.91,-0.03,-0.82,0.65,-3,1.1,-40.1,0.6,0.04,-0.01,0.8
1697352779.92,-0.23,-0.78,1.24,-2.8,0.8,-40.5,0.6,0.04,-0.01,0.8
1697352779.93,-0.23,-0.78,1.24,-2.8,0.8,-40.5,0.6,0.04,-0.01,0.8
1697352779.94,0.01,-1.02,0.66,0.3,-0.4,-40.9,0.61,0.04,-0.01,0.79
1697352779.95,0.01,-1.02,0.66,0.3,-0.4,-40.9,0.61,0.04,-0.01,0.79
1697352779.96,-0.18,-1,1.07,-0.5,-1.2,-42.3,0.62,0.04,-0.01,0.79
1697352779.97,-0.06,-0.93,0.61,-0.5,-1.2,-42.3,0.62,0.04,-0.01,0.79
1697352779.98,-0.22,-0.9,1.17,-2.6,-1.5,-44.6,0.62,0.04,-0.01,0.78
1697352779.99,0.07,-0.86,0.6,-2.6,-1.5,-44.6,0.62,0.04,-0.01,0.78
1697352780,-0.13,-0.94,0.86,-1.9,0.1,-46.7,0.63,0.04,-0.01,0.78
1697352780.01,-0.13,-0.94,0.86,-1.9,0.1,-46.7,0.63,0.04,-0.01,0.78
1697352780.02,-0.08,-0.94,0.63,0.4,0.7,-49.1,0.64,0.04,-0.01,0.77
1697352780.03,-0.29,-1.04,1.04,0.5,1.1,-49.4,0.64,0.04,-0.01,0.77
1697352780.04,-0.28,-1.05,1.29,-0.4,1.6,-50.3,0.64,0.04,-0.01,0.76
1697352780.05,-0.03,-0.96,0.51,-2.7,2.1,-50.9,0.65,0.04,-0.01,0.76
1697352780.06,-0.03,-0.96,0.51,-2.7,2.1,-50.9,0.65,0.04,-0.01,0.76
1697352780.07,-0.18,-0.75,1.08,-3.6,1.3,-51.1,0.65,0.04,-0.01,0.76
1697352780.08,-0.11,-0.83,0.91,-1,0.7,-51.1,0.65,0.04,-0.01,0.76
1697352780.09,-0.11,-0.83,0.91,-1,0.7,-51.1,0.66,0.04,-0.01,0.75
1697352780.1,-0.05,-0.94,0.85,2.1,-0.2,-50.8,0.66,0.04,-0.01,0.75
1697352780.11,-0.34,-1.04,1.2,3.1,-0.5,-50.6,0.66,0.04,-0.01,0.75
1697352780.12,-0.2,-1.15,1.17,1.4,-1.3,-50.3,0.67,0.04,-0.01,0.74
1697352780.13,0.08,-0.98,0.42,-1.2,-0.9,-50.8,0.67,0.04,-0.01,0.74
1697352780.14,-0.27,-0.91,1.15,-3.6,-0.7,-50.9,0.67,0.04,-0.01,0.74
1697352780.15,-0.09,-0.78,0.97,-3.5,-0.6,-50.5,0.68,0.04,-0.01,0.73
1697352780.16,-0.12,-0.76,0.77,-1.5,0.6,-50.1,0.68,0.04,-0.01,0.73
1697352780.17,-0.29,-0.94,1.35,1.2,2.1,-49.6,0.68,0.04,-0.01,0.73
1697352780.18,0.03,-1.06,0.54,2.3,3.5,-49.5,0.69,0.04,-0.01,0.73
1697352780.19,-0.01,-1.14,0.66,0.4,4.2,-50.2,0.69,0.04,-0.01,0.72
1697352780.2,-0.18,-1.06,0.91,-2.8,3,-52.1,0.69,0.04,-0.01,0.72
1697352780.21,-0.2,-0.87,1.25,-2.5,2.1,-52.8,0.7,0.04,-0.01,0.72
1697352780.22,-0.04,-0.84,0.8,0.1,1.4,-53.2,0.7,0.04,-0.01,0.71
1697352780.23,-0.24,-0.89,1.04,2.9,1.1,-53.7,0.7,0.04,-0.01,0.71
1697352780.24,-0.24,-1,1.1,3,0.8,-53.8,0.71,0.04,-0.01,0.71
1697352780.25,-0.1,-1.09,0.99,2.2,0,-54.3,0.71,0.04,-0.01,0.7
1697352780.26,-0.1,-1.09,0.99,2.2,0,-54.3,0.71,0.04,-0.01,0.7
1697352780.27,-0.1,-1.09,0.99,2.2,0,-54.3,0.71,0.04,-0.01,0.7
1697352780.28,-0.1,-1.09,0.99,2.2,0,-54.3,0.71,0.04,-0.01,0.7
1697352780.29,-0.1,-1.09,0.99,2.2,0,-54.3,0.71,0.04,-0.01,0.7
1697352780.3,-0.1,-1.09,0.99,2.2,0,-54.3,0.71,0.04,-0.01,0.7
1697352780.31,-0.1,-1.09,0.99,2.2,0,-54.3,0.71,0.04,-0.01,0.7
1697352780.32,-0.1,-1.09,0.99,2.2,0,-54.3,0.71,0.04,-0.01,0.7
1697352780.33,-0.1,-1.09,0.99,2.2,0,-54.3,0.71,0.04,-0.01,0.7
1697352780.34,-0.1,-1.09,0.99,2.2,0,-54.3,0.71,0.04,-0.01,0.7
1697352780.35,-0.1,-1.09,0.99,2.2,0,-54.3,0.71,0.04,-0.01,0.7
1697352780.36,-0.1,-1.09,0.99,2.2,0,-54.3,0.71,0.04,-0.01,0.7
1697352780.37,-0.1,-1.09,0.99,2.2,0,-54.3,0.71,0.04,-0.01,0.7
1697352780.38,-0.1,-1.09,0.99,0.2,1.8,-51.7,0.71,0.04,-0.01,0.7
1697352780.39,-0.34,-0.98,1.39,-0.2,1.7,-52.3,0.75,0.04,-0,0.66
1697352780.4,-0.31,-0.92,0.99,0.8,0.8,-52.9,0.76,0.04,-0,0.65
1697352780.41,-0.31,-0.92,0.99,0.8,0.8,-52.9,0.76,0.04,-0,0.65
1697352780.42,-0.08,-0.94,0.37,1.7,0.3,-54.2,0.76,0.04,-0,0.65
1697352780.43,-0.08,-0.94,0.37,1.7,0.3,-54.2,0.76,0.04,-0,0.64
1697352780.44,0,-0.85,0.55,1.9,-0.4,-54,0.77,0.04,-0,0.64
1697352780.45,0,-0.85,0.55,1.9,-0.4,-54,0.77,0.04,-0,0.64
1697352780.46,-0.24,-0.83,1.28,2.1,-0.6,-53.7,0.77,0.04,-0,0.63
1697352780.47,-0.15,-0.61,0.92,2.9,-0.3,-52.2,0.78,0.04,-0,0.63
1697352780.48,-0.15,-0.61,0.92,3.5,-0.2,-49.9,0.78,0.04,-0,0.62
1697352780.49,-0.04,-0.37,0.5,4,0,-46.3,0.78,0.04,-0,0.62
1697352780.5,-0.13,-0.33,1.43,5.3,0.7,-42.6,0.79,0.04,0,0.62
1697352780.51,-0.07,-0.41,0.53,4.9,1.2,-38.4,0.79,0.04,0,0.62
1697352780.52,-0.22,-0.45,1.43,3.4,1.5,-34.4,0.79,0.04,0,0.61
1697352780.53,0.1,-0.14,0.3,2.7,1.8,-30.1,0.79,0.04,0,0.61
1697352780.54,-0.19,-0.12,1.49,2.9,0.8,-26.2,0.79,0.05,0,0.61
1697352780.55,0.02,-0.14,1.02,3.6,0.5,-22.6,0.79,0.05,0,0.61
1697352780.56,-0.09,-0.04,1.03,3.3,-0.1,-19.2,0.79,0.05,0,0.61
1697352780.57,-0.1,0.08,1.52,4.2,-0.3,-16.1,0.8,0.05,0,0.6
1697352780.58,-0.06,0.2,1.2,5.7,-0.5,-12.4,0.8,0.05,0,0.6
1697352780.59,0.01,0.21,0.77,7.1,-1.1,-9.1,0.8,0.05,0,0.6
1697352780.6,-0.27,0.42,1.86,9,-1.1,-6,0.8,0.05,0,0.6
1697352780.61,0.12,0.35,0.32,9.2,-1.4,-2.6,0.8,0.05,0,0.6
1697352780.62,-0.24,0.38,1.58,7.9,-1.8,0.7,0.8,0.05,0,0.6
1697352780.63,0.01,0.37,0.94,6.1,-2,3.6,0.8,0.05,0,0.6
1697352780.64,-0.16,0.52,1.01,4.8,-2.4,6.7,0.8,0.05,0,0.6
1697352780.65,-0.26,0.68,1.44,5,-2.3,9.9,0.8,0.05,0,0.6
1697352780.66,-0.12,0.72,0.83,6.2,-1.9,12.9,0.8,0.05,0,0.6
1697352780.67,0.09,0.83,0.57,6.5,-2.3,13.8,0.79,0.05,0,0.6
1697352780.68,0.24,0.78,1.01,7.4,-2.8,17.4,0.79,0.05,0,0.61
1697352780.69,0.27,0.57,1.66,7.9,-4.3,20,0.79,0.05,0,0.61
1697352780.7,0.54,0.47,0.84,3.6,-5.7,23.3,0.79,0.05,0,0.61
1697352780.71,0.32,0.58,0.7,0.7,-5.1,23.7,0.79,0.05,0,0.61
1697352780.72,0.15,0.7,0.96,-0.7,-4,24.1,0.79,0.05,0,0.61
1697352780.73,-0.22,0.72,1.21,-0.7,-4,24.1,0.79,0.05,0,0.61
1697352780.74,-0.26,0.64,1.42,1.4,-0.3,26.6,0.79,0.05,0,0.62
1697352780.75,-0.26,0.64,1.42,1.4,-0.3,26.6,0.79,0.05,0,0.62
1697352780.76,-0.07,0.56,0.31,1.7,0.8,27.4,0.78,0.05,0,0.62
1697352780.77,-0.16,0.45,1.55,0.6,1.6,27.8,0.78,0.05,0,0.62
1697352780.78,-0.16,0.45,1.55,0.6,1.6,27.8,0.78,0.05,0,0.62
1697352780.79,-0.16,0.45,1.55,0.6,1.6,27.8,0.78,0.05,0,0.62
1697352780.8,-0.16,0.45,1.55,0.6,1.6,27.8,0.78,0.05,0,0.62
1697352780.81,-0.16,0.45,1.55,0.6,1.6,27.8,0.78,0.05,0,0.62
1697352780.82,-0.16,0.45,1.55,0.6,1.6,27.8,0.78,0.05,0,0.62
1697352780.83,-0.16,0.45,1.55,0.6,1.6,27.8,0.78,0.05,0,0.62
1697352780.84,-0.16,0.45,1.55,0.6,1.6,27.8,0.78,0.05,0,0.62
1697352780.85,-0.16,0.45,1.55,0.6,1.6,27.8,0.78,0.05,0,0.62
1697352780.86,-0.16,0.45,1.55,0.6,1.6,27.8,0.78,0.05,0,0.62
1697352780.87,-0.16,0.45,1.55,0.6,1.6,27.8,0.78,0.05,0,0.62
1697352780.88,-0.16,0.45,1.55,0.6,1.6,27.8,0.78,0.05,0,0.62
1697352780.89,-0.16,0.45,1.55,0.6,1.6,27.8,0.78,0.05,0,0.62
1697352780.9,-0.16,0.45,1.55,0.6,1.6,27.8,0.78,0.05,0,0.62
1697352780.91,-0.16,0.45,1.55,0.6,1.6,27.8,0.78,0.05,0,0.62
1697352780.92,-0.16,0.45,1.55,0.6,1.6,27.8,0.78,0.05,0,0.62
1697352780.93,-0.16,0.45,1.55,0.6,1.6,27.8,0.78,0.05,0,0.62
1697352780.94,-0.16,0.45,1.55,0.6,1.6,27.8,0.78,0.05,0,0.62
1697352780.95,-0.16,0.45,1.55,0.6,1.6,27.8,0.78,0.05,0,0.62
1697352780.96,-0.16,0.45,1.55,0.6,1.6,27.8,0.78,0.05,0,0.62
1697352780.97,-0.16,0.45,1.55,0.6,1.6,27.8,0.78,0.05,0,0.62
1697352780.98,-0.16,0.45,1.55,0.6,1.6,27.8,0.78,0.05,0,0.62
1697352780.99,-0.16,0.45,1.55,0.6,1.6,27.8,0.78,0.05,0,0.62
1697352781,-0.16,0.45,1.55,0.6,1.6,27.8,0.78,0.05,0,0.62
1697352781.01,-0.16,0.45,1.55,0.6,1.6,27.8,0.78,0.05,0,0.62
1697352781.02,-0.16,0.45,1.55,0.6,1.6,27.8,0.78,0.05,0,0.62
1697352781.03,-0.16,0.45,1.55,0.6,1.6,27.8,0.78,0.05,0,0.62
1697352781.04,-0.16,0.45,1.55,0.6,1.6,27.8,0.78,0.05,0,0.62
1697352781.05,-0.16,0.45,1.55,0.6,1.6,27.8,0.78,0.05,0,0.62
1697352781.06,-0.16,0.45,1.55,0.6,1.6,27.8,0.78,0.05,0,0.62
1697352781.07,-0.16,0.45,1.55,0.6,1.6,27.8,0.78,0.05,0,0.62
1697352781.08,-0.16,0.45,1.55,0.6,1.6,27.8,0.78,0.05,0,0.62
1697352781.09,-0.16,0.45,1.55,0.6,1.6,27.8,0.78,0.05,0,0.62
1697352781.1,-0.16,0.45,1.55,0.6,1.6,27.8,0.78,0.05,0,0.62
1697352781.11,-0.16,0.45,1.55,0.6,1.6,27.8,0.78,0.05,0,0.62
1697352781.12,-0.16,0.45,1.55,0.6,1.6,27.8,0.78,0.05,0,0.62
1697352781.13,-0.16,0.45,1.55,0.6,1.6,27.8,0.78,0.05,0,0.62
1697352781.14,-0.16,0.45,1.55,0.6,1.6,27.8,0.78,0.05,0,0.62
1697352781.15,-0.16,0.45,1.55,0.6,1.6,27.8,0.78,0.05,0,0.62
1697352781.16,-0.16,0.45,1.55,0.6,1.6,27.8,0.78,0.05,0,0.62
1697352781.17,-0.16,0.45,1.55,0.6,1.6,27.8,0.78,0.05,0,0.62
1697352781.18,-0.16,0.45,1.55,0.6,1.6,27.8,0.78,0.05,0,0.62
1697352781.19,-0.16,0.45,1.55,0.6,1.6,27.8,0.78,0.05,0,0.62
1697352781.2,-0.16,0.45,1.55,0.6,1.6,27.8,0.78,0.05,0,0.62
1697352781.21,-0.16,0.45,1.55,0.6,1.6,27.8,0.78,0.05,0,0.62
1697352781.22,-0.16,0.45,1.55,0.6,1.6,27.8,0.78,0.05,0,0.62
1697352781.23,-0.16,0.45,1.55,0.6,1.6,27.8,0.78,0.05,0,0.62
1697352781.24,-0.16,0.45,1.55,0.6,1.6,27.8,0.78,0.05,0,0.62
1697352781.25,-0.16,0.45,1.55,0.6,1.6,27.8,0.78,0.05,0,0.62
1697352781.26,-0.16,0.45,1.55,0.6,1.6,27.8,0.78,0.05,0,0.62
1697352781.27,-0.16,0.45,1.55,0.6,1.6,27.8,0.78,0.05,0,0.62
1697352781.28,-0.16,0.45,1.55,0.6,1.6,27.8,0.78,0.05,0,0.62
1697352781.29,-0.16,0.45,1.55,0.6,1.6,27.8,0.78,0.05,0,0.62
1697352781.3,-0.16,0.45,1.55,0.6,1.6,27.8,0.78,0.05,0,0.62
1697352781.31,-0.05,-0.02,0.66,0.6,1.6,27.8,0.78,0.05,0,0.62
1697352781.32,-0.05,-0.02,0.66,0.6,1.6,27.8,0.78,0.05,0,0.62
1697352781.33,-0.05,-0.02,0.66,0.6,1.6,27.8,0.78,0.05,0,0.62
1697352781.34,0.1,0.34,0.9,0.7,2,10.6,0.7,0.05,-0,0.71
1697352781.35,0.03,0.26,1.34,3.7,0.7,10.1,0.7,0.05,-0,0.71
1697352781.36,0.3,0.16,0.57,4.1,0,9,0.7,0.05,-0,0.72
1697352781.37,0.05,0.01,1.33,0.6,-0.8,8.5,0.7,0.05,-0,0.72
1697352781.38,0.05,0.01,1.33,0.6,-0.8,8.5,0.7,0.05,-0,0.72
1697352781.39,0.05,0.25,1.08,-2.3,-1.5,8.1,0.7,0.05,-0,0.72
1697352781.4,0.13,0.26,0.71,-2.3,-1.5,8.1,0.7,0.05,-0,0.72
1697352781.41,0.13,0.26,0.71,-1.7,-1.9,8,0.7,0.05,-0,0.72
1697352781.42,-0.15,0.21,1.3,-0.3,-1.6,8.5,0.69,0.05,-0,0.72
1697352781.43,-0.13,0.18,1.13,0.3,-1.2,9,0.69,0.05,-0,0.72
1697352781.44,-0.13,0.18,1.13,0,0,10.1,0.69,0.05,-0,0.72
1697352781.45,-0.02,0.11,0.83,1.3,2.1,10.7,0.69,0.05,-0,0.72
1697352781.46,-0.02,0.11,0.83,1.3,2.1,10.7,0.69,0.05,-0,0.72
1697352781.47,0.13,0.05,1.18,0.9,3.5,10.3,0.69,0.05,-0,0.72
1697352781.48,0.13,0.05,1.18,0.9,3.5,10.3,0.69,0.05,-0,0.72
1697352781.49,0.29,0.13,0.54,0,2.9,9.7,0.69,0.05,-0,0.72
1697352781.5,0.21,0.34,0.49,-1.3,1.5,9,0.69,0.05,-0,0.72
1697352781.51,-0.08,0.28,1.32,3,0.9,9.4,0.69,0.05,-0,0.72
1697352781.52,0.28,0.24,0.31,3.4,0.6,9.5,0.69,0.05,-0,0.72
1697352781.53,-0.17,0.02,1.31,0.6,0.1,9.2,0.69,0.05,-0,0.72
1697352781.54,0.04,0,1.06,-2.2,-0.6,9,0.69,0.05,-0,0.72
1697352781.55,-0.06,0.16,0.76,-2.5,-0.7,9.4,0.69,0.05,-0,0.73
1697352781.56,-0.1,0.17,1.27,-0.3,-1.2,9.1,0.69,0.05,-0,0.73
1697352781.57,0.19,0.21,0.79,1.4,-1.6,8.9,0.69,0.05,-0,0.73
1697352781.58,-0.06,0.14,1.2,1.3,-1.8,8.8,0.68,0.05,-0,0.73
1697352781.59,-0,0.02,1.12,0.6,-1.4,8.1,0.68,0.05,-0,0.73
1697352781.6,0,0.13,1.26,-0.2,-1.4,8.1,0.68,0.05,-0,0.73
1697352781.61,0.2,0.11,0.75,0,-0.7,8.2,0.68,0.05,-0,0.73
1697352781.62,-0.17,0.15,1.07,0.1,0.1,8.2,0.68,0.05,-0,0.73
1697352781.63,-0.11,0.08,1.23,0.2,1.1,8.2,0.68,0.05,-0,0.73
1697352781.64,0.02,0.14,0.58,-0.2,2.4,8.7,0.68,0.05,-0,0.73
1697352781.65,-0.2,0.09,1.51,-0.1,2.5,8.9,0.68,0.05,-0,0.73
1697352781.66,0.11,0.21,0.88,0,2,9.2,0.68,0.05,-0,0.73
1697352781.67,-0.1,0.15,1.01,0.4,1.6,9.3,0.68,0.05,-0,0.73
1697352781.68,-0.01,0.2,0.6,0.2,0.8,9.5,0.68,0.05,-0,0.73
1697352781.69,0.12,0.18,0.43,-0.1,-0.5,9.4,0.68,0.05,-0,0.73
1697352781.7,-0.2,0.19,1.63,0.1,-1,9.3,0.68,0.05,-0,0.73
1697352781.71,0.3,0.17,0.52,0.2,-1.6,9.3,0.68,0.05,-0,0.73
1697352781.72,0.3,0.17,0.52,0.2,-1.6,9.3,0.68,0.05,-0,0.73
1697352781.73,0.3,0.17,0.52,0.2,-1.6,9.3,0.68,0.05,-0,0.73
1697352781.74,0.3,0.17,0.52,0.2,-1.6,9.3,0.68,0.05,-0,0.73
1697352781.75,0.3,0.17,0.52,0.2,-1.6,9.3,0.68,0.05,-0,0.73
1697352781.76,0.3,0.17,0.52,0.2,-1.6,9.3,0.68,0.05,-0,0.73
1697352781.77,0.3,0.17,0.52,0.2,-1.6,9.3,0.68,0.05,-0,0.73
1697352781.78,0.3,0.17,0.52,0.2,-1.6,9.3,0.68,0.05,-0,0.73
1697352781.79,0.3,0.17,0.52,0.2,-1.6,9.3,0.68,0.05,-0,0.73
1697352781.8,0.3,0.17,0.52,0.2,-1.6,9.3,0.68,0.05,-0,0.73
1697352781.81,0.3,0.17,0.52,0.2,-1.6,9.3,0.68,0.05,-0,0.73
1697352781.82,0.3,0.17,0.52,0.2,-1.6,9.3,0.68,0.05,-0,0.73
1697352781.83,0.3,0.17,0.52,0.2,-1.6,9.3,0.68,0.05,-0,0.73
1697352781.84,0.3,0.17,0.52,0.2,-1.6,9.3,0.68,0.05,-0,0.73
1697352781.85,0.3,0.17,0.52,0.2,-1.6,9.3,0.68,0.05,-0,0.73
1697352781.86,0.3,0.17,0.52,0.2,-1.6,9.3,0.68,0.05,-0,0.73
1697352781.87,0.3,0.17,0.52,0.2,-1.6,9.3,0.68,0.05,-0,0.73
1697352781.88,0.3,0.17,0.52,0.2,-1.6,9.3,0.68,0.05,-0,0.73
1697352781.89,0.3,0.17,0.52,0.2,-1.6,9.3,0.68,0.05,-0,0.73
1697352781.9,0.3,0.17,0.52,0.2,-1.6,9.3,0.68,0.05,-0,0.73
1697352781.91,0.3,0.17,0.52,0.2,-1.6,9.3,0.68,0.05,-0,0.73
1697352781.92,0.3,0.17,0.52,0.2,-1.6,9.3,0.68,0.05,-0,0.73
1697352781.93,0.3,0.17,0.52,0.2,-1.6,9.3,0.68,0.05,-0,0.73
1697352781.94,0.3,0.17,0.52,0.2,-1.6,9.3,0.68,0.05,-0,0.73
1697352781.95,0.3,0.17,0.52,0.2,-1.6,9.3,0.68,0.05,-0,0.73
1697352781.96,0.3,0.17,0.52,0.2,-1.6,9.3,0.68,0.05,-0,0.73
1697352781.97,0.3,0.17,0.52,0.2,-1.6,9.3,0.68,0.05,-0,0.73
1697352781.98,0.3,0.17,0.52,0.2,-1.6,9.3,0.68,0.05,-0,0.73
1697352781.99,0.3,0.17,0.52,0.2,-1.6,9.3,0.68,0.05,-0,0.73
1697352782,0.3,0.17,0.52,0.2,-1.6,9.3,0.68,0.05,-0,0.73
1697352782.01,0.3,0.17,0.52,0.2,-1.6,9.3,0.68,0.05,-0,0.73
1697352782.02,0.3,0.17,0.52,0.2,-1.6,9.3,0.68,0.05,-0,0.73
1697352782.03,0.3,0.17,0.52,0.2,-1.6,9.3,0.68,0.05,-0,0.73
1697352782.04,-0.06,0.3,0.83,-0.8,-3.9,15.1,0.65,0.05,-0.01,0.76
1697352782.05,-0.19,0.3,1.72,-0.6,-3.8,15.2,0.65,0.05,-0.01,0.76
1697352782.06,0.11,0.27,0.65,-0.2,-3.7,15.1,0.65,0.05,-0.01,0.76
1697352782.07,-0.18,0.24,1.43,-0.8,-3,14.9,0.65,0.05,-0.01,0.76
1697352782.08,0.14,0.26,0.64,-2,-2,15,0.65,0.05,-0.01,0.76
1697352782.09,-0.1,0.32,0.91,-1.6,-0.7,15.3,0.65,0.05,-0.01,0.76
1697352782.1,-0.14,0.24,1.37,0,0.4,15.3,0.65,0.05,-0.01,0.76
1697352782.11,0.12,0.23,0.95,0.9,1.2,15.2,0.65,0.05,-0.01,0.76
1697352782.12,-0.08,0.29,0.9,0.5,2.1,15.5,0.64,0.05,-0.01,0.76
1697352782.13,-0.07,0.25,1.35,0.8,2.2,15.9,0.64,0.05,-0.01,0.76
1697352782.14,0.18,0.3,0.59,0.3,2,16.5,0.64,0.05,-0.01,0.77
1697352782.15,-0.13,0.36,1.34,0.6,1.8,16.9,0.64,0.05,-0.01,0.77
1697352782.16,-0.04,0.39,1.09,2.3,0.4,17.1,0.64,0.05,-0.01,0.77
1697352782.17,0.06,0.38,0.94,3.2,-1.2,17.6,0.64,0.05,-0.01,0.77
1697352782.18,-0.05,0.32,0.69,3.1,-2.2,18,0.64,0.05,-0.01,0.77
1697352782.19,-0.23,0.32,1.44,0.7,-2.3,18.4,0.64,0.05,-0.01,0.77
1697352782.2,0.03,0.52,0.82,-0.8,-2.5,19,0.64,0.05,-0.01,0.77
1697352782.21,-0.15,0.64,1.02,-0.1,-1,20.5,0.63,0.05,-0.01,0.77
1697352782.22,-0.13,0.66,1.55,2.1,-0.1,22.3,0.63,0.05,-0.01,0.77
1697352782.23,-0.13,0.66,1.55,2.1,-0.1,22.3,0.63,0.05,-0.01,0.77
1697352782.24,-0.33,0.68,1.55,3.7,2.3,26.7,0.63,0.05,-0.01,0.77
1697352782.25,-0.03,0.87,0.83,4.1,3.5,29.5,0.63,0.05,-0.01,0.78
1697352782.26,-0.03,0.87,0.83,4.1,3.5,29.5,0.63,0.05,-0.01,0.78
1697352782.27,-0.02,0.83,1.13,4.3,4.1,32,0.62,0.05,-0.01,0.78
1697352782.28,-0.04,0.86,0.56,4.7,3.9,36.9,0.62,0.05,-0.01,0.78
1697352782.29,0.01,0.73,0.68,2.4,3.5,41,0.62,0.05,-0.01,0.78
1697352782.3,0.01,0.73,0.68,2.4,3.5,41,0.62,0.05,-0.01,0.79
1697352782.31,-0.11,0.75,1.01,1.9,2.3,42.1,0.61,0.05,-0.01,0.79
1697352782.32,0.02,0.82,0.68,2,1.9,42.5,0.61,0.05,-0.01,0.79
1697352782.33,-0.26,0.83,1.14,3.4,1.4,42.5,0.61,0.05,-0.01,0.79
1697352782.34,-0.14,0.7,1.09,3.9,0.4,42.1,0.6,0.05,-0.01,0.8
1697352782.35,-0,0.63,0.85,1.5,-0.1,41,0.6,0.05,-0.01,0.8
1697352782.36,-0.06,0.64,1.08,-1,-0.2,40,0.6,0.05,-0.01,0.8
1697352782.37,0,0.81,0.83,-2.9,-0.2,39.1,0.59,0.05,-0.01,0.8
1697352782.38,-0.26,0.98,0.63,-2.7,0.1,38.7,0.59,0.05,-0.01,0.8
1697352782.39,-0.24,0.89,1.15,-0.1,0.8,38.4,0.59,0.05,-0.01,0.81
1697352782.4,-0.37,0.72,0.58,1.8,2.4,38.1,0.59,0.05,-0.01,0.81
1697352782.41,-0.47,0.62,1.16,1.2,4,37.1,0.59,0.05,-0.01,0.81
1697352782.42,-0.43,0.62,1.12,-0.3,5.2,36,0.58,0.05,-0.01,0.81
1697352782.43,-0.43,0.62,1.12,-0.3,5.2,36,0.58,0.05,-0.01,0.81
1697352782.44,-0.43,0.62,1.12,-0.3,5.2,36,0.58,0.05,-0.01,0.81
1697352782.45,-0.43,0.62,1.12,-0.3,5.2,36,0.58,0.05,-0.01,0.81
1697352782.46,-0.43,0.62,1.12,-0.3,5.2,36,0.58,0.05,-0.01,0.81
1697352782.47,-0.43,0.62,1.12,-0.3,5.2,36,0.58,0.05,-0.01,0.81
1697352782.48,-0.43,0.62,1.12,-0.3,5.2,36,0.58,0.05,-0.01,0.81
1697352782.49,-0.43,0.62,1.12,-0.3,5.2,36,0.58,0.05,-0.01,0.81
1697352782.5,-0.43,0.62,1.12,-0.3,5.2,36,0.58,0.05,-0.01,0.81
1697352782.51,-0.43,0.62,1.12,-0.3,5.2,36,0.58,0.05,-0.01,0.81
1697352782.52,-0.43,0.62,1.12,-0.3,5.2,36,0.58,0.05,-0.01,0.81
1697352782.53,-0.43,0.62,1.12,-0.3,5.2,36,0.58,0.05,-0.01,0.81
1697352782.54,-0.43,0.62,1.12,-0.3,5.2,36,0.58,0.05,-0.01,0.81
1697352782.55,-0.43,0.62,1.12,-0.3,5.2,36,0.58,0.05,-0.01,0.81
1697352782.56,-0.43,0.62,1.12,-0.3,5.2,36,0.58,0.05,-0.01,0.81
1697352782.57,0.13,0.57,0.55,0,3.3,35,0.54,0.05,-0.01,0.84
1697352782.58,0.13,0.57,0.55,0,3.3,35,0.54,0.05,-0.01,0.84
1697352782.59,0.01,0.68,0.56,-0.2,5.2,34.2,0.54,0.05,-0.01,0.84
1697352782.6,0.01,0.68,0.56,-0.2,5.2,34.2,0.54,0.05,-0.01,0.84
1697352782.61,-0.09,0.65,1.09,0,5.7,34.3,0.53,0.05,-0.01,0.84
1697352782.62,-0.04,0.68,0.94,0.9,5.4,34.7,0.53,0.05,-0.01,0.85
1697352782.63,-0.13,0.54,1.18,0.2,4.8,35.1,0.53,0.05,-0.01,0.85
1697352782.64,0.07,0.57,0.54,-1.6,4,35.8,0.53,0.05,-0.01,0.85
1697352782.65,0.02,0.64,1.11,-2.7,2.6,36.6,0.52,0.05,-0.01,0.85
1697352782.66,0.02,0.64,1.11,-2.3,1.5,36.9,0.52,0.05,-0.01,0.85
1697352782.67,-0.1,0.69,1.02,-1,0.9,37.1,0.52,0.04,-0.01,0.85
1697352782.68,-0.13,0.65,1.22,-0.2,0,37.4,0.51,0.04,-0.01,0.86
1697352782.69,0.07,0.52,0.6,-1.7,0.1,37.2,0.51,0.04,-0.01,0.86
1697352782.7,-0.17,0.59,1.23,-3.5,0.9,36.5,0.51,0.04,-0.01,0.86
1697352782.71,0.12,0.73,0.7,-4.9,1.8,35.9,0.51,0.04,-0.01,0.86
1697352782.72,0.03,0.75,0.71,-4.1,2.6,35.5,0.5,0.04,-0.01,0.86
1697352782.73,0.01,0.78,1.28,-0.4,3.4,35.1,0.5,0.04,-0.01,0.86
1697352782.74,0.1,0.59,0.6,2.8,3.5,35.1,0.5,0.04,-0.01,0.87
1697352782.75,-0.2,0.5,1.23,3.8,3.1,35.1,0.5,0.04,-0.01,0.87
1697352782.76,-0.04,0.52,1.3,2.1,2.2,35.2,0.49,0.04,-0.01,0.87
1697352782.77,-0.04,0.54,0.74,0.2,1.4,35.4,0.49,0.04,-0.01,0.87
1697352782.78,-0.12,0.57,1.12,0,0.4,35.3,0.49,0.04,-0.01,0.87
1697352782.79,-0.12,0.57,1.12,0,0.4,35.3,0.48,0.04,-0.01,0.87
1697352782.8,0.06,0.59,0.98,0.2,-0.1,35.3,0.48,0.04,-0.01,0.88
1697352782.81,-0.15,0.57,0.95,1.2,-0.5,35.3,0.48,0.04,-0.01,0.88
1697352782.82,-0.04,0.58,1.2,1.6,-1.4,35.1,0.47,0.04,-0.01,0.88
1697352782.83,-0.07,0.54,1.12,2.1,-1.9,34.6,0.47,0.04,-0.01,0.88
1697352782.84,-0.23,0.54,1.45,1.6,-2.3,34.2,0.47,0.04,-0.01,0.88
1697352782.85,-0.23,0.54,1.45,1.6,-2.3,34.2,0.47,0.04,-0.01,0.88
1697352782.86,0.01,0.53,0.86,0.3,-2.2,33.3,0.46,0.04,-0.01,0.89
1697352782.87,-0.02,0.63,1.22,-0.6,-2.6,32.8,0.46,0.04,-0.01,0.89
1697352782.88,0.02,0.62,1.3,-1.8,-2.8,32.6,0.46,0.04,-0.01,0.89
1697352782.89,-0,0.67,0.63,-1.8,-2.8,32.6,0.46,0.04,-0.01,0.89
1697352782.9,-0.17,0.69,1.23,-0.2,-2.7,32.5,0.45,0.04,-0.01,0.89
1697352782.91,0.01,0.45,0.86,-0.2,-2.7,32.5,0.45,0.04,-0.01,0.89
1697352782.92,-0.11,0.32,0.93,4.2,-1.8,31.6,0.45,0.04,-0.01,0.89
1697352782.93,-0.11,0.32,0.93,4.2,-1.8,31.6,0.45,0.04,-0.01,0.89
1697352782.94,-0.1,0.35,1.36,2.8,-1.8,31.2,0.44,0.04,-0.01,0.89
1697352782.95,-0.1,0.35,1.36,2.8,-1.8,31.2,0.44,0.04,-0.01,0.89
1697352782.96,-0.1,0.35,1.36,2.8,-1.8,31.2,0.44,0.04,-0.01,0.89
1697352782.97,-0.1,0.35,1.36,2.8,-1.8,31.2,0.44,0.04,-0.01,0.89
1697352782.98,-0.1,0.35,1.36,2.8,-1.8,31.2,0.44,0.04,-0.01,0.89
1697352782.99,-0.1,0.35,1.36,2.8,-1.8,31.2,0.44,0.04,-0.01,0.89
1697352783,-0.1,0.35,1.36,2.8,-1.8,31.2,0.44,0.04,-0.01,0.89
1697352783.01,-0.1,0.35,1.36,2.8,-1.8,31.2,0.44,0.04,-0.01,0.89
1697352783.02,-0.1,0.35,1.36,2.8,-1.8,31.2,0.44,0.04,-0.01,0.89
1697352783.03,-0.1,0.35,1.36,2.8,-1.8,31.2,0.44,0.04,-0.01,0.89
1697352783.04,-0.1,0.35,1.36,2.8,-1.8,31.2,0.44,0.04,-0.01,0.89
1697352783.05,-0.1,0.35,1.36,2.8,-1.8,31.2,0.44,0.04,-0.01,0.89
1697352783.06,-0.1,0.35,1.36,2.8,-1.8,31.2,0.44,0.04,-0.01,0.89
1697352783.07,-0.14,0.63,1.38,6.5,-2.6,33.1,0.41,0.05,-0.01,0.91
1697352783.08,0.03,0.4,0.82,4.2,-3.1,33,0.41,0.05,-0.01,0.91
1697352783.09,-0.18,0.38,1.41,-0.3,-3.7,32.8,0.4,0.05,-0.01,0.91
1697352783.1,-0.01,0.57,1.06,-2.3,-3.2,33.2,0.4,0.05,-0.01,0.91
1697352783.11,-0.17,0.81,0.97,-1.2,-1.9,34.4,0.4,0.05,-0.01,0.92
1697352783.12,-0.24,0.8,0.85,-0.3,-1.5,34.6,0.4,0.05,-0.01,0.92
1697352783.13,-0.23,0.71,1.31,3.6,-0.2,35,0.4,0.05,-0.01,0.92
1697352783.14,0.03,0.71,0.71,5.6,1.2,35.3,0.39,0.05,-0.01,0.92
1697352783.15,-0.09,0.47,1,4.8,2.2,36.4,0.39,0.05,-0.01,0.92
1697352783.16,-0.01,0.57,1.07,1,2,36.4,0.38,0.05,-0.01,0.92
1697352783.17,-0.09,0.86,0.99,-3.7,2.4,36.1,0.38,0.05,-0.01,0.92
1697352783.18,-0.05,1.07,0.81,-5.3,2.7,37.3,0.38,0.05,-0.01,0.92
1697352783.19,-0.04,1.15,0.77,-2.4,2.4,39.2,0.38,0.05,-0.01,0.93
1697352783.2,-0.12,0.93,1.22,2.6,2.2,40.7,0.37,0.05,-0.01,0.93
1697352783.21,-0.06,0.75,1.04,4.8,1.6,42,0.37,0.05,-0.01,0.93
1697352783.22,0.06,0.61,0.72,2,0.8,43.5,0.37,0.05,-0.01,0.93
1697352783.23,-0.12,0.66,1.55,2,0.8,43.5,0.37,0.05,-0.01,0.93
1697352783.24,0,0.83,0.65,-3.9,0.6,44,0.36,0.05,-0.01,0.93
1697352783.25,-0.18,0.82,1.02,-3.9,0.6,44,0.36,0.05,-0.01,0.93
1697352783.26,-0.11,0.99,1.05,1.4,2.3,44.7,0.35,0.05,-0.01,0.94
1697352783.27,-0.11,0.99,1.05,1.4,2.3,44.7,0.35,0.05,-0.01,0.94
1697352783.28,-0.07,0.71,0.99,5.5,2.1,45,0.35,0.04,-0.01,0.94
1697352783.29,0.1,0.58,0.37,6.5,1.6,44.8,0.34,0.04,-0.01,0.94
1697352783.3,-0.23,0.51,1.59,0.3,0.1,43.7,0.33,0.04,-0.01,0.94
1697352783.31,0.04,0.63,0.82,0.3,0.1,43.7,0.33,0.04,-0.01,0.94
1697352783.32,0.04,0.63,0.82,-2.4,0.1,42.8,0.33,0.04,-0.01,0.94
1697352783.33,-0.05,0.76,0.98,-2.6,0.3,42.5,0.33,0.04,-0.01,0.94
1697352783.34,-0.13,0.79,1.05,-3.5,0.7,42.2,0.32,0.04,-0.01,0.95
1697352783.35,-0.13,0.79,1.05,-2.6,1.4,41.5,0.32,0.04,-0.02,0.95
1697352783.36,-0.13,0.85,0.55,-1.4,2.3,41.6,0.32,0.04,-0.02,0.95
1697352783.37,-0.14,0.76,1.34,-0.4,2.7,41.6,0.31,0.04,-0.02,0.95
1697352783.38,-0.1,0.9,0.67,0.6,3,41.9,0.31,0.04,-0.02,0.95
1697352783.39,-0.02,0.68,1.24,0.4,3.3,41.7,0.31,0.04,-0.02,0.95
1697352783.4,-0.05,0.58,0.71,-1.3,3,41.5,0.3,0.04,-0.02,0.95
1697352783.41,0.1,0.64,0.8,-2.9,3.2,41.5,0.3,0.04,-0.02,0.95
1697352783.42,-0.27,0.81,1.12,-1.6,3.7,41.7,0.3,0.04,-0.02,0.95
1697352783.43,0.08,0.87,0.66,1.8,4.4,42.1,0.29,0.04,-0.02,0.96
1697352783.44,-0.14,0.8,1.16,5.1,4.1,42.1,0.29,0.04,-0.02,0.96
1697352783.45,-0.04,0.67,1.2,5.8,3.8,42.2,0.28,0.04,-0.02,0.96
1697352783.46,0.07,0.47,0.57,2.6,3.2,42,0.28,0.04,-0.02,0.96
1697352783.47,-0.04,0.54,0.78,2.6,3.2,42,0.28,0.04,-0.02,0.96
1697352783.48,-0.04,0.54,0.78,2.6,3.2,42,0.28,0.04,-0.02,0.96
1697352783.49,-0.04,0.54,0.78,2.6,3.2,42,0.28,0.04,-0.02,0.96
1697352783.5,-0.04,0.54,0.78,2.6,3.2,42,0.28,0.04,-0.02,0.96
1697352783.51,-0.04,0.54,0.78,2.6,3.2,42,0.28,0.04,-0.02,0.96
1697352783.52,-0.04,0.54,0.78,2.6,3.2,42,0.28,0.04,-0.02,0.96
1697352783.53,-0.04,0.54,0.78,2.6,3.2,42,0.28,0.04,-0.02,0.96
1697352783.54,-0.04,0.54,0.78,2.6,3.2,42,0.28,0.04,-0.02,0.96
1697352783.55,-0.04,0.54,0.78,2.6,3.2,42,0.28,0.04,-0.02,0.96
1697352783.56,-0.04,0.54,0.78,2.6,3.2,42,0.28,0.04,-0.02,0.96
1697352783.57,-0.04,0.54,0.78,2.6,3.2,42,0.28,0.04,-0.02,0.96
1697352783.58,-0.04,0.54,0.78,2.6,3.2,42,0.28,0.04,-0.02,0.96
1697352783.59,-0.04,0.54,0.78,2.6,3.2,42,0.28,0.04,-0.02,0.96
1697352783.6,0.08,0.78,0.61,-0.5,-1.4,41.8,0.24,0.04,-0.02,0.97
1697352783.61,-0.06,0.56,1.05,3.8,-1.4,41.6,0.23,0.04,-0.02,0.97
1697352783.62,-0.1,0.52,0.89,3.1,-1,41.7,0.22,0.04,-0.02,0.97
1697352783.63,-0.11,0.67,1.41,3.1,-1,41.7,0.22,0.04,-0.02,0.97
1697352783.64,-0.1,0.63,1.16,-0.8,-0.3,41.1,0.22,0.04,-0.02,0.97
1697352783.65,-0.08,0.8,0.6,-0.3,0.5,40.5,0.22,0.04,-0.02,0.98
1697352783.66,-0.16,0.71,1.17,-0.3,0.5,40.5,0.21,0.04,-0.02,0.98
1697352783.67,-0.03,0.73,0.45,1.8,1.6,40.7,0.21,0.04,-0.02,0.98
1697352783.68,-0.03,0.73,0.45,2.3,2.6,41.1,0.2,0.04,-0.02,0.98
1697352783.69,-0.19,1.07,1.84,2.1,3.4,40.9,0.2,0.04,-0.02,0.98
1697352783.7,0.03,0.59,0.46,2.9,2.6,41.5,0.2,0.04,-0.02,0.98
1697352783.71,-0.13,0.65,1.01,2.7,2.6,41.1,0.19,0.04,-0.02,0.98
1697352783.72,-0.01,0.73,1.18,-0.7,2.9,41.1,0.19,0.04,-0.02,0.98
1697352783.73,-0.14,0.81,0.94,-2.4,3.5,41.9,0.19,0.04,-0.02,0.98
1697352783.74,-0.12,0.99,1.29,-1.1,3.2,41.9,0.18,0.04,-0.02,0.98
1697352783.75,-0.01,0.71,1.23,1.7,2.9,42.5,0.18,0.04,-0.02,0.98
1697352783.76,-0.12,0.74,0.8,2.9,2.2,42.9,0.18,0.04,-0.02,0.98
1697352783.77,-0.13,0.58,1.4,3,2.3,43.4,0.17,0.03,-0.02,0.98
1697352783.78,0.15,0.67,0.58,0.9,2.2,42.9,0.17,0.03,-0.02,0.99
1697352783.79,-0.11,0.74,1.37,-2.4,1.2,42.8,0.16,0.03,-0.02,0.99
1697352783.8,-0,0.94,0.74,-3.9,0.6,43.1,0.16,0.03,-0.02,0.99
1697352783.81,-0.12,0.92,1.18,-1,0.7,43.1,0.16,0.03,-0.02,0.99
1697352783.82,0.03,0.8,0.83,2.7,0.4,43,0.15,0.03,-0.02,0.99
1697352783.83,-0.08,0.62,0.81,4.9,0.4,42.7,0.15,0.03,-0.02,0.99
1697352783.84,-0.06,0.48,0.84,2.3,-0.4,42.5,0.14,0.03,-0.02,0.99
1697352783.85,-0.1,0.7,1.2,-2.5,-1.6,41.9,0.14,0.03,-0.02,0.99
1697352783.86,0.02,0.83,0.39,-4.4,-2.3,41.6,0.14,0.03,-0.02,0.99
1697352783.87,-0.17,0.74,1.24,-3.2,-2.6,41.9,0.13,0.03,-0.02,0.99
1697352783.88,0.01,0.82,0.54,-3.3,-3,42.1,0.13,0.03,-0.02,0.99
1697352783.89,-0.23,0.81,1.23,-1.3,-2.6,41.7,0.13,0.03,-0.02,0.99
1697352783.9,-0.23,0.81,1.23,-1.3,-2.6,41.7,0.13,0.03,-0.02,0.99
1697352783.91,-0.23,0.73,1.13,-1.8,-1.3,42.1,0.12,0.03,-0.02,0.99
1697352783.92,-0.07,0.71,1.4,-1.3,-0.6,42.1,0.12,0.03,-0.02,0.99
1697352783.93,-0.11,0.66,0.75,-1.6,0,42.3,0.12,0.03,-0.02,0.99
1697352783.94,-0.11,0.66,0.75,-1.6,0,42.3,0.11,0.03,-0.02,0.99
1697352783.95,-0.22,0.83,1.38,-2.8,1.5,42.7,0.11,0.03,-0.02,0.99
1697352783.96,-0.06,0.82,1.15,0.4,3,43.4,0.1,0.03,-0.02,0.99
1697352783.97,-0.1,0.65,1.27,3.9,3.9,43.5,0.1,0.03,-0.02,0.99
1697352783.98,-0.1,0.65,1.27,3.9,3.9,43.5,0.1,0.03,-0.02,0.99
1697352783.99,-0.14,0.59,1.26,2.5,4.4,42.8,0.09,0.03,-0.02,0.99
1697352784,-0.14,0.59,1.26,2.5,4.4,42.8,0.09,0.03,-0.02,0.99
1697352784.01,-0.14,0.59,1.26,2.5,4.4,42.8,0.09,0.03,-0.02,0.99
1697352784.02,-0.14,0.59,1.26,2.5,4.4,42.8,0.09,0.03,-0.02,0.99
1697352784.03,-0.14,0.59,1.26,2.5,4.4,42.8,0.09,0.03,-0.02,0.99
1697352784.04,-0.14,0.59,1.26,2.5,4.4,42.8,0.09,0.03,-0.02,0.99
1697352784.05,-0.14,0.59,1.26,2.5,4.4,42.8,0.09,0.03,-0.02,0.99
1697352784.06,-0.14,0.59,1.26,2.5,4.4,42.8,0.09,0.03,-0.02,0.99
1697352784.07,-0.14,0.59,1.26,2.5,4.4,42.8,0.09,0.03,-0.02,0.99
1697352784.08,-0.14,0.59,1.26,2.5,4.4,42.8,0.09,0.03,-0.02,0.99
1697352784.09,-0.14,0.59,1.26,2.5,4.4,42.8,0.09,0.03,-0.02,0.99
1697352784.1,-0.14,0.59,1.26,2.5,4.4,42.8,0.09,0.03,-0.02,0.99
1697352784.11,-0.14,0.59,1.26,2.5,4.4,42.8,0.09,0.03,-0.02,0.99
1697352784.12,-0.14,0.59,1.26,2.5,4.4,42.8,0.09,0.03,-0.02,0.99
1697352784.13,-0.12,0.68,1.12,1,1.5,41.7,0.04,0.03,-0.02,1
1697352784.14,-0.01,0.58,0.91,0.8,2.1,41.8,0.04,0.03,-0.02,1
1697352784.15,-0.07,0.67,1,-0.2,2.8,41.6,0.03,0.03,-0.02,1
1697352784.16,-0.09,0.67,1.09,0,2.5,41.5,0.03,0.03,-0.02,1
1697352784.17,-0.07,0.68,0.69,0.1,2.5,41.6,0.03,0.03,-0.02,1
1697352784.18,-0.05,0.66,1.19,0.9,2.6,41.7,0.02,0.03,-0.02,1
1697352784.19,-0.01,0.55,0.74,2.3,2.3,41.2,0.02,0.03,-0.02,1
1697352784.2,-0.14,0.57,1.45,0.7,1.6,40.6,0.01,0.03,-0.02,1
1697352784.21,-0.07,0.62,1.14,-2.7,0.3,39.6,0.01,0.03,-0.03,1
1697352784.22,0.01,0.69,0.78,-2.7,-0.2,39.1,0.01,0.03,-0.03,1
1697352784.23,-0.12,0.66,1.4,-2.2,-1,38.5,0,0.03,-0.03,1
1697352784.24,0.05,0.7,0.73,-2,-1.7,38.3,0,0.03,-0.03,1
1697352784.25,-0.12,0.58,1.27,-1.8,-2.7,37.3,0,-0.03,0.03,-1
1697352784.26,-0.02,0.61,1.08,-2.9,-2.5,36.6,0.01,-0.03,0.03,-1
1697352784.27,-0.1,0.54,0.99,-2.8,-2.1,35.6,0.01,-0.03,0.03,-1
1697352784.28,-0.05,0.56,1.27,-1.7,-1.5,34.7,0.01,-0.03,0.03,-1
1697352784.29,0.15,0.41,0.46,0,-0.3,33.9,0.02,-0.03,0.03,-1
1697352784.3,0.15,0.41,0.46,0,-0.3,33.9,0.02,-0.03,0.03,-1
1697352784.31,-0.2,0.53,1.43,-0.1,-0.7,32.6,0.02,-0.03,0.03,-1
1697352784.32,-0,0.48,0.51,-0.9,1,32.4,0.02,-0.03,0.03,-1
1697352784.33,-0,0.48,0.51,-0.9,1,32.4,0.02,-0.03,0.03,-1
1697352784.34,-0.02,0.47,1.19,0,1.7,32.1,0.03,-0.03,0.03,-1
1697352784.35,0.05,0.56,0.47,0,1.7,32.1,0.03,-0.03,0.03,-1
1697352784.36,0.05,0.56,0.47,0,2.1,32.6,0.03,-0.03,0.03,-1
1697352784.37,0.03,0.56,0.86,0.2,1.4,33,0.04,-0.03,0.03,-1
1697352784.38,0.03,0.56,0.86,0.4,1.1,33.2,0.04,-0.03,0.03,-1
1697352784.39,-0.04,0.55,0.79,-0.4,1.4,33.4,0.04,-0.03,0.03,-1
1697352784.4,-0.08,0.51,1.09,-2,2.1,33.6,0.05,-0.03,0.03,-1
1697352784.41,-0.08,0.56,0.78,-2.4,2.8,33.4,0.05,-0.03,0.03,-1
1697352784.42,-0.12,0.64,1.37,-2.4,3.6,33.5,0.05,-0.03,0.03,-1
1697352784.43,0.05,0.68,0.73,-1.4,4.3,33.5,0.05,-0.03,0.03,-1
1697352784.44,-0.07,0.69,1.19,-0.2,4.2,33.6,0.06,-0.02,0.03,-1
1697352784.45,-0.06,0.71,1.16,2.3,4.3,33.5,0.06,-0.02,0.03,-1
1697352784.46,-0.02,0.4,0.75,2.3,4.3,33.5,0.06,-0.02,0.03,-1
1697352784.47,0.01,0.42,0.72,1.1,6.6,32.4,0.07,-0.02,0.03,-1
1697352784.48,0.17,0.57,1.17,-1.3,7.6,31.3,0.07,-0.02,0.03,-1
1697352784.49,0.07,0.63,1.02,-0.6,5.5,31.8,0.07,-0.02,0.03,-1
1697352784.5,0.07,0.67,1.02,-1.7,3.5,32.5,0.07,-0.02,0.03,-1
1697352784.51,0.02,0.49,1.17,3.2,1.7,31.3,0.08,-0.02,0.03,-1
1697352784.52,0.02,0.49,1.17,3.2,1.7,31.3,0.08,-0.02,0.03,-1
1697352784.53,0.02,0.49,1.17,3.2,1.7,31.3,0.08,-0.02,0.03,-1
1697352784.54,0.02,0.49,1.17,3.2,1.7,31.3,0.08,-0.02,0.03,-1
1697352784.55,0.02,0.49,1.17,3.2,1.7,31.3,0.08,-0.02,0.03,-1
1697352784.56,0.02,0.49,1.17,3.2,1.7,31.3,0.08,-0.02,0.03,-1
1697352784.57,0.02,0.49,1.17,3.2,1.7,31.3,0.08,-0.02,0.03,-1
1697352784.58,0.02,0.49,1.17,3.2,1.7,31.3,0.08,-0.02,0.03,-1
1697352784.59,0.02,0.49,1.17,3.2,1.7,31.3,0.08,-0.02,0.03,-1
1697352784.6,0.02,0.49,1.17,3.2,1.7,31.3,0.08,-0.02,0.03,-1
1697352784.61,0.02,0.49,1.17,3.2,1.7,31.3,0.08,-0.02,0.03,-1
1697352784.62,0.02,0.49,1.17,3.2,1.7,31.3,0.08,-0.02,0.03,-1
1697352784.63,0.02,0.49,1.17,3.2,1.7,31.3,0.08,-0.02,0.03,-1
1697352784.64,0.02,0.49,1.17,3.2,1.7,31.3,0.08,-0.02,0.03,-1
1697352784.65,-0.03,0.85,0.95,-4.1,2.5,31.1,0.12,-0.02,0.03,-0.99
1697352784.66,-0.06,0.59,1.3,-0.7,2,31.8,0.12,-0.02,0.03,-0.99
1697352784.67,0.05,0.45,0.88,1.7,1.2,32.1,0.12,-0.02,0.03,-0.99
1697352784.68,-0.06,0.38,0.94,1.7,1.2,32.1,0.12,-0.02,0.03,-0.99
1697352784.69,-0.05,0.38,1.42,0.1,0.7,31,0.12,-0.02,0.03,-0.99
1697352784.7,-0.02,0.39,1.3,-0.2,0.7,30.7,0.13,-0.02,0.03,-0.99
1697352784.71,0.06,0.55,0.8,-1.8,-0.6,29.1,0.13,-0.02,0.03,-0.99
1697352784.72,0.06,0.55,0.8,0,-1.3,28.2,0.13,-0.02,0.03,-0.99
1697352784.73,-0,0.56,1.54,2.1,-2.6,27.6,0.14,-0.02,0.03,-0.99
1697352784.74,0.17,0.57,0.52,3.1,-3.8,27.8,0.14,-0.02,0.03,-0.99
1697352784.75,-0.03,0.49,1.23,3.7,-4.8,27.5,0.14,-0.02,0.03,-0.99
1697352784.76,0.18,0.45,0.78,2.3,-5.4,27.5,0.14,-0.02,0.03,-0.99
1697352784.77,0.01,0.31,0.54,-1,-5.9,27.1,0.14,-0.02,0.03,-0.99
1697352784.78,-0.03,0.36,1.27,-5.4,-6.4,27.1,0.15,-0.02,0.03,-0.99
1697352784.79,0.1,0.56,0.67,-5.5,-5.9,27.3,0.15,-0.02,0.03,-0.99
1697352784.8,0.04,0.87,0.73,0.2,-4.8,28.7,0.15,-0.02,0.03,-0.99
1697352784.81,-0.21,0.74,1.5,5.1,-3.5,29.2,0.16,-0.02,0.03,-0.99
1697352784.82,-0.07,0.42,0.99,3.8,-1.6,29.7,0.16,-0.02,0.03,-0.99
1697352784.83,-0,0.3,0.72,-1,0,29.8,0.16,-0.02,0.03,-0.99
1697352784.84,-0.03,0.31,1.4,-5.2,0.8,29.7,0.16,-0.02,0.03,-0.99
1697352784.85,0.06,0.58,0.47,-6.7,1.9,30.3,0.16,-0.02,0.03,-0.99
1697352784.86,-0.1,0.79,0.9,-6.2,1.9,30.4,0.17,-0.02,0.03,-0.98
1697352784.87,-0.12,0.8,1.25,-1.6,2.9,30.8,0.17,-0.02,0.03,-0.98
1697352784.88,0.04,0.55,0.99,2.6,2.7,31.4,0.17,-0.02,0.03,-0.98
1697352784.89,-0.01,0.54,0.84,5.4,2.8,31.5,0.18,-0.02,0.03,-0.98
1697352784.9,-0.18,0.43,1.48,4.4,2.2,31.5,0.18,-0.02,0.03,-0.98
1697352784.91,0.07,0.36,0.42,2.5,2.1,31.3,0.18,-0.02,0.03,-0.98
1697352784.92,-0.18,0.46,1.39,0.3,2.5,30.6,0.18,-0.02,0.03,-0.98
1697352784.93,-0.04,0.45,1,-2.2,2.3,30.3,0.19,-0.02,0.03,-0.98
1697352784.94,-0.01,0.75,0.62,-4.5,2.6,29.8,0.19,-0.02,0.03,-0.98
1697352784.95,-0.01,0.75,0.62,-4.5,2.6,29.8,0.19,-0.02,0.03,-0.98
1697352784.96,-0,0.67,0.75,-0.5,5.1,29.8,0.2,-0.02,0.03,-0.98
1697352784.97,-0,0.67,0.75,-0.5,5.1,29.8,0.2,-0.02,0.03,-0.98
1697352784.98,-0.05,0.45,1.12,4.3,6.9,29.9,0.2,-0.01,0.03,-0.98
1697352784.99,-0.06,0.34,1,2.4,6.2,29.9,0.2,-0.01,0.03,-0.98
1697352785,0.04,0.61,0.46,-4.4,7,30.2,0.21,-0.01,0.03,-0.98
1697352785.01,-0.13,0.78,1.26,-2.9,6.9,31.5,0.21,-0.01,0.03,-0.98
1697352785.02,0.09,0.8,0.53,1.4,6.3,32.6,0.21,-0.01,0.03,-0.98
1697352785.03,0.09,0.8,0.53,1.4,6.3,32.6,0.21,-0.01,0.03,-0.98
1697352785.04,0.09,0.77,0.56,4.8,4.6,34.1,0.21,-0.01,0.03,-0.98
1697352785.05,0.05,0.64,1.21,4.8,4.6,34.1,0.21,-0.01,0.03,-0.98
1697352785.06,0.05,0.64,1.21,4.8,4.6,34.1,0.21,-0.01,0.03,-0.98
1697352785.07,0.05,0.64,1.21,4.8,4.6,34.1,0.21,-0.01,0.03,-0.98
1697352785.08,0.05,0.64,1.21,4.8,4.6,34.1,0.21,-0.01,0.03,-0.98
1697352785.09,0.05,0.64,1.21,4.8,4.6,34.1,0.21,-0.01,0.03,-0.98
1697352785.1,0.05,0.64,1.21,4.8,4.6,34.1,0.21,-0.01,0.03,-0.98
1697352785.11,0.05,0.64,1.21,4.8,4.6,34.1,0.21,-0.01,0.03,-0.98
1697352785.12,0.05,0.64,1.21,4.8,4.6,34.1,0.21,-0.01,0.03,-0.98
1697352785.13,0.05,0.64,1.21,4.8,4.6,34.1,0.21,-0.01,0.03,-0.98
1697352785.14,0.05,0.64,1.21,4.8,4.6,34.1,0.21,-0.01,0.03,-0.98
1697352785.15,0.05,0.64,1.21,4.8,4.6,34.1,0.21,-0.01,0.03,-0.98
1697352785.16,0.05,0.64,1.21,4.8,4.6,34.1,0.21,-0.01,0.03,-0.98
1697352785.17,0.03,0.53,1.34,-2.2,-2.1,35.7,0.25,-0.01,0.03,-0.97
1697352785.18,0.07,0.86,0.4,-5.4,-3.1,35.4,0.25,-0.01,0.03,-0.97
1697352785.19,-0.12,0.72,1.34,-4.5,-3.4,35.1,0.26,-0.01,0.03,-0.96
1697352785.2,-0.04,0.74,0.97,-2.3,-3.5,35.4,0.26,-0.01,0.03,-0.96
1697352785.21,-0.03,0.64,0.72,0.2,-2.4,35,0.27,-0.01,0.03,-0.96
1697352785.22,0.04,0.51,0.78,0.6,-1.2,34.8,0.27,-0.01,0.03,-0.96
1697352785.23,-0.16,0.54,1.35,-2.2,0.5,34.3,0.27,-0.01,0.03,-0.96
1697352785.24,-0.01,0.7,1.1,-2.3,1.8,34.7,0.28,-0.01,0.04,-0.96
1697352785.25,-0.05,0.8,0.71,-2.3,1.8,34.7,0.28,-0.01,0.04,-0.96
1697352785.26,-0.16,0.78,1.47,2.4,2.3,36,0.28,-0.01,0.04,-0.96
1697352785.27,0.09,0.71,0.74,3.6,1.8,36.8,0.29,-0.01,0.04,-0.96
1697352785.28,-0.18,0.67,1.39,2,1,37.6,0.29,-0.01,0.03,-0.96
1697352785.29,0.02,0.59,1.05,-0.2,0.1,38.1,0.29,-0.01,0.03,-0.96
1697352785.3,0.04,0.71,0.88,-1.5,-0.9,38.8,0.29,-0.01,0.04,-0.95
1697352785.31,-0.17,0.71,1.24,-0.2,-1.7,39.3,0.3,-0.01,0.04,-0.95
1697352785.32,-0.13,0.78,1.21,1.9,-2.5,39.9,0.3,-0.01,0.04,-0.95
1697352785.33,0.09,0.8,0.95,1.9,-2.5,39.9,0.3,-0.01,0.04,-0.95
1697352785.34,-0.13,0.62,1.01,3.4,-1.8,39.7,0.31,-0.01,0.03,-0.95
1697352785.35,-0.13,0.62,1.01,3.4,-1.8,39.7,0.31,-0.01,0.03,-0.95
1697352785.36,-0.04,0.58,0.39,-3.3,0.7,38.4,0.32,-0.01,0.03,-0.95
1697352785.37,-0.29,0.7,1.53,-4.7,2,38,0.32,-0.01,0.03,-0.95
1697352785.38,-0.29,0.7,1.53,-4.7,2,38,0.32,-0.01,0.03,-0.95
1697352785.39,-0.11,0.96,1.19,-3.4,3.4,37.8,0.32,-0.01,0.04,-0.95
1697352785.4,-0.11,0.96,1.19,0.9,3.8,37.9,0.33,-0.01,0.04,-0.94
1697352785.41,0,0.92,0.83,3.6,3.2,38.3,0.33,-0,0.04,-0.94
1697352785.42,-0.16,0.77,1.23,4.7,1.7,38.8,0.33,-0,0.04,-0.94
1697352785.43,0.06,0.46,0.87,2.2,1,38.6,0.33,-0,0.03,-0.94
1697352785.44,-0.14,0.43,0.9,-2.5,1.2,38.4,0.34,-0,0.04,-0.94
1697352785.45,-0.29,0.69,1.3,-4.7,2.4,38.6,0.34,-0,0.04,-0.94
1697352785.46,0.17,0.89,0.4,-1.9,3,39,0.34,-0,0.04,-0.94
1697352785.47,-0.18,0.92,1.3,3.6,2.9,39.1,0.35,-0,0.04,-0.94
1697352785.48,0.1,0.96,0.83,7.9,3.5,39.8,0.35,-0,0.04,-0.94
1697352785.49,-0.07,0.7,1.23,9.7,3.3,40.4,0.35,-0,0.03,-0.93
1697352785.5,0.27,0.56,0.53,8.5,2.7,39.9,0.36,-0,0.03,-0.93
1697352785.51,-0.17,0.61,1.34,5.7,1.7,40.2,0.36,-0,0.03,-0.93
1697352785.52,0.04,0.67,0.7,5.7,1.7,40.2,0.36,-0,0.03,-0.93
1697352785.53,-0.07,0.7,0.87,4.4,0.2,40.1,0.37,0,0.03,-0.93
1697352785.54,-0.15,0.77,1.32,4.4,-0.4,40,0.37,0,0.03,-0.93
1697352785.55,0.06,0.71,0.62,3.4,0,39.7,0.37,0,0.03,-0.93
1697352785.56,0.06,0.71,0.62,3.4,0,39.7,0.37,0,0.03,-0.93
1697352785.57,0.06,0.71,0.62,3.4,0,39.7,0.37,0,0.03,-0.93
1697352785.58,0.06,0.71,0.62,3.4,0,39.7,0.37,0,0.03,-0.93
1697352785.59,0.06,0.71,0.62,3.4,0,39.7,0.37,0,0.03,-0.93
1697352785.6,0.06,0.71,0.62,3.4,0,39.7,0.37,0,0.03,-0.93
1697352785.61,0.06,0.71,0.62,3.4,0,39.7,0.37,0,0.03,-0.93
1697352785.62,0.06,0.71,0.62,3.4,0,39.7,0.37,0,0.03,-0.93
1697352785.63,0.06,0.71,0.62,3.4,0,39.7,0.37,0,0.03,-0.93
1697352785.64,0.06,0.71,0.62,3.4,0,39.7,0.37,0,0.03,-0.93
1697352785.65,0.06,0.71,0.62,3.4,0,39.7,0.37,0,0.03,-0.93
1697352785.66,0.06,0.71,0.62,3.4,0,39.7,0.37,0,0.03,-0.93
1697352785.67,0.06,0.71,0.62,3.4,0,39.7,0.37,0,0.03,-0.93
1697352785.68,0.06,0.71,0.62,3.4,0,39.7,0.37,0,0.03,-0.93
1697352785.69,-0.23,0.6,0.82,6.3,2.5,39.7,0.42,0,0.03,-0.91
1697352785.7,-0.25,0.44,1.31,6.3,2.5,39.7,0.42,0,0.03,-0.91
1697352785.71,0.04,0.55,0.41,2.8,3.8,39.3,0.42,0.01,0.03,-0.91
1697352785.72,-0.25,0.79,1.37,-0.2,4.6,38.8,0.43,0.01,0.03,-0.9
1697352785.73,-0.25,0.79,1.37,1.4,4.2,38.6,0.43,0.01,0.03,-0.9
1697352785.74,-0.12,0.88,1.32,5.9,3.4,38.8,0.43,0.01,0.03,-0.9
1697352785.75,-0.03,0.53,0.73,4.9,3,38.5,0.44,0.01,0.03,-0.9
1697352785.76,0.15,0.68,0.42,2.5,2.9,38.4,0.44,0.01,0.03,-0.9
1697352785.77,-0.14,0.69,1.39,2.1,2.5,38.1,0.44,0.01,0.03,-0.9
1697352785.78,0.11,0.79,0.6,4,2.2,38.3,0.44,0.01,0.03,-0.9
1697352785.79,0.03,0.76,1.08,4.9,0.2,38.3,0.45,0.01,0.03,-0.89
