time,accel_x,accel_y,accel_z,gyro_x,gyro_y,gyro_z,quat_w,quat_x,quat_y,quat_z
1697353720.15,0.02,0.27,0.96,0.5,2.7,44.7,0.98,0.06,-0.05,-0.16
1697353720.16,0.02,0.27,0.96,0.5,2.7,44.7,0.98,0.06,-0.05,-0.16
1697353720.17,0.09,0.22,1.02,-0.4,2,45,0.98,0.06,-0.05,-0.15
1697353720.18,0.07,0.31,1.02,-0.7,1.5,44.6,0.99,0.06,-0.05,-0.15
1697353720.19,0.09,0.29,1.01,-0.5,0.9,44.4,0.99,0.06,-0.05,-0.15
1697353720.2,0.16,0.3,0.83,-0.4,0.3,44.4,0.99,0.06,-0.05,-0.14
1697353720.21,0.06,0.26,0.92,-0.3,0.3,44.4,0.99,0.06,-0.05,-0.14
1697353720.22,0.02,0.26,0.89,-0.3,0.5,44.2,0.99,0.06,-0.05,-0.14
1697353720.23,0.02,0.23,0.91,-1.3,1.6,44.6,0.99,0.06,-0.05,-0.13
1697353720.24,-0.02,0.26,0.84,-1.3,1.6,44.6,0.99,0.06,-0.05,-0.13
1697353720.25,-0.05,0.33,1.17,0.5,3.3,45.1,0.99,0.06,-0.05,-0.13
1697353720.26,-0.05,0.33,1.17,0.5,3.3,45.1,0.99,0.07,-0.05,-0.12
1697353720.27,0.08,0.29,0.79,1.5,3.8,45.4,0.99,0.07,-0.05,-0.12
1697353720.28,0.07,0.28,1.08,1.1,3.9,45.7,0.99,0.07,-0.05,-0.11
1697353720.29,0.07,0.28,1.08,1.1,3.9,45.7,0.99,0.07,-0.05,-0.11
1697353720.3,0.07,0.28,1.08,1.1,3.9,45.7,0.99,0.07,-0.05,-0.11
1697353720.31,0.07,0.28,1.08,1.1,3.9,45.7,0.99,0.07,-0.05,-0.11
1697353720.32,0.07,0.28,1.08,1.1,3.9,45.7,0.99,0.07,-0.05,-0.11
1697353720.33,0.07,0.28,1.08,1.1,3.9,45.7,0.99,0.07,-0.05,-0.11
1697353720.34,0.07,0.28,1.08,1.1,3.9,45.7,0.99,0.07,-0.05,-0.11
1697353720.35,0.07,0.28,1.08,1.1,3.9,45.7,0.99,0.07,-0.05,-0.11
1697353720.36,0.07,0.28,1.08,1.1,3.9,45.7,0.99,0.07,-0.05,-0.11
1697353720.37,0.07,0.28,1.08,1.1,3.9,45.7,0.99,0.07,-0.05,-0.11
1697353720.38,0.07,0.28,1.08,1.1,3.9,45.7,0.99,0.07,-0.05,-0.11
1697353720.39,0.07,0.28,1.08,1.1,3.9,45.7,0.99,0.07,-0.05,-0.11
1697353720.4,0.07,0.28,1.08,1.1,3.9,45.7,0.99,0.07,-0.05,-0.11
1697353720.41,0.07,0.28,1.08,1.1,3.9,45.7,0.99,0.07,-0.05,-0.11
1697353720.42,0.07,0.28,1.08,1.1,3.9,45.7,0.99,0.07,-0.05,-0.11
1697353720.43,0.07,0.28,1.08,1.1,3.9,45.7,0.99,0.07,-0.05,-0.11
1697353720.44,0.07,0.28,1.08,1.1,3.9,45.7,0.99,0.07,-0.05,-0.11
1697353720.45,0.07,0.28,1.08,1.1,3.9,45.7,0.99,0.07,-0.05,-0.11
1697353720.46,0.07,0.28,1.08,1.1,3.9,45.7,0.99,0.07,-0.05,-0.11
1697353720.47,0.07,0.28,1.08,1.1,3.9,45.7,0.99,0.07,-0.05,-0.11
1697353720.48,0.07,0.28,1.08,1.1,3.9,45.7,0.99,0.07,-0.05,-0.11
1697353720.49,0.07,0.28,1.08,1.1,3.9,45.7,0.99,0.07,-0.05,-0.11
1697353720.5,0.07,0.28,1.08,1.1,3.9,45.7,0.99,0.07,-0.05,-0.11
1697353720.51,0.07,0.28,1.08,1.1,3.9,45.7,0.99,0.07,-0.05,-0.11
1697353720.52,0.07,0.28,1.08,1.1,3.9,45.7,0.99,0.07,-0.05,-0.11
1697353720.53,0.07,0.28,1.08,1.1,3.9,45.7,0.99,0.07,-0.05,-0.11
1697353720.54,0.07,0.28,1.08,1.1,3.9,45.7,0.99,0.07,-0.05,-0.11
1697353720.55,0.07,0.28,1.08,1.1,3.9,45.7,0.99,0.07,-0.05,-0.11
1697353720.56,0.07,0.28,1.08,1.1,3.9,45.7,0.99,0.07,-0.05,-0.11
1697353720.57,0.07,0.28,1.08,1.1,3.9,45.7,0.99,0.07,-0.05,-0.11
1697353720.58,0.07,0.28,1.08,1.1,3.9,45.7,0.99,0.07,-0.05,-0.11
1697353720.59,0.07,0.28,1.08,1.1,3.9,45.7,0.99,0.07,-0.05,-0.11
1697353720.6,0.07,0.28,1.08,1.1,3.9,45.7,0.99,0.07,-0.05,-0.11
1697353720.61,0.07,0.28,1.08,1.1,3.9,45.7,0.99,0.07,-0.05,-0.11
1697353720.62,0.07,0.28,1.08,1.1,3.9,45.7,0.99,0.07,-0.05,-0.11
1697353720.63,0.07,0.28,1.08,1.1,3.9,45.7,0.99,0.07,-0.05,-0.11
1697353720.64,0.07,0.28,1.08,1.1,3.9,45.7,0.99,0.07,-0.05,-0.11
1697353720.65,0.07,0.28,1.08,1.1,3.9,45.7,0.99,0.07,-0.05,-0.11
1697353720.66,0.07,0.28,1.08,1.1,3.9,45.7,0.99,0.07,-0.05,-0.11
1697353720.67,0.07,0.28,1.08,1.1,3.9,45.7,0.99,0.07,-0.05,-0.11
1697353720.68,0.07,0.28,1.08,1.1,3.9,45.7,0.99,0.07,-0.05,-0.11
1697353720.69,0.07,0.28,1.08,1.1,3.9,45.7,0.99,0.07,-0.05,-0.11
1697353720.7,0.07,0.28,1.08,1.1,3.9,45.7,0.99,0.07,-0.05,-0.11
1697353720.71,0.07,0.28,1.08,1.1,3.9,45.7,0.99,0.07,-0.05,-0.11
1697353720.72,0.07,0.28,1.08,1.1,3.9,45.7,0.99,0.07,-0.05,-0.11
1697353720.73,0.07,0.28,1.08,1.1,3.9,45.7,0.99,0.07,-0.05,-0.11
1697353720.74,0.07,0.28,1.08,1.1,3.9,45.7,0.99,0.07,-0.05,-0.11
1697353720.75,0.07,0.28,1.08,1.1,3.9,45.7,0.99,0.07,-0.05,-0.11
1697353720.76,0.07,0.28,1.08,1.1,3.9,45.7,0.99,0.07,-0.05,-0.11
1697353720.77,-0.05,0.34,1.2,0.6,1.1,50.8,0.99,0.06,-0.05,0.09
1697353720.78,0.12,0.36,0.76,0.1,1,50.9,0.99,0.06,-0.05,0.09
1697353720.79,0.2,0.38,0.65,-0.3,1,51,0.99,0.06,-0.05,0.1
1697353720.8,0.04,0.36,1.11,-0.3,1.4,51.1,0.99,0.06,-0.05,0.1
1697353720.81,-0.02,0.34,1.19,0,1.5,51.1,0.99,0.06,-0.05,0.11
1697353720.82,0.06,0.3,1.02,0.3,1.7,51.1,0.99,0.06,-0.05,0.11
1697353720.83,0.09,0.32,0.91,0.4,1.6,51.3,0.99,0.06,-0.05,0.12
1697353720.84,0.07,0.35,1.07,0.4,1.5,51.3,0.99,0.06,-0.05,0.12
1697353720.85,0.05,0.34,0.94,0.1,1.3,51.5,0.99,0.06,-0.05,0.13
1697353720.86,0.13,0.41,0.96,0.3,1,52,0.99,0.06,-0.05,0.13
1697353720.87,-0.02,0.35,1.02,1.2,1,52.5,0.99,0.06,-0.05,0.14
1697353720.88,0.05,0.36,1.02,1.7,0.9,53,0.99,0.06,-0.05,0.14
1697353720.89,0.05,0.36,1.02,1.7,0.9,53,0.99,0.06,-0.05,0.14
1697353720.9,-0.08,0.33,1.23,1,0.3,53.8,0.99,0.06,-0.05,0.15
1697353720.91,-0.08,0.33,1.23,1,0.3,53.8,0.99,0.06,-0.05,0.15
1697353720.92,0.18,0.38,0.82,-0.3,0.4,54.2,0.98,0.06,-0.05,0.16
1697353720.93,-0.12,0.36,1.36,-0.3,0.4,54.2,0.98,0.06,-0.05,0.16
1697353720.94,0.05,0.39,0.96,-0.3,0.7,54.1,0.98,0.06,-0.05,0.16
1697353720.95,0.04,0.34,1.13,-0.3,0.7,54.1,0.98,0.06,-0.05,0.17
1697353720.96,0.13,0.35,0.96,-0.4,1,53.5,0.98,0.06,-0.05,0.18
1697353720.97,0.13,0.35,0.96,-0.4,1,53.5,0.98,0.06,-0.05,0.18
1697353720.98,0.02,0.4,1.18,-1.5,0.5,53.7,0.98,0.06,-0.06,0.19
1697353720.99,0.02,0.4,1.18,-1.5,0.5,53.7,0.98,0.06,-0.06,0.19
1697353721,0.04,0.43,0.93,-0.5,0,54.1,0.98,0.06,-0.06,0.19
1697353721.01,0.08,0.43,0.83,0.9,-0.1,54.7,0.98,0.06,-0.06,0.2
1697353721.02,0.07,0.36,0.71,2.5,-0.6,54.9,0.98,0.06,-0.06,0.2
1697353721.03,0.11,0.35,1.04,2.6,-0.8,55.1,0.98,0.06,-0.06,0.21
1697353721.04,0.11,0.35,1.04,2.1,-0.9,55.4,0.97,0.06,-0.06,0.21
1697353721.05,0.06,0.33,1.05,1.4,-0.7,55.6,0.97,0.06,-0.06,0.22
1697353721.06,0.02,0.34,1.13,0.2,-0.5,55.9,0.97,0.05,-0.06,0.22
1697353721.07,0.01,0.36,1.06,0.2,-0.1,56.2,0.97,0.05,-0.06,0.23
1697353721.08,-0.02,0.44,0.97,0.3,0.1,56.5,0.97,0.05,-0.06,0.23
1697353721.09,0.08,0.46,0.93,0.8,0.3,56.9,0.97,0.05,-0.06,0.24
1697353721.1,-0.06,0.41,1.11,1.2,0.8,57,0.97,0.05,-0.06,0.24
1697353721.11,0.01,0.42,0.97,1.3,0.8,57.1,0.97,0.05,-0.06,0.25
1697353721.12,-0.03,0.42,0.96,0.8,0.6,57.5,0.96,0.05,-0.06,0.25
1697353721.13,-0.03,0.38,1.03,0.3,0.5,57.5,0.96,0.05,-0.06,0.26
1697353721.14,0.06,0.41,0.96,0.3,0.1,57.5,0.96,0.05,-0.06,0.26
1697353721.15,0.07,0.41,1.1,0.5,0,57.6,0.96,0.05,-0.06,0.27
1697353721.16,0.07,0.41,1.1,0.5,0,57.6,0.96,0.05,-0.06,0.27
1697353721.17,0.07,0.41,1.1,0.5,0,57.6,0.96,0.05,-0.06,0.27
1697353721.18,0.07,0.41,1.1,0.5,0,57.6,0.96,0.05,-0.06,0.27
1697353721.19,0.07,0.41,1.1,0.5,0,57.6,0.96,0.05,-0.06,0.27
1697353721.2,0.07,0.41,1.1,0.5,0,57.6,0.96,0.05,-0.06,0.27
1697353721.21,0.07,0.41,1.1,0.5,0,57.6,0.96,0.05,-0.06,0.27
1697353721.22,0.07,0.41,1.1,0.5,0,57.6,0.96,0.05,-0.06,0.27
1697353721.23,0.07,0.41,1.1,0.5,0,57.6,0.96,0.05,-0.06,0.27
1697353721.24,0.07,0.41,1.1,0.5,0,57.6,0.96,0.05,-0.06,0.27
1697353721.25,0.07,0.41,1.1,0.5,0,57.6,0.96,0.05,-0.06,0.27
1697353721.26,0.07,0.41,1.1,0.5,0,57.6,0.96,0.05,-0.06,0.27
1697353721.27,0.07,0.41,1.1,0.5,0,57.6,0.96,0.05,-0.06,0.27
1697353721.28,0.07,0.41,1.1,0.5,0,57.6,0.96,0.05,-0.06,0.27
1697353721.29,0.08,0.39,1.05,-0.7,1.1,58.4,0.94,0.05,-0.06,0.33
1697353721.3,0.04,0.42,0.88,0,0.4,58.5,0.94,0.05,-0.06,0.34
1697353721.31,0.04,0.42,0.88,0,0.4,58.5,0.94,0.05,-0.06,0.34
1697353721.32,-0.03,0.42,1.05,0.3,0,58.6,0.93,0.05,-0.06,0.35
1697353721.33,0,0.33,1.09,0.8,0,58.7,0.93,0.05,-0.06,0.35
1697353721.34,0,0.33,1.09,0.2,0,58.8,0.93,0.05,-0.06,0.36
1697353721.35,0.01,0.43,1.08,-0.8,0.2,58.9,0.93,0.05,-0.06,0.36
1697353721.36,0.01,0.47,1.01,-1.5,0.8,59.2,0.93,0.05,-0.06,0.37
1697353721.37,0,0.46,1.14,-1.1,1.1,59.4,0.93,0.05,-0.06,0.37
1697353721.38,0.08,0.5,0.84,-0.9,1.4,59.7,0.92,0.05,-0.06,0.38
1697353721.39,-0.08,0.42,1.25,-0.5,1.7,59.6,0.92,0.04,-0.07,0.38
1697353721.4,0.04,0.43,0.8,-0.5,1.7,59.6,0.92,0.04,-0.07,0.39
1697353721.41,0.1,0.48,1.01,-0.7,1.5,59.7,0.92,0.04,-0.07,0.39
1697353721.42,0.06,0.45,1.2,-0.5,0.6,59.5,0.92,0.04,-0.07,0.4
1697353721.43,0.17,0.47,0.83,-0.1,0,59.6,0.91,0.04,-0.07,0.4
1697353721.44,0.05,0.39,1.19,0.2,-0.6,59.4,0.91,0.04,-0.07,0.41
1697353721.45,0.06,0.38,0.9,-0.5,-1,59.1,0.91,0.04,-0.07,0.41
1697353721.46,0.15,0.36,0.77,-2.1,-0.9,58.8,0.91,0.04,-0.07,0.42
1697353721.47,0.06,0.47,0.96,-2.8,-0.4,58.9,0.9,0.04,-0.07,0.42
1697353721.48,0.15,0.44,0.68,-1.8,-0.1,58.8,0.9,0.04,-0.07,0.42
1697353721.49,0.11,0.46,0.79,-0.9,0,58.4,0.9,0.04,-0.07,0.43
1697353721.5,0.03,0.48,0.97,-0.7,0.2,58.7,0.9,0.04,-0.07,0.43
1697353721.51,0.18,0.43,0.59,-0.7,0.8,58.8,0.9,0.04,-0.07,0.44
1697353721.52,0.1,0.43,0.95,-0.7,0.8,58.8,0.9,0.04,-0.07,0.44
1697353721.53,-0,0.43,1.1,-0.3,1.6,59.4,0.89,0.04,-0.07,0.45
1697353721.54,0.09,0.41,0.97,-0.3,1.6,59.4,0.89,0.04,-0.07,0.45
1697353721.55,0.05,0.44,1.01,-0.1,1.9,59.8,0.89,0.04,-0.07,0.46
1697353721.56,0.05,0.44,1.01,-0.1,1.9,59.8,0.89,0.04,-0.07,0.46
1697353721.57,0.19,0.45,0.79,0,1.2,59.4,0.88,0.04,-0.07,0.47
1697353721.58,0.11,0.36,1.16,0,1.2,59.4,0.88,0.04,-0.07,0.47
1697353721.59,0.12,0.4,1.06,-0.3,-0.6,58.6,0.88,0.04,-0.07,0.47
1697353721.6,-0.02,0.37,1.14,-0.1,-0.9,58.1,0.88,0.04,-0.07,0.48
1697353721.61,0.1,0.38,0.93,0.5,-0.9,56.9,0.87,0.04,-0.07,0.48
1697353721.62,0.05,0.33,1.26,0.3,-0.6,56.1,0.87,0.04,-0.07,0.49
1697353721.63,0.1,0.37,0.83,-0.3,-0.3,55.6,0.87,0.04,-0.07,0.49
1697353721.64,0.05,0.4,0.96,-0.3,-0.3,55.6,0.87,0.03,-0.07,0.49
1697353721.65,0.07,0.48,0.88,-0.4,0.2,55.2,0.86,0.03,-0.07,0.5
1697353721.66,0.07,0.48,0.88,-0.5,0.9,55.4,0.86,0.03,-0.07,0.5
1697353721.67,0.07,0.48,0.88,-0.5,0.9,55.4,0.86,0.03,-0.07,0.5
1697353721.68,0.07,0.48,0.88,-0.5,0.9,55.4,0.86,0.03,-0.07,0.5
1697353721.69,0.07,0.48,0.88,-0.5,0.9,55.4,0.86,0.03,-0.07,0.5
1697353721.7,0.07,0.48,0.88,-0.5,0.9,55.4,0.86,0.03,-0.07,0.5
1697353721.71,0.07,0.48,0.88,-0.5,0.9,55.4,0.86,0.03,-0.07,0.5
1697353721.72,0.07,0.48,0.88,-0.5,0.9,55.4,0.86,0.03,-0.07,0.5
1697353721.73,0.07,0.48,0.88,-0.5,0.9,55.4,0.86,0.03,-0.07,0.5
1697353721.74,0.07,0.48,0.88,-0.5,0.9,55.4,0.86,0.03,-0.07,0.5
1697353721.75,0.07,0.48,0.88,-0.5,0.9,55.4,0.86,0.03,-0.07,0.5
1697353721.76,0.07,0.48,0.88,-0.5,0.9,55.4,0.86,0.03,-0.07,0.5
1697353721.77,0.07,0.48,0.88,-0.5,0.9,55.4,0.86,0.03,-0.07,0.5
1697353721.78,0.07,0.48,0.88,-0.5,0.9,55.4,0.86,0.03,-0.07,0.5
1697353721.79,0.07,0.48,0.88,-0.5,0.9,55.4,0.83,0.03,-0.07,0.56
1697353721.8,0.06,0.45,1.07,0,-0.5,55.8,0.82,0.03,-0.07,0.56
1697353721.81,0.1,0.34,0.97,1.2,-0.4,55.1,0.82,0.03,-0.07,0.57
1697353721.82,0.04,0.38,1,1.6,-0.2,54.9,0.82,0.03,-0.07,0.57
1697353721.83,0.04,0.38,1,1.6,-0.2,54.9,0.82,0.03,-0.07,0.57
1697353721.84,0.04,0.38,1,1.6,-0.2,54.9,0.82,0.03,-0.07,0.57
1697353721.85,0.04,0.38,1,1.6,-0.2,54.9,0.82,0.03,-0.07,0.57
1697353721.86,0.04,0.38,1,1.6,-0.2,54.9,0.82,0.03,-0.07,0.57
1697353721.87,0.04,0.38,1,1.6,-0.2,54.9,0.82,0.03,-0.07,0.57
1697353721.88,0.07,0.35,1.1,1.6,-0.2,54.9,0.8,0.03,-0.07,0.59
1697353721.89,0.07,0.46,0.96,-0.9,0.5,54.8,0.8,0.03,-0.07,0.6
1697353721.9,0.1,0.42,0.98,-0.5,0.2,55,0.79,0.02,-0.07,0.6
1697353721.91,0.09,0.3,0.86,0.5,-0.8,54.8,0.79,0.02,-0.07,0.61
1697353721.92,0.14,0.38,0.82,0.5,-1.3,54.9,0.79,0.02,-0.07,0.61
1697353721.93,0.04,0.34,0.7,0.1,-1.6,54.6,0.78,0.02,-0.07,0.62
1697353721.94,0.04,0.34,0.7,0.1,-1.6,54.6,0.78,0.02,-0.07,0.62
1697353721.95,0,0.4,0.99,-1.4,-1,53.6,0.78,0.02,-0.07,0.62
1697353721.96,0,0.4,0.99,-1.4,-1,53.6,0.78,0.02,-0.07,0.62
1697353721.97,0.04,0.36,1.15,-0.8,0.5,52.5,0.77,0.02,-0.07,0.63
1697353721.98,0.04,0.36,1.15,-0.8,0.5,52.5,0.77,0.02,-0.07,0.63
1697353721.99,0.04,0.36,1.15,0.9,1.1,51.8,0.77,0.02,-0.07,0.63
1697353722,0.08,0.28,1.08,2.6,1.3,51.3,0.77,0.02,-0.07,0.64
1697353722.01,0.15,0.22,1.08,2.3,1.3,50.6,0.76,0.02,-0.07,0.64
1697353722.02,0.06,0.2,1.31,0.8,0.8,49.8,0.76,0.02,-0.07,0.64
1697353722.03,0.08,0.26,1.19,-1.1,-0.4,48.3,0.76,0.02,-0.07,0.65
1697353722.04,0.22,0.33,0.98,0.5,-1.6,47.6,0.76,0.02,-0.07,0.65
1697353722.05,0.16,0.21,1.18,1.9,-2.8,46.3,0.75,0.02,-0.07,0.65
1697353722.06,0.17,0.11,1.06,0.5,-3.3,44.6,0.75,0.02,-0.07,0.66
1697353722.07,0.17,0.09,0.96,-2.8,-2.8,42.8,0.75,0.02,-0.07,0.66
1697353722.08,0.16,0.21,0.76,-3.8,-2.2,41.6,0.74,0.02,-0.08,0.66
1697353722.09,0.07,0.18,0.8,-3.8,-2.2,41.6,0.74,0.02,-0.08,0.66
1697353722.1,0.12,0.26,0.75,-0.7,-0.6,38,0.74,0.02,-0.08,0.67
1697353722.11,0.12,0.12,1.07,-0.3,0.1,36.9,0.74,0.02,-0.08,0.67
1697353722.12,0.13,0.12,1.16,-0.9,0.7,35.2,0.73,0.02,-0.08,0.67
1697353722.13,0.12,0.11,1.09,-1.1,0.9,35.1,0.73,0.02,-0.08,0.68
1697353722.14,0.11,0.13,0.95,-3,2.2,33.8,0.73,0.02,-0.08,0.68
1697353722.15,0.09,0.22,1.02,-3,2.2,33.8,0.73,0.02,-0.08,0.68
1697353722.16,0.11,0.19,0.92,-1.2,2.9,32.9,0.73,0.02,-0.08,0.68
1697353722.17,0.08,0.16,0.92,-1.2,2.9,32.9,0.73,0.02,-0.08,0.68
1697353722.18,0.14,0.13,0.82,0.2,3.1,32.1,0.72,0.02,-0.08,0.69
1697353722.19,0.14,0.13,0.82,0.2,3.1,32.1,0.72,0.02,-0.08,0.69
1697353722.2,0.19,0.09,0.67,-0.8,2.4,30.5,0.72,0.02,-0.08,0.69
1697353722.21,0.19,0.09,0.67,-0.8,2.4,30.5,0.72,0.02,-0.08,0.69
1697353722.22,0.07,0.14,0.92,-0.2,1.3,29.2,0.72,0.01,-0.08,0.69
1697353722.23,0.13,0.17,1.34,0.5,0.8,28.3,0.72,0.01,-0.08,0.69
1697353722.24,0.16,0.11,1.42,0.7,0.2,27.4,0.71,0.01,-0.07,0.7
1697353722.25,0.11,0.11,1.44,0.1,-0.4,26.5,0.71,0.01,-0.07,0.7
1697353722.26,0.11,0.11,1.44,0.1,-0.4,26.5,0.71,0.01,-0.07,0.7
1697353722.27,0.18,0.11,1.17,0.1,-0.4,26.5,0.71,0.01,-0.07,0.7
1697353722.28,0.18,0.11,1.17,0.1,-0.4,26.5,0.71,0.01,-0.07,0.7
1697353722.29,0.18,0.11,1.17,0.1,-0.4,26.5,0.71,0.01,-0.07,0.7
1697353722.3,0.18,0.11,1.17,0.1,-0.4,26.5,0.71,0.01,-0.07,0.7
1697353722.31,0.18,0.11,1.17,0.1,-0.4,26.5,0.71,0.01,-0.07,0.7
1697353722.32,0.18,0.11,1.17,0.1,-0.4,26.5,0.71,0.01,-0.07,0.7
1697353722.33,0.18,0.11,1.17,0.1,-0.4,26.5,0.71,0.01,-0.07,0.7
1697353722.34,0.18,0.11,1.17,0.1,-0.4,26.5,0.71,0.01,-0.07,0.7
1697353722.35,0.18,0.11,1.17,0.1,-0.4,26.5,0.71,0.01,-0.07,0.7
1697353722.36,0.18,0.11,1.17,0.1,-0.4,26.5,0.71,0.01,-0.07,0.7
1697353722.37,0.18,0.11,1.17,0.1,-0.4,26.5,0.71,0.01,-0.07,0.7
1697353722.38,0.18,0.11,1.17,0.1,-0.4,26.5,0.71,0.01,-0.07,0.7
1697353722.39,0.18,0.11,1.17,0.1,-0.4,26.5,0.71,0.01,-0.07,0.7
1697353722.4,0.22,-0.21,0.98,-3.2,0.2,-0.9,0.7,0.01,-0.08,0.71
1697353722.41,0.22,-0.18,0.82,-3.2,-0.2,-1.7,0.7,0.01,-0.08,0.71
1697353722.42,0.23,0.01,1.19,-2.8,-0.4,-1.8,0.7,0.01,-0.08,0.71
1697353722.43,0.18,-0.1,0.7,-1.4,-0.5,-1.7,0.7,0.01,-0.08,0.71
1697353722.44,0.14,-0.24,0.68,-0.1,-0.7,-2,0.7,0.01,-0.08,0.71
1697353722.45,0.23,-0.26,0.67,-0.4,-0.7,-2.7,0.7,0.01,-0.08,0.71
1697353722.46,0.13,-0.4,1.26,-1.5,-0.7,-3.5,0.7,0.01,-0.08,0.71
1697353722.47,0.15,-0.34,1.48,-2.6,-0.7,-5,0.7,0.01,-0.08,0.71
1697353722.48,0.14,-0.3,1.36,-2.8,-0.6,-6.4,0.7,0.01,-0.08,0.71
1697353722.49,0.15,-0.33,1.06,-2.4,-0.3,-7.8,0.7,0.01,-0.08,0.71
1697353722.5,0.08,-0.47,0.83,-1.1,0,-9.5,0.7,0.01,-0.08,0.71
1697353722.51,0.1,-0.56,0.88,-0.4,0.3,-11.4,0.7,0.01,-0.08,0.71
1697353722.52,0.11,-0.4,1.36,-1.3,0.3,-13.5,0.7,0.01,-0.08,0.71
1697353722.53,0.19,-0.29,1.36,-2.4,0,-15.1,0.7,0.01,-0.08,0.71
1697353722.54,0.09,-0.47,1,-1.1,-0.5,-16.3,0.7,0.01,-0.08,0.71
1697353722.55,-0.01,-0.55,0.82,0.5,0.6,-18.1,0.71,0.01,-0.08,0.7
1697353722.56,-0.06,-0.74,1.69,-0.7,2,-20.1,0.71,0.01,-0.08,0.7
1697353722.57,0.15,-0.43,1.13,-0.7,2,-20.1,0.71,0.01,-0.08,0.7
1697353722.58,0.09,-0.61,1.17,-4,2.7,-24.6,0.71,0.01,-0.08,0.7
1697353722.59,0.1,-0.41,0.74,-4,2.7,-24.6,0.71,0.01,-0.08,0.7
1697353722.6,0.13,-0.49,0.9,-0.4,1.8,-29.6,0.71,0.01,-0.08,0.7
1697353722.61,0.13,-0.49,0.9,-0.4,1.8,-29.6,0.71,0.01,-0.08,0.7
1697353722.62,0.16,-0.53,0.95,0.9,0.7,-31.2,0.72,0.01,-0.08,0.69
1697353722.63,0.18,-0.51,1.17,1.1,-0.2,-32.4,0.72,0.01,-0.08,0.69
1697353722.64,0.18,-0.45,0.94,0.4,-2.1,-33.3,0.72,0.01,-0.08,0.69
1697353722.65,0.11,-0.48,0.8,0.5,-2.5,-32.9,0.72,0.01,-0.08,0.69
1697353722.66,0.17,-0.39,0.84,0.4,-2.6,-32.6,0.72,0.01,-0.08,0.68
1697353722.67,0.17,-0.39,0.84,0,-2.6,-32.2,0.73,0.01,-0.08,0.68
1697353722.68,0.1,-0.45,0.73,-0.9,-2.2,-31.9,0.73,0.01,-0.08,0.68
1697353722.69,0.11,-0.41,0.73,-1.9,-1.9,-31.8,0.73,0.01,-0.08,0.68
1697353722.7,0.08,-0.4,1.02,-2.4,-1.1,-31.9,0.73,0.01,-0.08,0.68
1697353722.71,0.11,-0.36,1.25,-1.3,-0.6,-32.3,0.73,0.01,-0.08,0.67
1697353722.72,0.05,-0.3,0.83,0.5,0,-32.8,0.74,0.02,-0.08,0.67
1697353722.73,0.07,-0.41,1.06,2.3,0.9,-33.2,0.74,0.02,-0.08,0.67
1697353722.74,0.07,-0.5,1.29,2.3,1.5,-33.7,0.74,0.02,-0.08,0.67
1697353722.75,0.17,-0.52,1.03,1,1.7,-34,0.74,0.02,-0.08,0.67
1697353722.76,0.21,-0.49,1.12,-0.2,1.4,-34.5,0.74,0.02,-0.08,0.66
1697353722.77,0.22,-0.39,1.2,-1.4,1.1,-34.7,0.75,0.02,-0.08,0.66
1697353722.78,0.19,-0.31,0.81,-1,0.7,-34.4,0.75,0.02,-0.08,0.66
1697353722.79,0.19,-0.31,0.81,-1,0.7,-34.4,0.75,0.02,-0.08,0.66
1697353722.8,0.19,-0.31,0.81,-1,0.7,-34.4,0.75,0.02,-0.08,0.66
1697353722.81,0.19,-0.31,0.81,-1,0.7,-34.4,0.75,0.02,-0.08,0.66
1697353722.82,0.19,-0.31,0.81,-1,0.7,-34.4,0.75,0.02,-0.08,0.66
1697353722.83,0.19,-0.31,0.81,-1,0.7,-34.4,0.75,0.02,-0.08,0.66
1697353722.84,0.19,-0.31,0.81,-1,0.7,-34.4,0.75,0.02,-0.08,0.66
1697353722.85,0.19,-0.31,0.81,-1,0.7,-34.4,0.75,0.02,-0.08,0.66
1697353722.86,0.19,-0.31,0.81,-1,0.7,-34.4,0.75,0.02,-0.08,0.66
1697353722.87,0.19,-0.31,0.81,-1,0.7,-34.4,0.75,0.02,-0.08,0.66
1697353722.88,0.19,-0.31,0.81,-1,0.7,-34.4,0.75,0.02,-0.08,0.66
1697353722.89,0.19,-0.31,0.81,-1,0.7,-34.4,0.75,0.02,-0.08,0.66
1697353722.9,0.19,-0.31,0.81,-1,0.7,-34.4,0.75,0.02,-0.08,0.66
1697353722.91,0.19,-0.31,0.81,-1,0.7,-34.4,0.75,0.02,-0.08,0.66
1697353722.92,0.16,-0.55,0.97,-1,0.7,-34.4,0.77,0.02,-0.08,0.63
1697353722.93,0.16,-0.55,0.97,0.1,0,-36.2,0.78,0.02,-0.08,0.63
1697353722.94,0.11,-0.56,1.15,-1.5,-0.1,-36.8,0.78,0.02,-0.08,0.62
1697353722.95,0.07,-0.45,0.86,-2.4,-0.6,-37.5,0.78,0.02,-0.08,0.62
1697353722.96,0.07,-0.33,1.08,-3.1,-0.2,-38.3,0.78,0.02,-0.08,0.62
1697353722.97,0.08,-0.39,1.14,-2.1,0.5,-38.3,0.78,0.02,-0.08,0.62
1697353722.98,0.05,-0.47,1.09,-0.4,0.8,-38.9,0.79,0.02,-0.08,0.61
1697353722.99,0.07,-0.57,0.89,-0.4,0.8,-38.9,0.79,0.02,-0.08,0.61
1697353723,0.09,-0.66,0.9,0.4,0.6,-40.3,0.79,0.02,-0.08,0.61
1697353723.01,0.09,-0.66,0.9,0.4,0.6,-40.3,0.79,0.02,-0.08,0.6
1697353723.02,0.1,-0.67,0.98,-1.5,0.6,-41.5,0.8,0.02,-0.08,0.6
1697353723.03,0.1,-0.67,0.98,-1.5,0.6,-41.5,0.8,0.02,-0.08,0.6
1697353723.04,0.14,-0.61,1.12,-2.9,0.3,-42.2,0.8,0.02,-0.08,0.6
1697353723.05,0.03,-0.55,1,-3.2,0.7,-42.7,0.8,0.02,-0.08,0.59
1697353723.06,0.09,-0.53,0.99,-1.8,0.8,-42.8,0.8,0.02,-0.08,0.59
1697353723.07,0.12,-0.54,1.04,-0.2,0.8,-42.7,0.81,0.02,-0.08,0.59
1697353723.08,0.04,-0.56,0.9,1.1,1.1,-42.9,0.81,0.02,-0.08,0.58
1697353723.09,0.07,-0.61,0.92,1.6,1.1,-43.1,0.81,0.02,-0.08,0.58
1697353723.1,0.14,-0.62,1.34,0.6,1.1,-43.2,0.81,0.02,-0.08,0.58
1697353723.11,0.15,-0.59,0.95,-0.2,0.7,-43.9,0.82,0.02,-0.08,0.57
1697353723.12,0.09,-0.51,0.82,-0.4,0,-44.3,0.82,0.02,-0.08,0.57
1697353723.13,0.01,-0.45,1.22,1.2,-0.1,-44.5,0.82,0.02,-0.08,0.57
1697353723.14,0.15,-0.41,0.92,3.2,-0.5,-44.4,0.82,0.02,-0.08,0.56
1697353723.15,0.12,-0.57,1.19,3.8,-0.9,-44.3,0.82,0.02,-0.08,0.56
1697353723.16,0.02,-0.63,1.14,2.5,-0.9,-44.7,0.83,0.03,-0.08,0.56
1697353723.17,0.07,-0.59,0.74,0.6,-0.4,-44.7,0.83,0.03,-0.08,0.55
1697353723.18,-0.04,-0.59,1.31,0,0.7,-44.8,0.83,0.03,-0.08,0.55
1697353723.19,0.07,-0.58,1,-0.4,0.9,-45.2,0.83,0.03,-0.07,0.55
1697353723.2,0.07,-0.5,1.13,-1.1,1.2,-45.2,0.84,0.03,-0.07,0.54
1697353723.21,0.13,-0.47,0.85,-0.4,1.6,-45.4,0.84,0.03,-0.07,0.54
1697353723.22,0.09,-0.45,0.83,0.5,1.8,-45.6,0.84,0.03,-0.07,0.54
1697353723.23,0.04,-0.56,0.9,0.4,1.9,-45.3,0.84,0.03,-0.07,0.53
1697353723.24,0.22,-0.63,0.79,0,2.1,-45.3,0.84,0.03,-0.07,0.53
1697353723.25,0.11,-0.62,1.04,-0.3,1.8,-45.2,0.85,0.03,-0.07,0.53
1697353723.26,0.29,-0.58,0.79,-1.4,1.4,-45.3,0.85,0.03,-0.07,0.53
1697353723.27,0.25,-0.52,1.14,-2,1,-45.2,0.85,0.03,-0.07,0.52
1697353723.28,0.14,-0.51,0.96,-0.3,0.3,-45.4,0.85,0.03,-0.07,0.52
1697353723.29,0.23,-0.55,0.87,0.9,-0.1,-45.4,0.85,0.03,-0.07,0.52
1697353723.3,0.16,-0.57,1.24,1.7,0.2,-45.3,0.86,0.03,-0.07,0.51
1697353723.31,0.16,-0.57,1.24,1.7,0.2,-45.3,0.86,0.03,-0.07,0.51
1697353723.32,0.16,-0.57,1.24,1.7,0.2,-45.3,0.86,0.03,-0.07,0.51
1697353723.33,0.16,-0.57,1.24,1.7,0.2,-45.3,0.86,0.03,-0.07,0.51
1697353723.34,0.16,-0.57,1.24,1.7,0.2,-45.3,0.86,0.03,-0.07,0.51
1697353723.35,0.16,-0.57,1.24,1.7,0.2,-45.3,0.86,0.03,-0.07,0.51
1697353723.36,0.16,-0.57,1.24,1.7,0.2,-45.3,0.86,0.03,-0.07,0.51
1697353723.37,0.16,-0.57,1.24,1.7,0.2,-45.3,0.86,0.03,-0.07,0.51
1697353723.38,0.16,-0.57,1.24,1.7,0.2,-45.3,0.86,0.03,-0.07,0.51
1697353723.39,0.16,-0.57,1.24,1.7,0.2,-45.3,0.86,0.03,-0.07,0.51
1697353723.4,0.16,-0.57,1.24,1.7,0.2,-45.3,0.86,0.03,-0.07,0.51
1697353723.41,0.16,-0.57,1.24,1.7,0.2,-45.3,0.86,0.03,-0.07,0.51
1697353723.42,0.16,-0.57,1.24,1.7,0.2,-45.3,0.86,0.03,-0.07,0.51
1697353723.43,0.16,-0.57,1.24,1.7,0.2,-45.3,0.86,0.03,-0.07,0.51
1697353723.44,0.16,-0.57,1.24,1.7,0.2,-45.3,0.86,0.03,-0.07,0.51
1697353723.45,0.23,-0.38,0.99,-0.8,0.1,-43.4,0.88,0.03,-0.07,0.46
1697353723.46,0.25,-0.73,0.9,-0.3,-0.3,-42.5,0.89,0.03,-0.07,0.46
1697353723.47,0.55,-0.14,0.65,0.8,-0.3,-43.4,0.89,0.03,-0.07,0.45
1697353723.48,0.23,-0.76,0.74,-1.5,-0.3,-41.1,0.89,0.03,-0.07,0.45
1697353723.49,0.24,0,1.15,0.1,0,-41.9,0.89,0.03,-0.07,0.45
1697353723.5,0.38,-0.58,0.83,-0.2,0.2,-41.3,0.89,0.03,-0.07,0.44
1697353723.51,0.17,-0.67,1.3,0,1,-39.2,0.89,0.03,-0.07,0.44
1697353723.52,0.44,-0.17,0.62,2.8,2.1,-41.3,0.9,0.03,-0.07,0.44
1697353723.53,0.25,-0.86,1.3,-0.1,2.5,-37.9,0.9,0.03,-0.07,0.43
1697353723.54,0.29,-0.13,0.91,4,2.6,-40.5,0.9,0.04,-0.07,0.43
1697353723.55,0.33,-0.86,1.23,1.4,1.9,-38.5,0.9,0.04,-0.07,0.43
1697353723.56,0.42,-0.37,0.61,1.4,1.9,-38.5,0.9,0.04,-0.07,0.43
1697353723.57,0.3,-0.67,0.79,-2.7,0.3,-38,0.9,0.04,-0.07,0.42
1697353723.58,0.12,-0.11,1.42,-1.7,-0.2,-38.8,0.9,0.04,-0.07,0.42
1697353723.59,0.02,-0.55,1.08,-1.8,-1.3,-38,0.9,0.04,-0.07,0.42
1697353723.6,0.35,-0.33,1.22,1.6,-2.5,-36.9,0.91,0.04,-0.07,0.41
1697353723.61,0.26,-0.34,0.94,4.1,-3.7,-37.8,0.91,0.04,-0.07,0.41
1697353723.62,0.24,-0.64,1.55,3.6,-5.2,-36.8,0.91,0.04,-0.07,0.41
1697353723.63,0.46,-0.87,0.68,3,-6.4,-36.3,0.91,0.04,-0.07,0.41
1697353723.64,0,-0.04,1.84,1.8,-6.6,-39,0.91,0.04,-0.07,0.4
1697353723.65,0.4,-0.87,0.58,-1.5,-6.8,-38.3,0.91,0.04,-0.07,0.4
1697353723.66,-0.01,-0.05,1.32,-1.3,-4.8,-39,0.91,0.04,-0.07,0.4
1697353723.67,0.16,-0.41,0.91,-1.8,-3.1,-39.1,0.92,0.04,-0.07,0.39
1697353723.68,0.11,-0.66,1.15,-1,-1,-38.1,0.92,0.04,-0.07,0.39
1697353723.69,0.43,-0.1,0.68,0,0.8,-38.2,0.92,0.04,-0.07,0.39
1697353723.7,0.01,-0.92,1.79,0.4,1.9,-37.9,0.92,0.04,-0.07,0.38
1697353723.71,0.25,-0.24,1.03,0.1,2.9,-37.5,0.92,0.04,-0.07,0.38
1697353723.72,0.21,-0.59,0.9,-1.2,3.2,-37.6,0.92,0.04,-0.07,0.38
1697353723.73,0.33,-0.6,0.91,0.5,3.9,-38.5,0.92,0.04,-0.07,0.38
1697353723.74,0.23,-0.44,1.27,0,3.3,-37.9,0.92,0.04,-0.07,0.37
1697353723.75,0.55,-0.6,0.47,1,2.6,-38,0.93,0.04,-0.07,0.37
1697353723.76,0.16,-0.68,1.49,1.3,1.9,-37.8,0.93,0.04,-0.07,0.37
1697353723.77,0.27,-0.34,0.71,0.6,0.7,-37.7,0.93,0.04,-0.07,0.36
1697353723.78,0.26,-0.49,1.09,2.1,0.6,-38.2,0.93,0.04,-0.07,0.36
1697353723.79,0.01,-0.7,1.39,2.1,0.6,-38.2,0.93,0.04,-0.07,0.36
1697353723.8,0.23,-0.3,0.75,7.7,2.6,-38.6,0.93,0.04,-0.07,0.35
1697353723.81,0.23,-0.3,0.75,7.7,2.6,-38.6,0.93,0.04,-0.06,0.35
1697353723.82,0.19,-0.34,1.05,9,7.4,-38.7,0.93,0.04,-0.06,0.35
1697353723.83,0.19,-0.34,1.05,9,7.4,-38.7,0.94,0.04,-0.06,0.34
1697353723.84,0.19,-0.34,1.05,9,7.4,-38.7,0.94,0.04,-0.06,0.34
1697353723.85,0.19,-0.34,1.05,9,7.4,-38.7,0.94,0.04,-0.06,0.34
1697353723.86,0.19,-0.34,1.05,9,7.4,-38.7,0.94,0.04,-0.06,0.34
1697353723.87,0.19,-0.34,1.05,9,7.4,-38.7,0.94,0.04,-0.06,0.34
1697353723.88,0.19,-0.34,1.05,9,7.4,-38.7,0.94,0.04,-0.06,0.34
1697353723.89,0.19,-0.34,1.05,9,7.4,-38.7,0.94,0.04,-0.06,0.34
1697353723.9,0.19,-0.34,1.05,9,7.4,-38.7,0.94,0.04,-0.06,0.34
1697353723.91,0.19,-0.34,1.05,9,7.4,-38.7,0.94,0.04,-0.06,0.34
1697353723.92,0.19,-0.34,1.05,9,7.4,-38.7,0.94,0.04,-0.06,0.34
1697353723.93,0.19,-0.34,1.05,9,7.4,-38.7,0.94,0.04,-0.06,0.34
1697353723.94,0.19,-0.34,1.05,9,7.4,-38.7,0.94,0.04,-0.06,0.34
1697353723.95,0.19,-0.34,1.05,9,7.4,-38.7,0.94,0.04,-0.06,0.34
1697353723.96,0.19,-0.34,1.05,9,7.4,-38.7,0.94,0.04,-0.06,0.34
1697353723.97,0.05,-0.83,0.88,1.6,-0.8,-36.4,0.95,0.05,-0.06,0.3
1697353723.98,-0.11,-0.51,1.17,0.5,2.6,-37.5,0.95,0.05,-0.06,0.3
1697353723.99,-0.13,-0.78,1.16,-2.4,4.6,-37.5,0.95,0.05,-0.06,0.29
1697353724,0.05,-0.44,1.19,-2,5.6,-39.6,0.95,0.05,-0.06,0.29
1697353724.01,0.11,-0.42,1.19,-1.8,5.4,-39.7,0.95,0.05,-0.06,0.29
1697353724.02,0.34,-0.59,1.2,1.2,4.1,-39.4,0.96,0.05,-0.06,0.28
1697353724.03,0.44,-0.56,0.78,1.8,2,-38.9,0.96,0.05,-0.06,0.28
1697353724.04,0.36,-0.66,0.91,-0.5,-0.5,-37.9,0.96,0.05,-0.06,0.28
1697353724.05,0.29,-0.52,0.91,-2.6,-2.5,-37.3,0.96,0.05,-0.06,0.28
1697353724.06,0.29,-0.33,0.77,-3.9,-3.8,-36.3,0.96,0.05,-0.06,0.27
1697353724.07,0.14,-0.55,0.71,-2,-3.6,-34.7,0.96,0.05,-0.06,0.27
1697353724.08,0.48,-0.09,0.92,1.4,-2.9,-34.6,0.96,0.05,-0.06,0.27
1697353724.09,0.35,-0.66,0.84,2.5,-2.2,-33.2,0.96,0.05,-0.06,0.26
1697353724.1,0.36,-0.75,0.89,2.4,-1.9,-32.7,0.96,0.05,-0.06,0.26
1697353724.11,0.28,-0.45,1.03,3,-0.8,-32.8,0.96,0.05,-0.06,0.26
1697353724.12,0.36,-0.66,0.97,0.3,0.3,-32,0.96,0.05,-0.06,0.25
1697353724.13,0.18,-0.37,1.15,-1.9,1.5,-31,0.96,0.05,-0.06,0.25
1697353724.14,0.1,-0.21,1.06,-1.4,2.9,-30.6,0.97,0.05,-0.06,0.25
1697353724.15,0.24,-0.42,0.97,1.6,4.2,-30.5,0.97,0.05,-0.06,0.25
1697353724.16,0.13,-0.5,1.03,3.4,5.5,-30.5,0.97,0.05,-0.06,0.24
1697353724.17,0.1,-0.39,1.06,3.7,6.4,-31.5,0.97,0.05,-0.06,0.24
1697353724.18,0.22,-0.6,0.91,0.6,6.5,-31.2,0.97,0.05,-0.05,0.24
1697353724.19,0.33,-0.24,0.78,-1.8,6.2,-31.8,0.97,0.05,-0.05,0.24
1697353724.2,0.35,-0.14,0.96,-3.7,5.6,-30.9,0.97,0.05,-0.05,0.23
1697353724.21,0.5,-0.11,0.71,-1.7,4.4,-29.1,0.97,0.05,-0.05,0.23
1697353724.22,0.21,-0.33,1.25,1.7,3,-27.7,0.97,0.05,-0.05,0.23
1697353724.23,0.48,-0.37,0.55,2.5,1.5,-24.2,0.97,0.05,-0.05,0.22
1697353724.24,0.14,-0.51,0.92,-0.1,0.1,-23.5,0.97,0.05,-0.05,0.22
1697353724.25,0.04,-0.15,0.9,-0.5,0.6,-22.2,0.97,0.05,-0.05,0.22
1697353724.26,0.04,-0.26,1.15,2.1,1.1,-22,0.97,0.05,-0.05,0.22
1697353724.27,0.16,-0.22,0.61,4.4,1.8,-21.9,0.97,0.05,-0.05,0.22
1697353724.28,-0.01,-0.33,1.22,5,2.4,-21.5,0.97,0.05,-0.05,0.22
1697353724.29,-0.01,-0.33,1.22,5,2.4,-21.5,0.97,0.05,-0.05,0.22
1697353724.3,0.07,-0.29,1.33,2.9,3.4,-21.5,0.97,0.05,-0.05,0.21
1697353724.31,0.07,-0.29,1.33,2.9,3.4,-21.5,0.97,0.05,-0.05,0.21
1697353724.32,0.07,-0.27,0.9,1.5,4.4,-21.7,0.98,0.05,-0.05,0.21
1697353724.33,-0.06,-0.19,0.8,2.3,4.2,-21.5,0.98,0.05,-0.05,0.21
1697353724.34,-0.05,-0.18,0.98,1.2,4.2,-21.6,0.98,0.05,-0.05,0.21
1697353724.35,-0.16,-0.3,0.66,-0.4,4.6,-21.1,0.98,0.05,-0.05,0.21
1697353724.36,-0.16,-0.3,0.66,-0.4,4.6,-21.1,0.98,0.05,-0.05,0.21
1697353724.37,-0.16,-0.3,0.66,-0.4,4.6,-21.1,0.98,0.05,-0.05,0.21
1697353724.38,-0.16,-0.3,0.66,-0.4,4.6,-21.1,0.98,0.05,-0.05,0.21
1697353724.39,-0.16,-0.3,0.66,-0.4,4.6,-21.1,0.98,0.05,-0.05,0.21
1697353724.4,-0.16,-0.3,0.66,-0.4,4.6,-21.1,0.98,0.05,-0.05,0.21
1697353724.41,-0.16,-0.3,0.66,-0.4,4.6,-21.1,0.98,0.05,-0.05,0.21
1697353724.42,-0.16,-0.3,0.66,-0.4,4.6,-21.1,0.98,0.05,-0.05,0.21
1697353724.43,-0.16,-0.3,0.66,-0.4,4.6,-21.1,0.98,0.05,-0.05,0.21
1697353724.44,-0.16,-0.3,0.66,-0.4,4.6,-21.1,0.98,0.05,-0.05,0.21
1697353724.45,-0.16,-0.3,0.66,-0.4,4.6,-21.1,0.98,0.05,-0.05,0.21
1697353724.46,-0.16,-0.3,0.66,-0.4,4.6,-21.1,0.98,0.05,-0.05,0.21
1697353724.47,-0.16,-0.3,0.66,-0.4,4.6,-21.1,0.98,0.05,-0.05,0.21
1697353724.48,-0.16,-0.3,0.66,5,3,-15,0.98,0.05,-0.05,0.21
1697353724.49,-0.16,-0.38,1.26,3.3,0.3,-15.6,0.98,0.05,-0.04,0.18
1697353724.5,0.14,-0.31,0.96,3.2,-1.6,-16.2,0.98,0.05,-0.04,0.18
1697353724.51,0.02,-0.21,0.79,2.6,-2.7,-17.1,0.98,0.05,-0.04,0.18
1697353724.52,0.01,-0.08,1.18,0,-3.8,-16.6,0.98,0.05,-0.04,0.18
1697353724.53,0.04,0.09,0.91,-0.6,-3.6,-16.3,0.98,0.05,-0.04,0.18
1697353724.54,-0.08,0.1,1.21,-0.1,-3.3,-15.1,0.98,0.05,-0.04,0.18
1697353724.55,0.06,-0.15,0.85,2.3,-3.2,-13.8,0.98,0.06,-0.04,0.17
1697353724.56,-0.1,-0.17,0.91,0.3,-2.2,-13.1,0.98,0.06,-0.04,0.17
1697353724.57,-0.16,-0.21,1.04,-0.9,-1.1,-13.1,0.98,0.06,-0.04,0.17
1697353724.58,-0.11,-0.25,1.24,-1.1,0,-13.5,0.98,0.06,-0.04,0.17
1697353724.59,-0.14,-0.18,1.1,-0.1,0.7,-13.7,0.98,0.06,-0.04,0.17
1697353724.6,-0.18,-0.12,0.78,0.4,1.8,-13.9,0.98,0.06,-0.04,0.17
1697353724.61,-0.08,-0.31,1.24,0.4,1.8,-13.9,0.98,0.06,-0.04,0.17
1697353724.62,-0.1,-0.34,0.8,0.4,3.7,-15,0.98,0.06,-0.04,0.17
1697353724.63,-0.14,-0.14,0.63,-0.9,3.2,-14.5,0.98,0.06,-0.04,0.16
1697353724.64,-0.27,-0.25,1.45,-0.1,1.8,-14.5,0.98,0.06,-0.04,0.16
1697353724.65,-0.19,-0.12,1.16,-0.8,0.4,-13.6,0.98,0.06,-0.04,0.16
1697353724.66,-0.13,-0.27,0.79,-0.8,0.4,-13.6,0.98,0.06,-0.04,0.16
1697353724.67,-0.02,-0.27,1.01,-0.8,0.4,-13.6,0.98,0.06,-0.04,0.16
1697353724.68,-0.01,-0.16,1.15,-3,-2.2,-12.5,0.98,0.06,-0.04,0.16
1697353724.69,0.05,-0.13,0.92,-3,-3.8,-12.4,0.99,0.06,-0.04,0.16
1697353724.7,-0.06,-0.16,1.13,-2.7,-5,-12.2,0.99,0.06,-0.04,0.16
1697353724.71,-0.06,-0.16,1.13,-2.7,-5,-12.2,0.99,0.06,-0.04,0.16
1697353724.72,-0.01,-0.12,0.63,-0.8,-5.3,-12.7,0.99,0.06,-0.04,0.16
1697353724.73,-0.16,-0.26,1.06,1.5,-4.5,-12.8,0.99,0.06,-0.04,0.15
1697353724.74,-0.07,-0.19,0.97,1.7,-1,-12.9,0.99,0.06,-0.04,0.15
1697353724.75,-0.07,-0.19,0.97,1.7,-1,-12.9,0.99,0.06,-0.04,0.15
1697353724.76,-0.04,-0.19,1,0.1,0.4,-12.5,0.99,0.06,-0.04,0.15
1697353724.77,-0.04,-0.1,1.34,-0.2,2.1,-11.9,0.99,0.06,-0.04,0.15
1697353724.78,-0.03,-0.04,0.65,-0.2,2.1,-11.9,0.99,0.06,-0.04,0.15
1697353724.79,-0.11,-0.15,1.23,2.4,2,-10.8,0.99,0.06,-0.04,0.15
1697353724.8,-0.04,-0.24,1.09,3.5,0.8,-10.7,0.99,0.06,-0.04,0.15
1697353724.81,-0.04,-0.24,1.09,3.5,0.8,-10.7,0.99,0.06,-0.04,0.15
1697353724.82,-0.05,-0.14,0.8,2.2,-0.5,-10.2,0.99,0.06,-0.04,0.14
1697353724.83,-0.05,-0.14,0.8,1.3,-1.5,-10.5,0.99,0.06,-0.04,0.14
1697353724.84,-0.09,-0.24,1.23,-0.4,-3.1,-10.7,0.99,0.06,-0.04,0.14
1697353724.85,-0.04,-0.12,0.82,-2,-3.3,-10.7,0.99,0.06,-0.04,0.14
1697353724.86,-0.04,-0.12,0.82,-2.5,-2.4,-10.9,0.99,0.06,-0.04,0.14
1697353724.87,-0.04,-0.12,0.82,-2.5,-2.4,-10.9,0.99,0.06,-0.04,0.14
1697353724.88,-0.04,-0.12,0.82,-2.5,-2.4,-10.9,0.99,0.06,-0.04,0.14
1697353724.89,-0.04,-0.12,0.82,-2.5,-2.4,-10.9,0.99,0.06,-0.04,0.14
1697353724.9,-0.04,-0.12,0.82,-2.5,-2.4,-10.9,0.99,0.06,-0.04,0.14
1697353724.91,-0.04,-0.12,0.82,-2.5,-2.4,-10.9,0.99,0.06,-0.04,0.14
1697353724.92,-0.04,-0.12,0.82,-2.5,-2.4,-10.9,0.99,0.06,-0.04,0.14
1697353724.93,-0.04,-0.12,0.82,-2.5,-2.4,-10.9,0.99,0.06,-0.04,0.14
1697353724.94,-0.04,-0.12,0.82,-2.5,-2.4,-10.9,0.99,0.06,-0.04,0.14
1697353724.95,-0.04,-0.12,0.82,-2.5,-2.4,-10.9,0.99,0.06,-0.04,0.14
1697353724.96,-0.04,-0.12,0.82,-2.5,-2.4,-10.9,0.99,0.06,-0.04,0.14
1697353724.97,-0.04,-0.12,0.82,-2.5,-2.4,-10.9,0.99,0.06,-0.04,0.14
1697353724.98,-0.04,-0.12,0.82,-2.5,-2.4,-10.9,0.99,0.06,-0.04,0.14
1697353724.99,0.08,-0.1,0.88,2.1,-1.2,-6.8,0.99,0.06,-0.04,0.13
1697353725,-0.05,-0.17,1.35,1.9,-2.5,-6.6,0.99,0.06,-0.04,0.13
1697353725.01,-0.06,0.04,0.99,2,-2.7,-6,0.99,0.06,-0.04,0.13
1697353725.02,-0.12,0.03,0.86,2.7,-2.3,-4.5,0.99,0.06,-0.04,0.13
1697353725.03,-0.02,0.22,0.84,3.3,-1.9,-2.7,0.99,0.06,-0.04,0.13
1697353725.04,-0.05,0.1,1.14,3.8,-1.4,-1.6,0.99,0.06,-0.04,0.13
1697353725.05,-0.16,0.14,0.97,3.3,-0.8,-0.6,0.99,0.06,-0.04,0.13
1697353725.06,-0.08,0,1.23,0.9,-0.6,0,0.99,0.06,-0.04,0.13
1697353725.07,-0.08,0.12,1.1,-1.4,0.2,1,0.99,0.06,-0.04,0.13
1697353725.08,-0.08,0.23,0.94,-1.3,1,1.5,0.99,0.06,-0.04,0.13
1697353725.09,-0.1,0.17,1.1,-1.3,1,1.5,0.99,0.06,-0.04,0.13
1697353725.1,-0.16,0.2,0.92,0,2.2,2.4,0.99,0.06,-0.04,0.13
1697353725.11,-0.16,0.2,0.92,0,2.2,2.4,0.99,0.06,-0.04,0.13
1697353725.12,-0.15,0.14,1,-0.3,3,2.9,0.99,0.06,-0.04,0.13
1697353725.13,-0.16,0.18,0.83,-0.3,3,2.9,0.99,0.06,-0.04,0.13
1697353725.14,-0.17,0.25,1.14,0.2,2.8,4.1,0.99,0.06,-0.04,0.13
1697353725.15,-0.17,0.25,1.14,0.2,2.8,4.1,0.99,0.06,-0.04,0.13
1697353725.16,-0.04,0.21,0.83,3.3,2.4,4.6,0.99,0.06,-0.04,0.13
1697353725.17,-0.09,0.04,0.82,2.7,1.4,5.3,0.99,0.06,-0.04,0.13
1697353725.18,-0.04,-0.07,1.26,1.3,0.5,5.7,0.99,0.06,-0.04,0.13
1697353725.19,0,0.11,1.26,0,0,6.5,0.99,0.06,-0.04,0.13
1697353725.2,-0.01,0.08,0.94,0,0,6.5,0.99,0.06,-0.04,0.13
1697353725.21,-0.03,0.23,0.93,-0.9,-0.9,7.2,0.99,0.06,-0.04,0.13
1697353725.22,-0.05,0.28,1.17,-2.6,-1.1,8.1,0.99,0.06,-0.04,0.13
1697353725.23,-0.13,0.41,1.08,-1.1,-0.9,9.2,0.99,0.06,-0.04,0.13
1697353725.24,-0.13,0.41,0.76,1,-0.9,10.7,0.99,0.06,-0.04,0.13
1697353725.25,-0.03,0.32,1.19,2.7,-0.7,12,0.99,0.06,-0.04,0.14
1697353725.26,-0.15,0.18,1.37,2.8,-0.9,13.1,0.99,0.06,-0.04,0.14
1697353725.27,-0.02,0.29,1.35,0.4,-1.5,14.2,0.99,0.06,-0.04,0.14
1697353725.28,-0.22,0.24,1.2,-0.5,-2.1,15.1,0.99,0.06,-0.04,0.14
1697353725.29,-0,0.41,0.68,-0.8,-2.5,15.6,0.99,0.06,-0.04,0.14
1697353725.3,-0.02,0.37,0.92,-0.2,-2.6,16.4,0.99,0.06,-0.04,0.14
1697353725.31,-0.18,0.3,1.03,0.7,-2.9,16.9,0.99,0.06,-0.04,0.14
1697353725.32,-0.08,0.24,0.85,0.7,-2.7,16.9,0.99,0.06,-0.04,0.15
1697353725.33,-0.11,0.32,1.07,-0.5,-2.8,16.8,0.99,0.06,-0.04,0.15
1697353725.34,0,0.42,0.87,-0.7,-3.2,16.8,0.99,0.06,-0.04,0.15
1697353725.35,-0.12,0.31,1.23,1,-4.3,17,0.99,0.06,-0.04,0.15
1697353725.36,-0.06,0.23,0.99,2.8,-5.6,16.8,0.99,0.06,-0.04,0.15
1697353725.37,-0.07,0.11,1.03,2,-6.2,17,0.99,0.06,-0.04,0.15
1697353725.38,-0.07,0.11,1.03,2,-6.2,17,0.99,0.06,-0.04,0.15
1697353725.39,-0.07,0.11,1.03,2,-6.2,17,0.99,0.06,-0.04,0.15
1697353725.4,-0.07,0.11,1.03,2,-6.2,17,0.99,0.06,-0.04,0.15
1697353725.41,-0.07,0.11,1.03,2,-6.2,17,0.99,0.06,-0.04,0.15
1697353725.42,-0.07,0.11,1.03,2,-6.2,17,0.99,0.06,-0.04,0.15
1697353725.43,-0.07,0.11,1.03,2,-6.2,17,0.99,0.06,-0.04,0.15
1697353725.44,-0.07,0.11,1.03,2,-6.2,17,0.99,0.06,-0.04,0.15
1697353725.45,-0.07,0.11,1.03,2,-6.2,17,0.99,0.06,-0.04,0.15
1697353725.46,-0.07,0.11,1.03,2,-6.2,17,0.99,0.06,-0.04,0.15
1697353725.47,-0.07,0.11,1.03,2,-6.2,17,0.99,0.06,-0.04,0.15
1697353725.48,-0.07,0.11,1.03,2,-6.2,17,0.99,0.06,-0.04,0.15
1697353725.49,-0.07,0.11,1.03,2,-6.2,17,0.99,0.06,-0.04,0.15
1697353725.5,-0.07,0.11,1.03,2,-6.2,17,0.99,0.06,-0.04,0.15
1697353725.51,-0.07,0.11,1.03,2,-6.2,17,0.99,0.06,-0.04,0.15
1697353725.52,-0.01,0.25,0.88,-5.1,0.4,14.9,0.98,0.06,-0.04,0.17
1697353725.53,-0.08,0.34,1.04,-4.5,-0.8,14.8,0.98,0.06,-0.04,0.17
1697353725.54,0.04,0.34,1,-4.5,-0.8,14.8,0.98,0.06,-0.04,0.18
1697353725.55,-0.01,0.39,0.87,-1.7,-1.6,15.2,0.98,0.06,-0.05,0.18
1697353725.56,-0.01,0.39,0.87,1.1,-1.6,15.5,0.98,0.06,-0.05,0.18
1697353725.57,-0.13,0.14,1.22,2.7,-1,15.5,0.98,0.06,-0.05,0.18
1697353725.58,-0.07,-0.01,0.89,1.8,0,15.6,0.98,0.06,-0.05,0.18
1697353725.59,-0.09,0.03,0.86,0.7,0.7,15.3,0.98,0.06,-0.05,0.18
1697353725.6,-0.07,0.06,1.09,-0.4,1.5,15.6,0.98,0.06,-0.04,0.18
1697353725.61,-0.03,0.21,0.82,-0.6,1.8,15.6,0.98,0.06,-0.04,0.19
1697353725.62,-0.08,0.32,1.21,0,1.9,16,0.98,0.06,-0.04,0.19
1697353725.63,-0.04,0.34,1.1,1.5,1.3,16.8,0.98,0.06,-0.04,0.19
1697353725.64,0.02,0.37,0.96,2.5,0,17.7,0.98,0.06,-0.04,0.19
1697353725.65,-0.07,0.36,0.95,3.2,-1,18.5,0.98,0.06,-0.04,0.19
1697353725.66,-0.13,0.36,1.04,2.7,-2.3,19.5,0.98,0.06,-0.05,0.19
1697353725.67,-0.11,0.35,0.94,3.2,-2.6,20.3,0.98,0.06,-0.05,0.2
1697353725.68,-0.07,0.37,0.82,3,-2.7,20.8,0.98,0.06,-0.05,0.2
1697353725.69,-0.1,0.61,0.9,1.9,-2.5,21.4,0.98,0.06,-0.05,0.2
1697353725.7,-0.16,0.55,0.8,1,-2.2,21.7,0.98,0.06,-0.05,0.2
1697353725.71,-0.23,0.72,0.74,0.8,-1.5,23.2,0.98,0.06,-0.05,0.2
1697353725.72,-0.21,0.73,0.99,1.9,-0.4,24.4,0.98,0.06,-0.05,0.2
1697353725.73,-0.15,0.75,0.88,2.8,1.3,25.7,0.98,0.06,-0.05,0.21
1697353725.74,-0.15,0.8,1.01,3,2.3,28.2,0.97,0.06,-0.05,0.21
1697353725.75,-0.09,0.88,0.73,2.4,3,30.9,0.97,0.06,-0.05,0.21
1697353725.76,-0.09,0.88,0.73,2.4,3,30.9,0.97,0.06,-0.05,0.21
1697353725.77,-0.09,0.79,1.02,2.3,3.1,36.8,0.97,0.06,-0.05,0.22
1697353725.78,-0.09,0.79,1.02,2.3,3.1,36.8,0.97,0.06,-0.05,0.22
1697353725.79,-0.13,0.41,1.14,3.6,0.8,42.2,0.97,0.06,-0.05,0.23
1697353725.8,-0.13,0.41,1.14,3.6,0.8,42.2,0.97,0.06,-0.05,0.23
1697353725.81,-0.1,0.39,1.11,0,-1.2,43.2,0.97,0.06,-0.05,0.23
1697353725.82,-0.26,0.49,0.88,-4.7,-0.6,42.9,0.97,0.06,-0.05,0.24
1697353725.83,-0.16,0.64,1.13,-4.7,-0.6,42.9,0.97,0.06,-0.05,0.24
1697353725.84,-0.18,0.65,1.14,-4.3,1.3,41.6,0.97,0.06,-0.05,0.25
1697353725.85,-0.17,0.55,0.94,-0.4,2.1,40.8,0.97,0.06,-0.05,0.25
1697353725.86,-0.17,0.55,0.94,2.6,2.3,40,0.97,0.06,-0.05,0.25
1697353725.87,-0.22,0.39,1.24,3.1,2.6,39,0.96,0.06,-0.05,0.25
1697353725.88,-0.21,0.24,1.13,0.7,3.2,37.9,0.96,0.06,-0.05,0.26
1697353725.89,-0.2,0.33,0.67,-2.6,4.4,36.2,0.96,0.06,-0.05,0.26
1697353725.9,0.02,0.46,0.95,-2.6,4.4,36.2,0.96,0.06,-0.05,0.26
1697353725.91,0.04,0.47,0.83,-5.7,5.4,35.2,0.96,0.05,-0.05,0.27
1697353725.92,0.04,0.47,0.83,-5.7,5.4,35.2,0.96,0.05,-0.05,0.27
1697353725.93,0.04,0.47,0.83,-5.7,5.4,35.2,0.96,0.05,-0.05,0.27
1697353725.94,0.04,0.47,0.83,-5.7,5.4,35.2,0.96,0.05,-0.05,0.27
1697353725.95,0.04,0.47,0.83,-5.7,5.4,35.2,0.96,0.05,-0.05,0.27
1697353725.96,0.04,0.47,0.83,-5.7,5.4,35.2,0.96,0.05,-0.05,0.27
1697353725.97,0.04,0.47,0.83,-5.7,5.4,35.2,0.96,0.05,-0.05,0.27
1697353725.98,0.04,0.47,0.83,-5.7,5.4,35.2,0.96,0.05,-0.05,0.27
1697353725.99,0.04,0.47,0.83,-5.7,5.4,35.2,0.96,0.05,-0.05,0.27
1697353726,0.04,0.47,0.83,-5.7,5.4,35.2,0.96,0.05,-0.05,0.27
1697353726.01,0.04,0.47,0.83,-5.7,5.4,35.2,0.96,0.05,-0.05,0.27
1697353726.02,0.04,0.47,0.83,-5.7,5.4,35.2,0.96,0.05,-0.05,0.27
1697353726.03,0.04,0.47,0.83,-5.7,5.4,35.2,0.96,0.05,-0.05,0.27
1697353726.04,0.04,0.47,0.83,-5.7,5.4,35.2,0.96,0.05,-0.05,0.27
1697353726.05,-0.1,0.57,1.26,-1.8,3.8,29.7,0.95,0.05,-0.05,0.3
1697353726.06,-0.04,0.67,0.92,-3.3,3.4,29.9,0.95,0.05,-0.05,0.3
1697353726.07,-0.11,0.54,1.12,0,2.9,30.7,0.95,0.05,-0.05,0.31
1697353726.08,-0.04,0.39,0.83,4.7,1.9,31.2,0.95,0.05,-0.05,0.31
1697353726.09,-0.09,0.26,1.13,7.6,0.9,31.6,0.95,0.05,-0.05,0.31
1697353726.1,-0.05,0.29,0.78,6.5,0.2,31.5,0.95,0.05,-0.05,0.32
1697353726.11,-0.08,0.38,0.95,3.8,-0.6,31.4,0.95,0.05,-0.05,0.32
1697353726.12,-0.08,0.49,0.94,0.3,-1,31.6,0.94,0.05,-0.05,0.32
1697353726.13,-0.17,0.63,0.98,-2.7,-1.1,33,0.94,0.05,-0.05,0.32
1697353726.14,-0.16,0.77,0.99,-0.1,-0.6,34.5,0.94,0.05,-0.05,0.32
1697353726.15,-0.21,0.75,1.1,0.5,-0.3,34.9,0.94,0.05,-0.05,0.33
1697353726.16,-0.21,0.68,1.05,0.5,-0.3,34.9,0.94,0.05,-0.05,0.33
1697353726.17,-0.2,0.61,1.18,1.5,1.6,38.9,0.94,0.05,-0.05,0.33
1697353726.18,-0.15,0.47,1.03,1.5,1.6,38.9,0.94,0.05,-0.05,0.34
1697353726.19,-0.21,0.59,0.97,-3.3,2.1,40.7,0.94,0.05,-0.05,0.34
1697353726.2,-0.16,0.68,1.05,-3.3,2.1,40.7,0.94,0.05,-0.05,0.34
1697353726.21,-0.16,0.68,1.05,-3.5,1.9,41.3,0.94,0.05,-0.05,0.35
1697353726.22,-0.08,0.68,1.14,-1.4,1.7,41.7,0.93,0.05,-0.05,0.35
1697353726.23,-0.1,0.53,1.06,1.3,1.3,41.8,0.93,0.05,-0.05,0.35
1697353726.24,-0.1,0.53,1.06,3.2,1.3,41.8,0.93,0.05,-0.05,0.36
1697353726.25,-0.04,0.43,0.96,3.3,1.2,41.7,0.93,0.05,-0.05,0.36
1697353726.26,-0.09,0.36,0.9,2.5,0.8,41.2,0.93,0.05,-0.05,0.36
1697353726.27,-0.08,0.44,1.02,1,0.4,40.7,0.93,0.05,-0.05,0.37
1697353726.28,-0.11,0.54,0.98,-0.4,-0.1,40.1,0.93,0.05,-0.05,0.37
1697353726.29,-0.08,0.59,0.82,0,0,39.9,0.92,0.05,-0.05,0.37
1697353726.3,-0.14,0.63,1.21,2.4,-0.2,40,0.92,0.05,-0.05,0.38
1697353726.31,-0.1,0.49,0.92,5.1,-0.1,39.8,0.92,0.05,-0.05,0.38
1697353726.32,-0.11,0.4,0.94,5.8,0.5,39.9,0.92,0.05,-0.05,0.38
1697353726.33,-0.19,0.43,1.18,2.7,1.3,39.7,0.92,0.05,-0.05,0.39
1697353726.34,-0.16,0.56,0.81,0,1.8,39.9,0.92,0.05,-0.05,0.39
1697353726.35,-0.16,0.69,1.08,-1,2.5,40.6,0.92,0.05,-0.05,0.39
1697353726.36,-0.14,0.74,1.08,0.1,3,41.6,0.92,0.05,-0.05,0.4
1697353726.37,-0.05,0.7,0.92,2.2,2.7,42.8,0.91,0.05,-0.05,0.4
1697353726.38,-0.14,0.57,1,3.7,2.3,44,0.91,0.05,-0.05,0.4
1697353726.39,-0.07,0.58,1.01,2.6,1.5,45.5,0.91,0.05,-0.05,0.41
1697353726.4,-0.2,0.64,0.98,0.9,0.9,46.5,0.91,0.05,-0.05,0.41
1697353726.41,-0.19,0.77,0.95,0,0.3,47.4,0.91,0.05,-0.05,0.41
1697353726.42,-0.1,0.79,0.88,0.6,0,48.4,0.91,0.05,-0.05,0.42
1697353726.43,-0.15,0.76,0.91,1.9,-0.3,49.6,0.91,0.05,-0.05,0.42
1697353726.44,-0.15,0.76,0.91,1.9,-0.3,49.6,0.91,0.05,-0.05,0.42
1697353726.45,-0.15,0.76,0.91,1.9,-0.3,49.6,0.91,0.05,-0.05,0.42
1697353726.46,-0.15,0.76,0.91,1.9,-0.3,49.6,0.91,0.05,-0.05,0.42
1697353726.47,-0.15,0.76,0.91,1.9,-0.3,49.6,0.91,0.05,-0.05,0.42
1697353726.48,-0.15,0.76,0.91,1.9,-0.3,49.6,0.91,0.05,-0.05,0.42
1697353726.49,-0.15,0.76,0.91,1.9,-0.3,49.6,0.91,0.05,-0.05,0.42
1697353726.5,-0.15,0.76,0.91,1.9,-0.3,49.6,0.91,0.05,-0.05,0.42
1697353726.51,-0.15,0.76,0.91,1.9,-0.3,49.6,0.91,0.05,-0.05,0.42
1697353726.52,-0.15,0.76,0.91,1.9,-0.3,49.6,0.91,0.05,-0.05,0.42
1697353726.53,-0.15,0.76,0.91,1.9,-0.3,49.6,0.91,0.05,-0.05,0.42
1697353726.54,-0.15,0.76,0.91,1.9,-0.3,49.6,0.91,0.05,-0.05,0.42
1697353726.55,-0.15,0.76,0.91,1.9,-0.3,49.6,0.91,0.05,-0.05,0.42
1697353726.56,-0.15,0.76,0.91,1.9,-0.3,49.6,0.91,0.05,-0.05,0.42
1697353726.57,-0.13,0.91,0.81,1.4,1,66.3,0.87,0.05,-0.05,0.49
1697353726.58,-0.23,0.9,1.04,1.2,0.4,66.6,0.87,0.05,-0.05,0.49
1697353726.59,-0.25,0.88,1.1,1,0.1,66.6,0.87,0.05,-0.05,0.49
1697353726.6,-0.23,0.84,1.1,0.8,-0.3,66.8,0.86,0.05,-0.05,0.5
1697353726.61,-0.23,0.84,1.1,0.8,-0.3,66.8,0.86,0.05,-0.05,0.5
1697353726.62,-0.22,0.84,0.91,-0.2,-0.8,66.8,0.86,0.05,-0.05,0.51
1697353726.63,-0.29,0.82,1.19,-2.1,-0.9,67.1,0.85,0.05,-0.05,0.52
1697353726.64,-0.25,0.91,0.98,-2.3,-0.9,67.2,0.85,0.05,-0.05,0.52
1697353726.65,-0.27,0.93,0.98,-1.7,0,67.4,0.85,0.05,-0.05,0.53
1697353726.66,-0.29,0.94,1,-1.4,0.2,67.5,0.84,0.05,-0.05,0.53
1697353726.67,-0.32,0.86,1.01,-0.1,1.3,67.8,0.84,0.04,-0.05,0.54
1697353726.68,-0.19,0.86,0.9,0.7,2,68.1,0.84,0.04,-0.05,0.54
1697353726.69,-0.21,0.82,1.16,0.6,2.4,68.2,0.83,0.04,-0.05,0.55
1697353726.7,-0.17,0.77,0.91,-0.9,2.3,68.5,0.83,0.04,-0.05,0.55
1697353726.71,-0.27,0.84,1.24,-2,1.9,68.6,0.83,0.04,-0.05,0.55
1697353726.72,-0.18,0.87,0.89,-1.7,1.4,68.6,0.82,0.04,-0.05,0.56
1697353726.73,-0.24,0.81,1.1,-0.2,0.8,68.8,0.82,0.04,-0.06,0.57
1697353726.74,-0.16,0.81,0.89,1.1,0.7,68.7,0.82,0.04,-0.06,0.57
1697353726.75,-0.22,0.75,1.17,1.7,0.6,68.6,0.81,0.04,-0.06,0.58
1697353726.76,-0.24,0.69,0.79,1.4,0.3,68.4,0.81,0.04,-0.06,0.58
1697353726.77,-0.21,0.74,1.23,0,0.5,68,0.81,0.04,-0.06,0.59
1697353726.78,-0.23,0.74,1.09,-1,0.1,68,0.8,0.04,-0.06,0.59
1697353726.79,-0.13,0.85,1,-0.9,0.4,67.8,0.8,0.04,-0.06,0.6
1697353726.8,-0.12,0.83,0.91,-0.3,1.1,67.7,0.8,0.04,-0.06,0.6
1697353726.81,-0.22,0.77,0.83,1,1.2,67.6,0.8,0.04,-0.06,0.6
1697353726.82,-0.18,0.7,0.91,1.6,1.4,67.3,0.79,0.04,-0.06,0.61
1697353726.83,-0.1,0.76,1.38,-1.1,1.5,66.8,0.79,0.04,-0.06,0.61
1697353726.84,0.2,0.69,0.7,-2.5,1,66,0.78,0.04,-0.06,0.62
1697353726.85,0.28,0.88,1.36,-2.4,-0.1,65.9,0.78,0.04,-0.06,0.62
1697353726.86,0.23,0.66,0.98,-0.9,-1.3,65.9,0.77,0.04,-0.06,0.63
1697353726.87,0.21,0.85,0.78,0.5,-2.1,65.7,0.77,0.04,-0.06,0.63
1697353726.88,0.05,0.64,0.96,1.1,-1.6,65.6,0.77,0.04,-0.06,0.63
1697353726.89,0.01,0.82,0.76,1.3,-1.3,65.1,0.77,0.04,-0.06,0.64
1697353726.9,-0.23,0.81,1.17,0.3,0.6,66.1,0.76,0.04,-0.06,0.64
1697353726.91,-0.28,0.73,1.19,1.5,2,65.2,0.76,0.04,-0.06,0.65
1697353726.92,0.03,0.82,1.29,-0.2,2.5,65.7,0.75,0.04,-0.06,0.65
1697353726.93,0.13,0.62,0.82,-0.2,2.5,65.7,0.75,0.04,-0.06,0.66
1697353726.94,0.16,0.85,1.02,-0.6,1.9,64.7,0.75,0.03,-0.06,0.66
1697353726.95,0.15,0.6,1.03,-0.6,1.9,64.7,0.74,0.03,-0.06,0.67
1697353726.96,0.15,0.6,1.03,-1.6,1.4,64.7,0.74,0.03,-0.06,0.67
1697353726.97,0.15,0.6,1.03,-1.6,1.4,64.7,0.74,0.03,-0.06,0.67
1697353726.98,0.15,0.6,1.03,-1.6,1.4,64.7,0.74,0.03,-0.06,0.67
1697353726.99,0.15,0.6,1.03,-1.6,1.4,64.7,0.74,0.03,-0.06,0.67
1697353727,0.15,0.6,1.03,-1.6,1.4,64.7,0.74,0.03,-0.06,0.67
1697353727.01,0.15,0.6,1.03,-1.6,1.4,64.7,0.74,0.03,-0.06,0.67
1697353727.02,0.15,0.6,1.03,-1.6,1.4,64.7,0.74,0.03,-0.06,0.67
1697353727.03,0.15,0.6,1.03,-1.6,1.4,64.7,0.74,0.03,-0.06,0.67
1697353727.04,0.15,0.6,1.03,-1.6,1.4,64.7,0.74,0.03,-0.06,0.67
1697353727.05,0.15,0.6,1.03,-1.6,1.4,64.7,0.74,0.03,-0.06,0.67
1697353727.06,0.15,0.6,1.03,-1.6,1.4,64.7,0.74,0.03,-0.06,0.67
1697353727.07,0.15,0.6,1.03,-1.6,1.4,64.7,0.74,0.03,-0.06,0.67
1697353727.08,0.15,0.6,1.03,-1.6,1.4,64.7,0.74,0.03,-0.06,0.67
1697353727.09,0.06,0.61,1.02,2.4,1.1,57.9,0.69,0.03,-0.06,0.72
1697353727.1,0.19,0.63,0.93,0.4,1.5,57.3,0.69,0.03,-0.06,0.72
1697353727.11,0.07,0.65,1.08,-1.3,1.6,56.9,0.68,0.03,-0.06,0.73
1697353727.12,0.03,0.76,0.94,-1.5,1.5,56.6,0.68,0.03,-0.06,0.73
1697353727.13,0.31,0.71,0.88,-1,1.5,56.2,0.68,0.03,-0.06,0.73
1697353727.14,0.05,0.78,1.08,0.3,1.1,55.9,0.67,0.03,-0.06,0.74
1697353727.15,0.14,0.61,0.8,0.6,1.6,55.8,0.67,0.03,-0.06,0.74
1697353727.16,0.17,0.72,1.05,-0.1,1.7,55.7,0.66,0.03,-0.06,0.74
1697353727.17,0.1,0.64,0.98,-1.3,1.6,55.4,0.66,0.03,-0.06,0.75
1697353727.18,0.01,0.72,1.15,-1.5,1.6,55.5,0.66,0.03,-0.06,0.75
1697353727.19,0.14,0.71,1.09,-1,1.8,55.5,0.66,0.02,-0.06,0.75
1697353727.2,0.16,0.61,0.85,0,2,55.3,0.65,0.02,-0.06,0.75
1697353727.21,0.15,0.58,1.23,0.3,1.9,54.8,0.65,0.02,-0.06,0.76
1697353727.22,0.2,0.47,0.9,-0.7,1.5,53.9,0.65,0.02,-0.06,0.76
1697353727.23,0.25,0.6,1.24,-0.7,1.5,53.9,0.64,0.02,-0.06,0.76
1697353727.24,0.25,0.6,1.24,-1.6,1.3,52.8,0.64,0.02,-0.06,0.77
1697353727.25,0.19,0.59,0.96,-2.2,1.1,51.4,0.64,0.02,-0.06,0.77
1697353727.26,0.1,0.6,1.26,0.8,0.3,49.6,0.63,0.02,-0.06,0.77
1697353727.27,0.17,0.4,0.58,1.8,0,48.6,0.63,0.02,-0.06,0.78
1697353727.28,0.15,0.45,1.07,1.1,0,47.2,0.62,0.02,-0.06,0.78
1697353727.29,0.2,0.41,1,-0.8,0,46.3,0.62,0.02,-0.06,0.78
1697353727.3,0.2,0.41,1,-0.8,0,46.3,0.62,0.02,-0.06,0.78
1697353727.31,0.15,0.52,0.97,-2.5,-0.2,44.8,0.61,0.02,-0.06,0.79
1697353727.32,0.15,0.53,0.97,-1,0.2,42.6,0.61,0.02,-0.06,0.79
1697353727.33,0.22,0.42,1,0.5,0.2,41.6,0.61,0.02,-0.06,0.79
1697353727.34,0.2,0.27,1.14,0.9,0.2,40.4,0.61,0.02,-0.06,0.79
1697353727.35,0.28,0.33,0.82,0.9,0.2,40.4,0.6,0.02,-0.06,0.8
1697353727.36,0.28,0.33,0.82,-0.8,0,39.1,0.6,0.02,-0.06,0.8
1697353727.37,0.13,0.26,1.07,-4.2,-0.2,37.7,0.6,0.02,-0.06,0.8
1697353727.38,0.15,0.38,0.9,-4.8,0,36.7,0.59,0.02,-0.06,0.8
1697353727.39,0.07,0.4,0.97,-3.9,0.4,36,0.59,0.02,-0.06,0.8
1697353727.4,0.18,0.39,0.96,-1.6,1,34.8,0.59,0.02,-0.06,0.81
1697353727.41,0.11,0.28,1,0,1.3,33.4,0.59,0.02,-0.06,0.81
1697353727.42,0.17,0.17,1.06,-0.7,1.5,31.9,0.58,0.02,-0.06,0.81
1697353727.43,0.14,0.12,1.04,-2.4,1.7,30.2,0.58,0.02,-0.06,0.81
1697353727.44,0.14,0.12,1.11,-4.1,1.3,28.9,0.58,0.02,-0.06,0.81
1697353727.45,0.1,0.27,0.97,-4.9,1.4,27.6,0.58,0.02,-0.06,0.81
1697353727.46,0.15,0.41,1.25,-2.5,1,26.8,0.58,0.01,-0.06,0.81
1697353727.47,0.15,0.38,1.08,0.9,0.7,26.3,0.57,0.01,-0.06,0.82
1697353727.48,0.15,0.3,1.1,3,0.4,25.8,0.57,0.01,-0.06,0.82
1697353727.49,0.15,0.3,1.1,3,0.4,25.8,0.57,0.01,-0.06,0.82
1697353727.5,0.15,0.3,1.1,3,0.4,25.8,0.57,0.01,-0.06,0.82
1697353727.51,0.15,0.3,1.1,3,0.4,25.8,0.57,0.01,-0.06,0.82
1697353727.52,0.15,0.3,1.1,3,0.4,25.8,0.57,0.01,-0.06,0.82
1697353727.53,0.15,0.3,1.1,3,0.4,25.8,0.57,0.01,-0.06,0.82
1697353727.54,0.15,0.3,1.1,3,0.4,25.8,0.57,0.01,-0.06,0.82
1697353727.55,0.15,0.3,1.1,3,0.4,25.8,0.57,0.01,-0.06,0.82
1697353727.56,0.15,0.3,1.1,3,0.4,25.8,0.57,0.01,-0.06,0.82
1697353727.57,0.15,0.3,1.1,3,0.4,25.8,0.57,0.01,-0.06,0.82
1697353727.58,0.15,0.3,1.1,3,0.4,25.8,0.57,0.01,-0.06,0.82
1697353727.59,0.15,0.3,1.1,3,0.4,25.8,0.57,0.01,-0.06,0.82
1697353727.6,0.15,0.3,1.1,3,0.4,25.8,0.57,0.01,-0.06,0.82
1697353727.61,0.15,0.3,1.1,3,0.4,25.8,0.57,0.01,-0.06,0.82
1697353727.62,0.15,0.3,1.1,3,0.4,25.8,0.57,0.01,-0.06,0.82
1697353727.63,0.12,-0.31,0.91,-6.4,0,2.8,0.55,0.01,-0.07,0.83
1697353727.64,0.16,-0.27,1.09,-7.7,-0.4,0.1,0.55,0.01,-0.07,0.83
1697353727.65,0.17,-0.16,1.12,-6.1,-0.8,-1.8,0.55,0.01,-0.07,0.83
1697353727.66,0.16,-0.04,0.96,-6.1,-0.8,-1.8,0.55,0.01,-0.07,0.83
1697353727.67,0.09,-0.15,1.02,-3.3,-0.9,-3,0.55,0.01,-0.07,0.83
1697353727.68,0.21,-0.35,1.13,-1,-0.9,-4.7,0.55,0.01,-0.07,0.83
1697353727.69,0.21,-0.35,1.13,-1,-0.9,-4.7,0.55,0.01,-0.07,0.83
1697353727.7,0.13,-0.47,1.12,-3.6,-1,-5.9,0.55,0.01,-0.07,0.83
1697353727.71,0.13,-0.47,1.12,-6.3,-1.2,-7.2,0.55,0.01,-0.07,0.83
1697353727.72,0.15,-0.48,1.2,-7.1,-1.2,-9.1,0.56,0.01,-0.07,0.83
1697353727.73,0.06,-0.38,1.06,-5,-1.4,-10.5,0.56,0.01,-0.07,0.83
1697353727.74,0.21,-0.3,1.24,-5,-1.4,-10.5,0.56,0.01,-0.07,0.83
1697353727.75,0.26,-0.68,0.98,-1.6,-1.7,-11.9,0.56,0.01,-0.07,0.83
1697353727.76,-0.01,-0.67,1.24,-0.3,-1.8,-14,0.56,0.01,-0.07,0.83
1697353727.77,0.18,-0.68,1.06,-2.5,-1.4,-16.2,0.56,0.01,-0.07,0.83
1697353727.78,0.28,-0.62,0.81,-5.3,-1.1,-18.6,0.56,0.01,-0.07,0.82
1697353727.79,0.19,-0.5,1.15,-6.2,-0.8,-20.4,0.56,0.01,-0.07,0.82
1697353727.8,0.19,-0.54,1.06,-4.1,-0.9,-22.1,0.56,0.01,-0.07,0.82
1697353727.81,0.3,-0.63,0.66,-1.1,-1,-23.8,0.57,0.01,-0.07,0.82
1697353727.82,0.22,-0.8,0.83,0.2,-0.9,-25.4,0.57,0.01,-0.07,0.82
1697353727.83,0.15,-0.57,1,-0.6,-0.9,-27,0.57,0.01,-0.07,0.82
1697353727.84,0.29,-0.72,0.99,-2.8,-0.8,-27.6,0.57,0.01,-0.07,0.82
1697353727.85,0.14,-0.23,1.18,-2.4,-0.5,-29.5,0.58,0.01,-0.07,0.81
1697353727.86,0.18,-0.54,1.22,-0.5,-0.9,-30.3,0.58,0.01,-0.07,0.81
1697353727.87,0.26,-0.37,0.92,1.4,-0.9,-30.1,0.58,0.01,-0.07,0.81
1697353727.88,0.09,-0.56,1.12,4.5,-1.1,-31.5,0.58,0.01,-0.07,0.81
1697353727.89,0.15,-0.86,0.74,1.8,-1.1,-30.5,0.58,0.01,-0.07,0.81
1697353727.9,0.03,-0.45,0.95,1.5,-0.3,-32.8,0.59,0.01,-0.07,0.81
1697353727.91,0.17,-0.44,1.06,-3.2,2.3,-32.1,0.59,0.01,-0.07,0.8
1697353727.92,0.17,-0.44,1.06,-3.2,2.3,-32.1,0.59,0.01,-0.07,0.8
1697353727.93,0.18,-0.68,1.06,-1.9,3,-32.2,0.59,0.01,-0.07,0.8
1697353727.94,0.26,-0.67,0.83,-0.9,3.4,-33.3,0.6,0.01,-0.07,0.8
1697353727.95,0.21,-0.8,1.03,-3.1,3,-33.7,0.6,0.01,-0.07,0.8
1697353727.96,0.35,-0.48,0.95,-2.7,0.5,-36.1,0.6,0.01,-0.07,0.8
1697353727.97,0.24,-0.87,0.94,-1.1,-0.5,-38.5,0.6,0.01,-0.07,0.8
1697353727.98,0.27,-0.69,0.96,-1.1,-0.5,-38.5,0.6,0.01,-0.07,0.79
1697353727.99,0.24,-0.67,0.88,-4.2,-1,-39.2,0.61,0.01,-0.07,0.79
1697353728,0.2,-0.5,1.05,-4.2,-1,-39.2,0.61,0.01,-0.07,0.79
1697353728.01,0.2,-0.5,1.05,-4.2,-1,-39.2,0.61,0.01,-0.07,0.79
1697353728.02,0.2,-0.5,1.05,-4.2,-1,-39.2,0.61,0.01,-0.07,0.79
1697353728.03,0.2,-0.5,1.05,-4.2,-1,-39.2,0.61,0.01,-0.07,0.79
1697353728.04,0.2,-0.5,1.05,-4.2,-1,-39.2,0.61,0.01,-0.07,0.79
1697353728.05,0.2,-0.5,1.05,-4.2,-1,-39.2,0.61,0.01,-0.07,0.79
1697353728.06,0.2,-0.5,1.05,-4.2,-1,-39.2,0.61,0.01,-0.07,0.79
1697353728.07,0.2,-0.5,1.05,-4.2,-1,-39.2,0.61,0.01,-0.07,0.79
1697353728.08,0.2,-0.5,1.05,-4.2,-1,-39.2,0.61,0.01,-0.07,0.79
1697353728.09,0.2,-0.5,1.05,-4.2,-1,-39.2,0.61,0.01,-0.07,0.79
1697353728.1,0.2,-0.5,1.05,-4.2,-1,-39.2,0.61,0.01,-0.07,0.79
1697353728.11,0.2,-0.5,1.05,-4.2,-1,-39.2,0.61,0.01,-0.07,0.79
1697353728.12,0.2,-0.5,1.05,-4.2,-1,-39.2,0.61,0.01,-0.07,0.79
1697353728.13,0.18,-0.54,0.92,-1.8,-0.9,-41.9,0.64,0.02,-0.07,0.76
1697353728.14,0.18,-0.53,0.98,0.2,-0.4,-41.3,0.65,0.02,-0.07,0.76
1697353728.15,0.15,-0.81,1.18,-1.8,-0.5,-40.7,0.65,0.02,-0.07,0.75
1697353728.16,0.1,-0.67,0.96,-0.7,-0.1,-41.7,0.66,0.02,-0.07,0.75
1697353728.17,0.04,-0.85,1.1,-2.4,0.6,-41,0.66,0.02,-0.07,0.75
1697353728.18,0.1,-0.78,1.12,-2.5,1.9,-41.4,0.66,0.02,-0.07,0.75
1697353728.19,0.16,-0.71,1.02,-2,2.9,-41.8,0.66,0.02,-0.07,0.74
1697353728.2,0.19,-0.76,1.08,-1.2,3.1,-42.5,0.67,0.02,-0.07,0.74
1697353728.21,0.18,-0.8,1.13,-0.8,3,-42.8,0.67,0.02,-0.07,0.74
1697353728.22,0.13,-0.78,1.09,-0.3,2.4,-43.7,0.67,0.02,-0.07,0.74
1697353728.23,0.18,-0.75,1.32,0.5,1.5,-44.7,0.67,0.02,-0.07,0.73
1697353728.24,0.17,-0.76,1.2,1.4,-0.3,-45.6,0.67,0.02,-0.07,0.73
1697353728.25,0.08,-0.95,0.66,0.9,-0.8,-46.3,0.68,0.02,-0.07,0.73
1697353728.26,0.16,-0.61,1.18,-1.2,-0.3,-46.4,0.68,0.02,-0.07,0.73
1697353728.27,0.27,-0.67,0.91,-2.8,-0.1,-45.9,0.68,0.02,-0.07,0.73
1697353728.28,0.22,-0.68,1.12,-1.6,-0.1,-45.5,0.69,0.02,-0.07,0.72
1697353728.29,0.14,-0.75,1.2,-0.9,0.3,-45.3,0.69,0.02,-0.07,0.72
1697353728.3,0.09,-0.78,1.19,-0.9,0.3,-45.3,0.69,0.02,-0.07,0.72
1697353728.31,0.14,-0.83,0.99,0.1,0.9,-44.8,0.7,0.02,-0.07,0.71
1697353728.32,0.17,-0.84,0.89,-0.4,1.4,-44.9,0.7,0.02,-0.07,0.71
1697353728.33,0.06,-0.85,1.02,-2,1.3,-44.3,0.7,0.02,-0.07,0.71
1697353728.34,0.14,-0.72,0.99,-2.2,1.1,-44.4,0.7,0.02,-0.07,0.71
1697353728.35,0.14,-0.81,0.78,-2.2,1.1,-44.4,0.71,0.02,-0.07,0.7
1697353728.36,0.24,-0.8,1,-1.6,0.7,-44,0.71,0.02,-0.07,0.7
1697353728.37,0.2,-0.77,0.97,-0.4,0.6,-44.1,0.71,0.02,-0.07,0.7
1697353728.38,0.22,-0.78,1.04,1.8,0.7,-44,0.72,0.02,-0.07,0.69
1697353728.39,0.25,-0.9,1.06,2.5,0.4,-44.3,0.72,0.02,-0.07,0.69
1697353728.4,0.3,-1.05,1.29,-1.4,-0.3,-44.3,0.72,0.02,-0.07,0.69
1697353728.41,0.3,-1.05,1.29,-1.4,-0.3,-44.3,0.72,0.02,-0.07,0.69
1697353728.42,0.2,-0.86,1.01,-0.6,-1.4,-45.1,0.73,0.02,-0.07,0.68
1697353728.43,0.16,-0.72,0.83,-0.2,-0.5,-45.4,0.73,0.02,-0.07,0.68
1697353728.44,0.16,-0.77,0.82,0.9,-0.2,-45.3,0.73,0.02,-0.07,0.68
1697353728.45,0.16,-0.77,0.82,0.9,-0.2,-45.3,0.73,0.02,-0.07,0.68
1697353728.46,0.2,-0.79,0.99,0.7,0.1,-44.9,0.74,0.02,-0.07,0.67
1697353728.47,0.32,-0.63,1.13,-0.7,0.8,-45,0.74,0.02,-0.07,0.67
1697353728.48,0.28,-0.93,0.79,-0.5,0.7,-45,0.74,0.02,-0.07,0.67
1697353728.49,0.26,-0.77,0.74,0,-0.3,-44.8,0.75,0.02,-0.07,0.66
1697353728.5,0.13,-0.77,0.93,-1.1,0,-45.4,0.75,0.03,-0.07,0.66
1697353728.51,0.13,-0.77,0.93,-3.1,1,-44.4,0.75,0.03,-0.07,0.66
1697353728.52,0.13,-0.77,0.93,-3.1,1,-44.4,0.75,0.03,-0.07,0.66
1697353728.53,0.13,-0.77,0.93,-3.1,1,-44.4,0.75,0.03,-0.07,0.66
1697353728.54,0.13,-0.77,0.93,-3.1,1,-44.4,0.75,0.03,-0.07,0.66
1697353728.55,0.13,-0.77,0.93,-3.1,1,-44.4,0.75,0.03,-0.07,0.66
1697353728.56,0.13,-0.77,0.93,-3.1,1,-44.4,0.75,0.03,-0.07,0.66
1697353728.57,0.13,-0.77,0.93,-3.1,1,-44.4,0.75,0.03,-0.07,0.66
1697353728.58,0.13,-0.77,0.93,-3.1,1,-44.4,0.75,0.03,-0.07,0.66
1697353728.59,0.13,-0.77,0.93,-3.1,1,-44.4,0.75,0.03,-0.07,0.66
1697353728.6,0.13,-0.77,0.93,-3.1,1,-44.4,0.75,0.03,-0.07,0.66
1697353728.61,0.13,-0.77,0.93,-3.1,1,-44.4,0.75,0.03,-0.07,0.66
1697353728.62,0.13,-0.77,0.93,-3.1,1,-44.4,0.75,0.03,-0.07,0.66
1697353728.63,0.13,-0.77,0.93,-3.1,1,-44.4,0.75,0.03,-0.07,0.66
1697353728.64,0.13,-0.77,0.93,-3.1,1,-44.4,0.75,0.03,-0.07,0.66
1697353728.65,0.16,-0.83,1.19,-2.9,1.4,-43.1,0.78,0.03,-0.07,0.62
1697353728.66,0.2,-0.47,0.82,-2.9,1.4,-43.1,0.79,0.03,-0.07,0.61
1697353728.67,0.21,-0.58,0.94,2.8,0.4,-41.6,0.79,0.03,-0.07,0.61
1697353728.68,0.34,-0.78,0.9,2.8,0.4,-41.6,0.79,0.03,-0.07,0.61
1697353728.69,0.36,-0.83,1.11,6.4,-0.4,-40,0.79,0.03,-0.07,0.6
1697353728.7,0.42,-0.79,1.04,6.4,-0.4,-40,0.8,0.03,-0.07,0.6
1697353728.71,0.46,-0.67,1.06,1.3,-2.5,-39.2,0.8,0.03,-0.07,0.6
1697353728.72,0.33,-0.44,1.02,-0.8,-3,-37.5,0.8,0.03,-0.07,0.6
1697353728.73,0.34,-0.36,0.85,1.2,-2.8,-35.7,0.8,0.03,-0.07,0.59
1697353728.74,0.04,-0.36,1.13,3.4,-1.5,-33.4,0.8,0.03,-0.07,0.59
1697353728.75,0.12,-0.47,0.86,5.2,-0.2,-31.3,0.81,0.03,-0.07,0.59
1697353728.76,0.18,-0.56,1.01,4.1,1.2,-29.6,0.81,0.03,-0.07,0.59
1697353728.77,0.22,-0.41,1.03,0.9,1.7,-28.9,0.81,0.03,-0.07,0.58
1697353728.78,0.34,-0.16,0.99,-1.2,2.1,-27.8,0.81,0.03,-0.07,0.58
1697353728.79,0.36,-0.04,1.12,-0.5,2.3,-25.7,0.81,0.03,-0.07,0.58
1697353728.8,0.4,-0.14,0.95,3.7,2.1,-23.1,0.81,0.03,-0.06,0.58
1697353728.81,0.41,-0.3,0.9,3.7,2.1,-23.1,0.81,0.03,-0.06,0.58
1697353728.82,0.38,-0.54,1.12,5,1.1,-17.6,0.82,0.03,-0.06,0.57
1697353728.83,0.35,-0.29,0.87,1.9,0.7,-15.5,0.82,0.03,-0.06,0.57
1697353728.84,0.34,0.09,0.98,-0.3,1.2,-13.8,0.82,0.04,-0.06,0.57
1697353728.85,0.34,-0.09,0.81,2.1,1.6,-12.5,0.82,0.04,-0.06,0.57
1697353728.86,0.34,-0.09,0.81,2.1,1.6,-12.5,0.82,0.04,-0.06,0.57
1697353728.87,0.38,-0.07,0.93,5,1.6,-11.4,0.82,0.04,-0.06,0.57
1697353728.88,0.22,-0.06,1.1,5.9,1.8,-11,0.82,0.04,-0.06,0.57
1697353728.89,0.4,-0.06,0.77,3.1,1.3,-9.8,0.82,0.04,-0.06,0.57
1697353728.9,0.35,0.1,1.06,2.1,0.9,-9,0.82,0.04,-0.06,0.57
1697353728.91,0.31,0.1,1.1,1.1,1,-7.6,0.82,0.04,-0.06,0.57
1697353728.92,0.42,0.19,0.95,0.3,1,-6.2,0.82,0.04,-0.06,0.57
1697353728.93,0.37,0.38,0.91,0.1,1.2,-4.3,0.82,0.04,-0.06,0.57
1697353728.94,0.37,0.29,0.83,2.1,1.5,-2,0.82,0.04,-0.06,0.57
1697353728.95,0.23,0.11,1.09,4.6,1.5,0.2,0.82,0.04,-0.06,0.57
1697353728.96,0.33,0.04,0.88,3.1,1.9,2,0.82,0.04,-0.06,0.57
1697353728.97,0.29,0.09,0.99,0.1,2.4,3,0.82,0.04,-0.06,0.57
1697353728.98,0.38,0.48,0.93,-2.5,2.6,4.3,0.82,0.04,-0.06,0.57
1697353728.99,0.32,0.57,1.19,-0.9,2.5,6.1,0.82,0.04,-0.06,0.57
1697353729,0.37,0.45,1.04,4.2,1.7,8,0.82,0.04,-0.06,0.57
1697353729.01,0.41,0.19,0.95,6.6,0.5,9.5,0.82,0.04,-0.06,0.57
1697353729.02,0.36,0.15,1.08,4.8,-0.2,10.2,0.82,0.04,-0.06,0.57
1697353729.03,0.36,0.2,1.05,1.6,-1,10.4,0.82,0.04,-0.06,0.57
1697353729.04,0.36,0.2,1.05,1.6,-1,10.4,0.82,0.04,-0.06,0.57
1697353729.05,0.36,0.2,1.05,1.6,-1,10.4,0.82,0.04,-0.06,0.57
1697353729.06,0.36,0.2,1.05,1.6,-1,10.4,0.82,0.04,-0.06,0.57
1697353729.07,0.36,0.2,1.05,1.6,-1,10.4,0.82,0.04,-0.06,0.57
1697353729.08,0.36,0.2,1.05,1.6,-1,10.4,0.82,0.04,-0.06,0.57
1697353729.09,0.36,0.2,1.05,1.6,-1,10.4,0.82,0.04,-0.06,0.57
1697353729.1,0.36,0.2,1.05,1.6,-1,10.4,0.82,0.04,-0.06,0.57
1697353729.11,0.36,0.2,1.05,1.6,-1,10.4,0.82,0.04,-0.06,0.57
1697353729.12,0.36,0.2,1.05,1.6,-1,10.4,0.82,0.04,-0.06,0.57
1697353729.13,0.36,0.2,1.05,1.6,-1,10.4,0.82,0.04,-0.06,0.57
1697353729.14,0.36,0.2,1.05,1.6,-1,10.4,0.82,0.04,-0.06,0.57
1697353729.15,0.36,0.2,1.05,1.6,-1,10.4,0.82,0.04,-0.06,0.57
1697353729.16,0.36,0.2,1.05,1.6,-1,10.4,0.82,0.04,-0.06,0.57
1697353729.17,0.36,0.2,1.05,1.6,-1,10.4,0.81,0.04,-0.06,0.58
1697353729.18,0.39,0.25,0.98,-0.5,-0.9,9.6,0.81,0.04,-0.06,0.58
1697353729.19,0.31,0.33,0.97,-6.1,-1.4,9.2,0.81,0.04,-0.06,0.58
1697353729.2,0.36,0.41,0.9,-3.1,-0.7,9.2,0.81,0.04,-0.06,0.58
1697353729.21,0.31,0.26,0.97,-3.1,-0.7,9.2,0.81,0.04,-0.06,0.58
1697353729.22,0.29,-0.09,0.97,4.2,0.6,9.5,0.81,0.04,-0.06,0.58
1697353729.23,0.29,-0.09,0.97,4.2,0.6,9.5,0.81,0.04,-0.06,0.58
1697353729.24,0.35,-0.02,0.92,2,1,8.4,0.81,0.04,-0.06,0.58
1697353729.25,0.24,0.05,1.1,-1.4,0.7,7.9,0.81,0.04,-0.06,0.59
1697353729.26,0.39,0.23,0.9,-2.7,0.4,7.5,0.81,0.04,-0.06,0.59
1697353729.27,0.37,0.27,1.03,0.8,-0.7,6.8,0.81,0.04,-0.06,0.59
1697353729.28,0.35,0.21,1.11,0.8,-0.7,6.8,0.81,0.04,-0.06,0.59
1697353729.29,0.44,0.07,0.87,1.5,-1.9,6.5,0.81,0.04,-0.06,0.59
1697353729.3,0.3,-0.11,1.31,-2.3,-2.1,5.8,0.81,0.04,-0.06,0.59
1697353729.31,0.3,-0.11,1.31,-2.3,-2.1,5.8,0.81,0.04,-0.06,0.59
1697353729.32,0.35,-0.03,1.17,-5.6,-1.9,5.2,0.81,0.04,-0.06,0.59
1697353729.33,0.42,0.15,0.83,-6.4,-1.4,5.5,0.81,0.04,-0.06,0.59
1697353729.34,0.29,0.33,1.02,-3.1,-0.6,5.9,0.8,0.03,-0.06,0.59
1697353729.35,0.29,0.33,1.02,2.3,0.1,6.2,0.8,0.03,-0.06,0.59
1697353729.36,0.26,0.13,1.05,4.2,0.6,6.4,0.8,0.04,-0.06,0.59
1697353729.37,0.27,-0.09,1.18,2,1.4,5.8,0.8,0.04,-0.06,0.59
1697353729.38,0.16,-0.02,1.29,0.1,1.5,5.5,0.8,0.04,-0.06,0.59
1697353729.39,0.52,0.2,0.67,0.1,1.5,5.5,0.8,0.04,-0.06,0.59
1697353729.4,0.31,0.15,1.04,0.5,1.5,5.7,0.8,0.04,-0.06,0.59
1697353729.41,0.33,0.24,1.12,1.3,0.8,5.6,0.8,0.04,-0.06,0.59
1697353729.42,0.45,0.18,0.89,2.3,0.1,5.6,0.8,0.04,-0.06,0.59
1697353729.43,0.43,0.02,0.89,2.5,-0.8,5.8,0.8,0.04,-0.06,0.59
1697353729.44,0.39,0.21,1.23,0.3,-1.3,6,0.8,0.04,-0.06,0.59
1697353729.45,0.41,0.14,1.03,-1.3,-2.1,5.8,0.8,0.04,-0.06,0.59
1697353729.46,0.29,0.17,0.96,-3.3,-2.1,6,0.8,0.04,-0.06,0.59
1697353729.47,0.28,0.29,0.91,-3.1,-1.1,6.5,0.8,0.03,-0.06,0.59
1697353729.48,0.22,0.21,1.06,-0.5,0.4,7.7,0.8,0.03,-0.06,0.6
1697353729.49,0.17,0.17,1.11,2.6,1.4,8.1,0.8,0.04,-0.06,0.6
1697353729.5,0.17,0.17,1.11,2.6,1.4,8.1,0.8,0.04,-0.06,0.6
1697353729.51,0.37,0.13,1.01,3.8,2.6,8.4,0.8,0.04,-0.06,0.6
1697353729.52,0.46,0.04,0.96,3.8,2.6,8.4,0.8,0.04,-0.06,0.6
1697353729.53,0.37,0.13,1.12,3.4,0.9,8,0.8,0.04,-0.06,0.6
1697353729.54,0.36,0.29,0.89,1.5,-0.6,7.3,0.8,0.04,-0.06,0.6
1697353729.55,0.35,0.15,1.05,0.2,-1.8,7.3,0.8,0.04,-0.06,0.6
1697353729.56,0.35,0.15,1.05,0.2,-1.8,7.3,0.8,0.04,-0.06,0.6
1697353729.57,0.35,0.15,1.05,0.2,-1.8,7.3,0.8,0.04,-0.06,0.6
1697353729.58,0.35,0.15,1.05,0.2,-1.8,7.3,0.8,0.04,-0.06,0.6
1697353729.59,0.35,0.15,1.05,0.2,-1.8,7.3,0.8,0.04,-0.06,0.6
1697353729.6,0.35,0.15,1.05,0.2,-1.8,7.3,0.8,0.04,-0.06,0.6
1697353729.61,0.35,0.15,1.05,0.2,-1.8,7.3,0.8,0.04,-0.06,0.6
1697353729.62,0.35,0.15,1.05,0.2,-1.8,7.3,0.8,0.04,-0.06,0.6
1697353729.63,0.35,0.15,1.05,0.2,-1.8,7.3,0.8,0.04,-0.06,0.6
1697353729.64,0.35,0.15,1.05,0.2,-1.8,7.3,0.8,0.04,-0.06,0.6
1697353729.65,0.35,0.15,1.05,0.2,-1.8,7.3,0.8,0.04,-0.06,0.6
1697353729.66,0.35,0.15,1.05,0.2,-1.8,7.3,0.8,0.04,-0.06,0.6
1697353729.67,0.35,0.15,1.05,0.2,-1.8,7.3,0.8,0.04,-0.06,0.6
1697353729.68,0.35,0.15,1.05,0.2,-1.8,7.3,0.8,0.04,-0.06,0.6
1697353729.69,0.17,0.4,1.13,-2,-4.8,9.3,0.79,0.04,-0.06,0.61
1697353729.7,0.16,0.22,1.03,2.5,-5,9.5,0.79,0.04,-0.06,0.61
1697353729.71,0.26,-0.01,0.93,2.5,-5,9.5,0.79,0.04,-0.06,0.61
1697353729.72,0.23,-0.02,0.99,1.2,-3.1,9.9,0.79,0.04,-0.06,0.61
1697353729.73,0.23,-0.02,0.99,1.2,-3.1,9.9,0.79,0.04,-0.06,0.61
1697353729.74,0.3,0.2,1.14,-1.3,-2.1,9.1,0.79,0.04,-0.06,0.61
1697353729.75,0.45,0.26,0.82,-0.8,-1.1,8.8,0.79,0.04,-0.06,0.61
1697353729.76,0.23,0.28,0.97,1.9,-1.9,9.3,0.79,0.04,-0.06,0.61
1697353729.77,0.27,0.06,1.06,2.7,-2.2,10.2,0.79,0.04,-0.06,0.61
1697353729.78,0.21,-0.13,1.04,-2.6,-1.6,9.7,0.79,0.04,-0.06,0.61
1697353729.79,0.23,0.08,1.23,-7.3,-0.2,9.7,0.79,0.04,-0.06,0.61
1697353729.8,0.25,0.4,0.95,-7.1,1.6,10.4,0.79,0.04,-0.06,0.62
1697353729.81,0.22,0.59,1.03,-2.5,2.6,11.6,0.78,0.04,-0.06,0.62
1697353729.82,0.12,0.56,1.27,3.1,3.7,12.2,0.78,0.04,-0.06,0.62
1697353729.83,0.26,0.28,0.89,5,3.9,12,0.78,0.04,-0.06,0.62
1697353729.84,0.26,0.19,0.95,2.6,3.8,11.6,0.78,0.04,-0.06,0.62
1697353729.85,0.25,0.12,0.91,0,3.6,10.9,0.78,0.04,-0.06,0.62
1697353729.86,0.33,0.3,0.89,-2.8,3,10.2,0.78,0.04,-0.06,0.62
1697353729.87,0.32,0.47,1.15,-0.6,1.2,9.4,0.78,0.03,-0.06,0.62
1697353729.88,0.25,0.47,0.95,1.6,0,9.6,0.78,0.03,-0.06,0.62
1697353729.89,0.18,0.35,1.15,1.8,-1.4,9.6,0.78,0.03,-0.06,0.62
1697353729.9,0.25,0.15,0.93,-0.3,-3,9.1,0.78,0.04,-0.06,0.62
1697353729.91,0.18,0.11,1.08,-3.1,-3.4,8.8,0.78,0.04,-0.06,0.62
1697353729.92,0.23,0.33,0.86,-3.2,-3.3,8.9,0.78,0.03,-0.06,0.62
1697353729.93,0.16,0.09,1.08,-2.5,-2.7,9.5,0.78,0.03,-0.06,0.62
1697353729.94,0.28,0.2,0.92,-2.2,-1.3,9.3,0.78,0.03,-0.06,0.63
1697353729.95,0.27,0.21,1.01,-2.2,-0.1,9.3,0.78,0.03,-0.06,0.63
1697353729.96,0.27,0.21,1.01,-2.2,-0.1,9.3,0.78,0.03,-0.06,0.63
1697353729.97,0.25,0.3,1.08,-1.8,1.9,9.5,0.78,0.03,-0.06,0.63
1697353729.98,0.25,0.3,1.08,-1.8,1.9,9.5,0.78,0.03,-0.06,0.63
1697353729.99,0.14,0.27,1.14,0.6,1.6,10.4,0.77,0.03,-0.06,0.63
1697353730,0.14,0.27,1.14,0.6,1.6,10.4,0.77,0.03,-0.06,0.63
1697353730.01,0.23,0.19,1.05,2,0.8,11.3,0.77,0.03,-0.06,0.63
1697353730.02,0.23,0.19,1.05,2,0.8,11.3,0.77,0.03,-0.06,0.63
1697353730.03,0.28,0.37,0.69,1,-1.2,12.1,0.77,0.03,-0.06,0.63
1697353730.04,0.09,0.3,1.28,2.5,-1,12,0.77,0.03,-0.06,0.63
1697353730.05,0.34,0.15,1,0.2,-0.6,11.6,0.77,0.03,-0.06,0.63
1697353730.06,0.38,0.28,0.68,-0.9,0,10.9,0.77,0.03,-0.06,0.63
1697353730.07,0.26,0.29,0.93,-2,0.7,10,0.77,0.03,-0.06,0.63
1697353730.08,0.16,0.33,1.19,-2,0.7,10,0.77,0.03,-0.06,0.63
1697353730.09,0.16,0.33,1.19,-2,0.7,10,0.77,0.03,-0.06,0.63
1697353730.1,0.16,0.33,1.19,-2,0.7,10,0.77,0.03,-0.06,0.63
1697353730.11,0.16,0.33,1.19,-2,0.7,10,0.77,0.03,-0.06,0.63
1697353730.12,0.16,0.33,1.19,-2,0.7,10,0.77,0.03,-0.06,0.63
1697353730.13,0.16,0.33,1.19,-2,0.7,10,0.77,0.03,-0.06,0.63
1697353730.14,0.16,0.33,1.19,-2,0.7,10,0.77,0.03,-0.06,0.63
1697353730.15,0.16,0.33,1.19,-2,0.7,10,0.77,0.03,-0.06,0.63
1697353730.16,0.16,0.33,1.19,-2,0.7,10,0.77,0.03,-0.06,0.63
1697353730.17,0.16,0.33,1.19,-2,0.7,10,0.77,0.03,-0.06,0.63
1697353730.18,0.16,0.33,1.19,-2,0.7,10,0.77,0.03,-0.06,0.63
1697353730.19,0.16,0.33,1.19,-2,0.7,10,0.77,0.03,-0.06,0.63
1697353730.2,0.16,0.33,1.19,-2,0.7,10,0.77,0.03,-0.06,0.63
1697353730.21,0.16,0.33,1.19,-2,0.7,10,0.77,0.03,-0.06,0.63
1697353730.22,0.16,0.33,1.19,-2,0.7,10,0.77,0.03,-0.06,0.63
1697353730.23,0.16,0.33,1.19,-2,0.7,10,0.77,0.03,-0.06,0.63
1697353730.24,0.16,0.33,1.19,-2,0.7,10,0.77,0.03,-0.06,0.63
1697353730.25,0.16,0.33,1.19,-2,0.7,10,0.77,0.03,-0.06,0.63
1697353730.26,0.16,0.33,1.19,-2,0.7,10,0.77,0.03,-0.06,0.63
1697353730.27,0.16,0.33,1.19,-2,0.7,10,0.77,0.03,-0.06,0.63
1697353730.28,0.07,0.26,0.9,0.3,2.9,8.2,0.76,0.03,-0.07,0.65
1697353730.29,0.11,0.24,1.2,-0.1,3.4,8.2,0.76,0.03,-0.06,0.65
1697353730.3,0.3,0.37,0.74,0.5,3,7.9,0.76,0.03,-0.06,0.65
1697353730.31,0.13,0.15,0.96,3.1,1.8,7.9,0.76,0.03,-0.06,0.65
1697353730.32,0.21,-0.17,1.67,2,0,7.7,0.76,0.03,-0.06,0.65
1697353730.33,0.21,-0.17,1.67,2,0,7.7,0.76,0.03,-0.06,0.65
1697353730.34,0.41,0.43,0.61,-1,-3.4,7.2,0.76,0.03,-0.06,0.65
1697353730.35,0.27,0.22,0.94,-2.4,-7.1,7.7,0.75,0.03,-0.07,0.65
1697353730.36,0.29,0.11,0.83,-2.4,-7.1,7.7,0.75,0.03,-0.07,0.65
1697353730.37,0.1,-0.05,1.07,1.6,-5.7,6.7,0.75,0.03,-0.07,0.65
1697353730.38,0.1,-0.05,1.07,1.6,-5.7,6.7,0.75,0.03,-0.07,0.65
1697353730.39,0.09,0.09,0.89,0.1,-4,6.2,0.75,0.03,-0.07,0.65
1697353730.4,0.2,0.14,0.66,-0.7,-1.4,5.4,0.75,0.03,-0.07,0.65
1697353730.41,0.07,0.15,1.16,0.3,1.2,4.5,0.75,0.03,-0.07,0.65
1697353730.42,0.1,-0.02,1.16,2.8,3.5,4.2,0.75,0.03,-0.07,0.65
1697353730.43,0.12,-0.1,1.21,1.6,4.6,3.8,0.75,0.03,-0.07,0.65
1697353730.44,0.09,0.21,1.21,-3.6,5.5,3.4,0.75,0.03,-0.07,0.65
1697353730.45,0.29,0.42,1.2,-6.3,6.1,3.7,0.75,0.03,-0.07,0.66
1697353730.46,0.26,0.26,1.14,-1.2,5.2,4.1,0.75,0.03,-0.07,0.66
1697353730.47,0.33,0.02,1.07,1.9,4.4,4.6,0.75,0.03,-0.07,0.66
1697353730.48,0.26,0,0.71,2,3.2,4.4,0.75,0.03,-0.06,0.66
1697353730.49,0.19,0.07,0.86,1.3,2.1,3.6,0.75,0.03,-0.06,0.66
1697353730.5,0.17,0.03,0.9,1.2,0.6,3.2,0.75,0.03,-0.06,0.66
1697353730.51,0.09,0.1,0.97,2,-0.5,2.2,0.75,0.03,-0.06,0.66
1697353730.52,0.2,-0.06,1.22,2.4,-1.8,2.1,0.75,0.03,-0.06,0.66
1697353730.53,0.22,-0.07,1.08,2.2,-3.6,2.2,0.75,0.03,-0.06,0.66
1697353730.54,0.19,0.05,0.96,-0.5,-4.9,2.2,0.75,0.03,-0.07,0.66
1697353730.55,0.24,0.12,0.96,-0.5,-4.9,2.2,0.75,0.03,-0.07,0.66
1697353730.56,0.23,0.12,0.8,-1.2,-4.4,2.9,0.75,0.03,-0.07,0.66
1697353730.57,0.07,0.11,1,-1.7,-2.4,3.6,0.75,0.03,-0.07,0.66
1697353730.58,0.03,0.09,1.11,-1.1,0,3.8,0.75,0.03,-0.07,0.66
1697353730.59,0.07,0.07,0.87,0.6,2.1,3.6,0.75,0.03,-0.07,0.66
1697353730.6,0.03,-0.01,0.9,0.7,4.2,3.8,0.75,0.03,-0.07,0.66
1697353730.61,-0.02,0.13,1.25,-0.5,5.6,3.7,0.75,0.03,-0.07,0.66
1697353730.62,0.16,0.23,1.03,0.3,4.3,4.1,0.75,0.03,-0.06,0.66
1697353730.63,0.16,0.23,1.03,0.3,4.3,4.1,0.75,0.03,-0.06,0.66
1697353730.64,0.09,0.2,1.09,3.1,0.9,5.3,0.75,0.03,-0.06,0.66
1697353730.65,0.2,0.13,0.85,3.1,0.9,5.3,0.75,0.03,-0.06,0.66
1697353730.66,0.05,0.11,0.77,2.8,-0.4,5.1,0.75,0.03,-0.06,0.66
1697353730.67,0.05,0.11,0.77,2.8,-0.4,5.1,0.75,0.03,-0.06,0.66
1697353730.68,0.05,0.11,0.77,2.8,-0.4,5.1,0.75,0.03,-0.06,0.66
1697353730.69,0.05,0.11,0.77,2.8,-0.4,5.1,0.75,0.03,-0.06,0.66
1697353730.7,0.05,0.11,0.77,2.8,-0.4,5.1,0.75,0.03,-0.06,0.66
1697353730.71,0.05,0.11,0.77,2.8,-0.4,5.1,0.75,0.03,-0.06,0.66
1697353730.72,0.05,0.11,0.77,2.8,-0.4,5.1,0.75,0.03,-0.06,0.66
1697353730.73,0.05,0.11,0.77,2.8,-0.4,5.1,0.75,0.03,-0.06,0.66
1697353730.74,0.05,0.11,0.77,2.8,-0.4,5.1,0.75,0.03,-0.06,0.66
1697353730.75,0.05,0.11,0.77,2.8,-0.4,5.1,0.75,0.03,-0.06,0.66
1697353730.76,0.05,0.11,0.77,2.8,-0.4,5.1,0.75,0.03,-0.06,0.66
1697353730.77,0.05,0.11,0.77,2.8,-0.4,5.1,0.75,0.03,-0.06,0.66
1697353730.78,0.05,0.11,0.77,2.8,-0.4,5.1,0.75,0.03,-0.06,0.66
1697353730.79,-0.12,0.14,1.1,0.8,5.1,2.3,0.74,0.03,-0.06,0.66
1697353730.8,0.06,0.1,1.29,1.5,2.7,2.5,0.74,0.03,-0.06,0.66
1697353730.81,0.07,-0.08,1.05,1,0.4,2,0.74,0.03,-0.06,0.66
1697353730.82,0.25,-0.05,0.88,0,-1.9,1.9,0.74,0.03,-0.06,0.66
1697353730.83,0.12,0.03,1.17,-1.7,-4.1,2.5,0.74,0.03,-0.06,0.66
1697353730.84,0.11,0.09,0.78,-1.6,-5.4,2.2,0.74,0.03,-0.06,0.66
1697353730.85,-0.18,0.04,1.14,0.1,-6.2,1.5,0.74,0.03,-0.06,0.66
1697353730.86,-0.02,0.05,0.86,1.2,-5.5,1.5,0.74,0.03,-0.06,0.66
1697353730.87,-0.18,-0.07,0.8,0.2,-3.7,1.6,0.74,0.03,-0.06,0.66
1697353730.88,-0.26,-0.05,1.1,-0.2,-1.8,1.1,0.74,0.03,-0.06,0.67
1697353730.89,-0.11,-0.01,0.91,1.1,0.5,0.7,0.74,0.03,-0.06,0.67
1697353730.9,-0.29,0.06,1.29,1.9,2.5,1.2,0.74,0.03,-0.06,0.67
1697353730.91,-0.18,-0.15,0.91,0.7,3.9,1,0.74,0.03,-0.06,0.67
1697353730.92,-0.14,-0.12,0.84,-1.7,4.4,0.7,0.74,0.03,-0.06,0.67
1697353730.93,-0.32,-0.02,1.32,-3.3,4.8,0.8,0.74,0.03,-0.06,0.67
1697353730.94,-0.2,0.14,0.72,-1.8,5.2,1.2,0.74,0.03,-0.06,0.67
1697353730.95,-0.32,0.18,0.95,0.3,4.4,1.5,0.74,0.03,-0.06,0.67
1697353730.96,-0.34,0.02,0.87,1.8,3.8,1.4,0.74,0.03,-0.06,0.67
1697353730.97,-0.09,0.09,0.63,1.8,3.8,1.4,0.74,0.03,-0.06,0.67
1697353730.98,-0.01,-0.09,1.03,0.7,2.3,0.6,0.74,0.03,-0.06,0.67
1697353730.99,-0.03,-0.02,1.07,-0.1,1.3,0.5,0.74,0.03,-0.06,0.67
1697353731,-0.04,0.01,0.79,-0.3,0.9,0.4,0.74,0.03,-0.06,0.67
1697353731.01,-0.11,0.03,0.9,-0.3,0.9,0.4,0.74,0.03,-0.06,0.67
1697353731.02,-0,-0.06,0.59,-0.5,1.4,-0.1,0.74,0.03,-0.06,0.67
1697353731.03,-0,-0.06,0.59,-0.5,1.4,-0.1,0.74,0.03,-0.06,0.67
1697353731.04,-0.1,-0.02,0.61,-3.1,1.8,-0.1,0.74,0.03,-0.06,0.67
1697353731.05,-0.1,-0.02,0.61,-3.1,1.8,-0.1,0.74,0.03,-0.06,0.67
1697353731.06,0.03,0.18,0.97,-2.5,0.5,0,0.74,0.03,-0.06,0.67
1697353731.07,0.03,0.18,0.97,0.9,-0.6,0.4,0.74,0.03,-0.06,0.67
1697353731.08,-0.09,0.18,0.84,3.8,-1.3,0.8,0.74,0.03,-0.06,0.67
1697353731.09,-0.18,-0.16,1.15,4.6,-1.3,0.7,0.74,0.03,-0.06,0.67
1697353731.1,-0.04,-0.11,0.83,1.5,0.3,0.8,0.74,0.03,-0.06,0.67
1697353731.11,-0.04,-0.11,0.83,-1,1.8,0.9,0.74,0.03,-0.06,0.67
1697353731.12,0.01,-0.08,0.82,-2.2,1.7,1.1,0.74,0.03,-0.06,0.67
1697353731.13,-0.15,0.17,1.02,-1.1,1.1,1.7,0.74,0.03,-0.06,0.67
1697353731.14,0.12,0.15,1.05,-1.2,0.2,1.9,0.74,0.03,-0.06,0.67
1697353731.15,-0.15,-0.14,0.89,-2.5,-1.4,1.3,0.74,0.03,-0.06,0.67
1697353731.16,-0.15,0.18,0.82,-4.9,-2.3,2.1,0.74,0.03,-0.06,0.67
1697353731.17,-0.32,0.09,1.23,-2.6,-2.3,1.6,0.74,0.03,-0.06,0.67
1697353731.18,-0.32,0.09,1.23,-2.6,-2.3,1.6,0.74,0.03,-0.06,0.67
1697353731.19,-0.32,0.09,1.23,-2.6,-2.3,1.6,0.74,0.03,-0.06,0.67
1697353731.2,-0.32,0.09,1.23,-2.6,-2.3,1.6,0.74,0.03,-0.06,0.67
1697353731.21,-0.32,0.09,1.23,-2.6,-2.3,1.6,0.74,0.03,-0.06,0.67
1697353731.22,-0.32,0.09,1.23,-2.6,-2.3,1.6,0.74,0.03,-0.06,0.67
1697353731.23,-0.32,0.09,1.23,-2.6,-2.3,1.6,0.74,0.03,-0.06,0.67
1697353731.24,-0.32,0.09,1.23,-2.6,-2.3,1.6,0.74,0.03,-0.06,0.67
1697353731.25,-0.32,0.09,1.23,-2.6,-2.3,1.6,0.74,0.03,-0.06,0.67
1697353731.26,-0.32,0.09,1.23,-2.6,-2.3,1.6,0.74,0.03,-0.06,0.67
1697353731.27,-0.32,0.09,1.23,-2.6,-2.3,1.6,0.74,0.03,-0.06,0.67
1697353731.28,-0.32,0.09,1.23,-2.6,-2.3,1.6,0.74,0.03,-0.06,0.67
1697353731.29,-0.32,0.09,1.23,-2.6,-2.3,1.6,0.74,0.03,-0.06,0.67
1697353731.3,-0.32,0.09,1.23,-2.6,-2.3,1.6,0.74,0.03,-0.06,0.67
1697353731.31,-0.43,0.09,1.16,0.3,0.4,0,0.74,0.03,-0.06,0.67
1697353731.32,-0.09,-0.09,0.93,-0.5,1.8,-0.1,0.74,0.03,-0.06,0.67
1697353731.33,-0.1,-0.1,0.93,-3,2.1,-0.8,0.74,0.03,-0.06,0.67
1697353731.34,-0.35,0.09,1.34,-3.4,1.8,-0.2,0.74,0.03,-0.06,0.67
1697353731.35,-0.21,0.11,0.89,-1.8,0.6,0.6,0.74,0.03,-0.06,0.67
1697353731.36,-0.23,0.11,0.98,1.6,-0.5,0.2,0.74,0.03,-0.06,0.67
1697353731.37,-0.21,-0.17,1.1,1.6,-0.5,0.2,0.74,0.03,-0.06,0.67
1697353731.38,-0.19,-0.23,1.17,2.3,-1,0.2,0.74,0.03,-0.06,0.67
1697353731.39,-0.19,-0.23,1.17,2.3,-1.5,0.3,0.74,0.03,-0.06,0.67
1697353731.4,-0.23,-0.09,1.16,-2.5,-1.3,0.5,0.74,0.03,-0.06,0.67
1697353731.41,-0.07,0.1,0.86,-2.5,-1.3,0.5,0.74,0.03,-0.06,0.67
1697353731.42,-0.16,0.07,0.93,-2.5,-0.6,0.1,0.74,0.03,-0.06,0.67
1697353731.43,-0.16,0.07,0.93,0,-0.3,0.2,0.74,0.03,-0.06,0.67
1697353731.44,-0.22,-0.12,1,2.3,0.3,0.7,0.74,0.03,-0.06,0.67
1697353731.45,-0.25,-0.17,1.16,1.5,1.2,0.5,0.74,0.03,-0.06,0.67
1697353731.46,-0.14,-0.02,0.97,-0.7,1.9,-0.2,0.74,0.03,-0.06,0.67
1697353731.47,-0.13,0.08,1.12,-1.4,2.1,-0.4,0.74,0.03,-0.06,0.67
1697353731.48,-0.12,0.04,1.23,-0.2,1.2,-0.5,0.74,0.03,-0.06,0.67
1697353731.49,-0.3,0.02,1.07,0,0,-0.9,0.74,0.03,-0.06,0.67
1697353731.5,-0.15,0,0.72,-0.9,0,-0.9,0.74,0.03,-0.06,0.67
1697353731.51,-0.33,0.04,0.88,-0.6,0.4,-0.8,0.74,0.03,-0.06,0.67
1697353731.52,-0.33,-0.05,1.14,-0.4,0.9,-1.3,0.74,0.03,-0.06,0.67
1697353731.53,-0.16,0.09,0.81,0,1.7,-1.1,0.74,0.02,-0.06,0.67
1697353731.54,-0.3,-0.01,1.01,0.5,2.3,-0.8,0.74,0.02,-0.06,0.67
1697353731.55,-0.16,-0.05,1.04,0.4,2.2,-0.9,0.74,0.02,-0.06,0.67
1697353731.56,-0.07,-0.05,0.69,1.6,1.9,-0.9,0.74,0.02,-0.06,0.67
1697353731.57,-0.11,0,0.94,1,1.6,-0.4,0.74,0.02,-0.06,0.67
1697353731.58,-0.11,-0.04,1.04,0.8,0.3,-0.1,0.74,0.02,-0.06,0.67
1697353731.59,-0.16,-0.13,0.86,0.7,0,-0.1,0.74,0.02,-0.06,0.67
1697353731.6,-0.28,0.01,1.06,0.7,0,-0.1,0.74,0.02,-0.06,0.67
1697353731.61,-0.17,0.1,1.04,-0.4,-1.5,0.1,0.74,0.02,-0.06,0.67
1697353731.62,-0.33,0.02,1.15,-0.4,-1.5,0.1,0.74,0.02,-0.06,0.67
1697353731.63,-0.31,0.05,1.23,0.2,-0.8,0.2,0.74,0.02,-0.05,0.67
1697353731.64,-0.35,-0.09,1.26,-0.3,0,0,0.74,0.02,-0.05,0.67
1697353731.65,-0.2,0.04,0.84,-0.7,0.8,0.3,0.74,0.02,-0.05,0.67
1697353731.66,-0.2,0.07,0.86,-0.7,0.8,0.3,0.74,0.02,-0.05,0.67
1697353731.67,-0.18,0.02,0.92,0.4,2.4,0.3,0.74,0.02,-0.05,0.67
1697353731.68,-0.18,0.02,0.92,0.4,2.4,0.3,0.74,0.02,-0.05,0.67
1697353731.69,-0.22,0.05,1.26,0.6,2.1,0.4,0.74,0.02,-0.05,0.67
1697353731.7,-0.22,0.05,1.26,0.6,2.1,0.4,0.74,0.02,-0.05,0.67
1697353731.71,-0.22,0.05,1.26,0.6,2.1,0.4,0.74,0.02,-0.05,0.67
1697353731.72,-0.22,0.05,1.26,0.6,2.1,0.4,0.74,0.02,-0.05,0.67
1697353731.73,-0.22,0.05,1.26,0.6,2.1,0.4,0.74,0.02,-0.05,0.67
1697353731.74,-0.22,0.05,1.26,0.6,2.1,0.4,0.74,0.02,-0.05,0.67
1697353731.75,-0.22,0.05,1.26,0.6,2.1,0.4,0.74,0.02,-0.05,0.67
1697353731.76,-0.22,0.05,1.26,0.6,2.1,0.4,0.74,0.02,-0.05,0.67
1697353731.77,-0.22,0.05,1.26,0.6,2.1,0.4,0.74,0.02,-0.05,0.67
1697353731.78,-0.22,0.05,1.26,0.6,2.1,0.4,0.74,0.02,-0.05,0.67
1697353731.79,-0.22,0.05,1.26,0.6,2.1,0.4,0.74,0.02,-0.05,0.67
1697353731.8,-0.22,0.05,1.26,0.6,2.1,0.4,0.74,0.02,-0.05,0.67
1697353731.81,-0.22,0.05,1.26,0.6,2.1,0.4,0.74,0.02,-0.05,0.67
1697353731.82,-0.22,0.05,1.26,0.6,2.1,0.4,0.74,0.02,-0.05,0.67
1697353731.83,-0.24,0.07,1,2,-0.2,3.7,0.74,0.02,-0.05,0.67
1697353731.84,-0.24,0.07,1,2,-0.2,3.7,0.74,0.02,-0.05,0.67
1697353731.85,-0.24,0.07,1,2,-0.2,3.7,0.74,0.02,-0.05,0.67
1697353731.86,-0.24,0.07,1,2,-0.2,3.7,0.74,0.02,-0.05,0.67
1697353731.87,-0.24,0.07,1,2.1,1,3.6,0.74,0.02,-0.05,0.67
1697353731.88,-0.32,0.41,1.15,4.9,1.2,5.1,0.74,0.02,-0.05,0.67
1697353731.89,-0.33,0.09,1.03,4.9,1.6,5.8,0.74,0.02,-0.05,0.67
1697353731.9,-0.17,0.16,1.07,2.1,1.3,6.9,0.74,0.02,-0.05,0.67
1697353731.91,-0.42,0.28,1.08,1.3,1.4,7.2,0.74,0.02,-0.05,0.67
1697353731.92,-0.22,0.45,1.17,-1.4,0.8,10.4,0.74,0.02,-0.05,0.67
1697353731.93,-0.32,0.61,1.05,0.7,0.1,12.3,0.74,0.02,-0.05,0.67
1697353731.94,-0.32,0.51,0.8,2.7,-0.7,14.1,0.74,0.02,-0.05,0.67
1697353731.95,-0.46,0.61,1.34,4.7,-0.3,15.9,0.73,0.02,-0.05,0.68
1697353731.96,-0.38,0.25,1.07,5.3,-0.2,16.2,0.73,0.02,-0.05,0.68
1697353731.97,-0.31,0.15,0.84,5.4,0.2,16.4,0.73,0.02,-0.05,0.68
1697353731.98,-0.49,0.33,0.99,5.4,0.2,16.4,0.73,0.02,-0.05,0.68
1697353731.99,-0.38,0.55,0.79,-0.8,1,16.4,0.73,0.02,-0.05,0.68
1697353732,-0.36,0.55,1.08,-0.8,1,16.4,0.73,0.02,-0.05,0.68
1697353732.01,-0.36,0.55,1.08,-0.4,1.6,17.3,0.73,0.02,-0.05,0.68
1697353732.02,-0.32,0.39,0.98,2.4,2,17.1,0.73,0.02,-0.05,0.68
1697353732.03,-0.35,0.36,0.94,3.4,2,16.8,0.73,0.02,-0.05,0.68
1697353732.04,-0.37,0.36,0.85,3.3,1.3,16.3,0.73,0.02,-0.05,0.68
1697353732.05,-0.39,0.29,1.04,1,0.4,16.2,0.73,0.02,-0.05,0.69
1697353732.06,-0.27,0.38,0.69,-1.3,-0.3,15,0.72,0.02,-0.05,0.69
1697353732.07,-0.46,0.57,0.93,-1.5,-0.2,14.7,0.72,0.02,-0.05,0.69
1697353732.08,-0.41,0.5,0.7,1.4,0,14.5,0.72,0.02,-0.05,0.69
1697353732.09,-0.54,0.34,1.12,0.7,0.4,14.4,0.72,0.02,-0.05,0.69
1697353732.1,-0.32,0.32,0.88,-1.4,0.7,14.6,0.72,0.02,-0.05,0.69
1697353732.11,-0.4,0.37,0.93,-2.4,1.1,15,0.72,0.02,-0.05,0.69
1697353732.12,-0.38,0.43,1,-2.2,1.5,15.7,0.72,0.02,-0.05,0.69
1697353732.13,-0.21,0.59,0.9,-0.6,1.2,16.6,0.72,0.02,-0.05,0.69
1697353732.14,-0.37,0.41,1.04,-0.6,1.2,17.7,0.72,0.02,-0.05,0.69
1697353732.15,-0.35,0.42,1.04,0.1,1,18.8,0.72,0.02,-0.05,0.7
1697353732.16,-0.21,0.34,0.82,0.6,0.4,19.3,0.72,0.02,-0.05,0.7
1697353732.17,-0.21,0.4,1,0.2,-0.7,19.8,0.71,0.02,-0.05,0.7
1697353732.18,-0.41,0.4,1,0.3,-1.6,20,0.71,0.02,-0.05,0.7
1697353732.19,-0.3,0.4,0.77,0.6,-1.8,20.2,0.71,0.02,-0.05,0.7
1697353732.2,-0.33,0.35,0.96,0.7,-1.3,19.8,0.71,0.02,-0.05,0.7
1697353732.21,-0.43,0.45,0.82,-0.1,-0.2,19.4,0.71,0.02,-0.05,0.7
1697353732.22,-0.29,0.43,0.82,0,0.7,18.9,0.71,0.02,-0.05,0.7
1697353732.23,-0.42,0.41,0.88,0,0.7,18.9,0.71,0.02,-0.05,0.7
1697353732.24,-0.44,0.49,0.92,-1,2.4,18.3,0.71,0.02,-0.05,0.71
1697353732.25,-0.44,0.49,0.92,-1,2.4,18.3,0.71,0.02,-0.05,0.71
1697353732.26,-0.35,0.53,1.2,-1.5,1.3,18.2,0.7,0.02,-0.05,0.71
1697353732.27,-0.29,0.53,0.86,-1.5,1.3,18.2,0.7,0.02,-0.05,0.71
1697353732.28,-0.29,0.53,0.86,-0.8,0.5,18.5,0.7,0.02,-0.05,0.71
1697353732.29,-0.29,0.53,0.86,-0.8,0.5,18.5,0.7,0.02,-0.05,0.71
1697353732.3,-0.29,0.53,0.86,-0.8,0.5,18.5,0.7,0.02,-0.05,0.71
1697353732.31,-0.29,0.53,0.86,-0.8,0.5,18.5,0.7,0.02,-0.05,0.71
1697353732.32,-0.29,0.53,0.86,-0.8,0.5,18.5,0.7,0.02,-0.05,0.71
1697353732.33,-0.29,0.53,0.86,-0.8,0.5,18.5,0.7,0.02,-0.05,0.71
1697353732.34,-0.29,0.53,0.86,-0.8,0.5,18.5,0.7,0.02,-0.05,0.71
1697353732.35,-0.29,0.53,0.86,-0.8,0.5,18.5,0.7,0.02,-0.05,0.71
1697353732.36,-0.29,0.53,0.86,-0.8,0.5,18.5,0.7,0.02,-0.05,0.71
1697353732.37,-0.29,0.53,0.86,-0.8,0.5,18.5,0.7,0.02,-0.05,0.71
1697353732.38,-0.29,0.53,0.86,-0.8,0.5,18.5,0.7,0.02,-0.05,0.71
1697353732.39,-0.29,0.53,0.86,-0.8,0.5,18.5,0.7,0.02,-0.05,0.71
1697353732.4,-0.29,0.53,0.86,-0.8,0.5,18.5,0.7,0.02,-0.05,0.71
1697353732.41,-0.29,0.53,0.86,-0.8,0.5,18.5,0.7,0.02,-0.05,0.71
1697353732.42,-0.29,0.53,0.86,-0.8,0.5,18.5,0.7,0.02,-0.05,0.71
1697353732.43,-0.29,0.53,0.86,-0.8,0.5,18.5,0.7,0.02,-0.05,0.71
1697353732.44,-0.29,0.53,0.86,-0.8,0.5,18.5,0.7,0.02,-0.05,0.71
1697353732.45,-0.29,0.53,0.86,-0.8,0.5,18.5,0.7,0.02,-0.05,0.71
1697353732.46,-0.29,0.53,0.86,-0.8,0.5,18.5,0.7,0.02,-0.05,0.71
1697353732.47,-0.29,0.53,0.86,-0.8,0.5,18.5,0.7,0.02,-0.05,0.71
1697353732.48,-0.29,0.53,0.86,-0.8,0.5,18.5,0.7,0.02,-0.05,0.71
1697353732.49,-0.29,0.53,0.86,-0.8,0.5,18.5,0.7,0.02,-0.05,0.71
1697353732.5,-0.29,0.53,0.86,-0.8,0.5,18.5,0.7,0.02,-0.05,0.71
1697353732.51,-0.29,0.53,0.86,-0.8,0.5,18.5,0.7,0.02,-0.05,0.71
1697353732.52,-0.29,0.53,0.86,-0.8,0.5,18.5,0.7,0.02,-0.05,0.71
1697353732.53,-0.29,0.53,0.86,-0.8,0.5,18.5,0.7,0.02,-0.05,0.71
1697353732.54,-0.29,0.53,0.86,-0.8,0.5,18.5,0.7,0.02,-0.05,0.71
1697353732.55,-0.14,0.41,1.15,-1.9,-0.8,18.5,0.67,0.02,-0.05,0.74
1697353732.56,-0.1,0.61,0.85,-2.7,-2.1,18.9,0.67,0.02,-0.05,0.74
1697353732.57,-0.01,0.67,0.7,-1.3,-4.8,19.2,0.67,0.02,-0.05,0.74
1697353732.58,-0.09,0.51,1.02,1.1,-6.2,20.3,0.67,0.02,-0.05,0.74
1697353732.59,-0.19,0.33,1.09,3.9,-6.1,20.5,0.66,0.02,-0.05,0.75
1697353732.6,-0.23,0.33,1.02,2,-3.9,20,0.66,0.02,-0.05,0.75
1697353732.61,-0.18,0.22,0.94,2,-3.9,20,0.66,0.02,-0.05,0.75
1697353732.62,-0.32,0.35,0.98,-0.3,-1.8,19.5,0.66,0.02,-0.05,0.75
1697353732.63,-0.32,0.35,0.98,-0.3,-1.8,19.5,0.66,0.02,-0.05,0.75
1697353732.64,-0.1,0.5,1.17,0.1,2.3,19.2,0.66,0.02,-0.05,0.75
1697353732.65,-0.1,0.5,1.17,0.1,2.3,19.2,0.66,0.02,-0.05,0.75
1697353732.66,-0.02,0.35,1.02,3.8,2.8,20.6,0.65,0.02,-0.05,0.75
1697353732.67,-0.08,0.31,1,3.8,2.8,20.6,0.65,0.02,-0.05,0.76
1697353732.68,-0.08,0.31,1,-2.1,1.6,21.8,0.65,0.02,-0.05,0.76
1697353732.69,-0.14,0.5,1.1,-3.3,0.6,21.7,0.65,0.02,-0.05,0.76
1697353732.7,-0.14,0.5,1.1,-3.6,0.4,22.2,0.65,0.02,-0.05,0.76
1697353732.71,0.04,0.62,0.81,-0.9,-0.1,22.1,0.65,0.01,-0.05,0.76
1697353732.72,0,0.67,1,5.3,-1.1,21.6,0.65,0.02,-0.05,0.76
1697353732.73,-0.05,0.41,0.63,7.6,-1.6,21.3,0.64,0.02,-0.05,0.76
1697353732.74,-0.11,0.22,1.01,6.9,-1.9,20.2,0.64,0.02,-0.05,0.76
1697353732.75,-0.1,0.22,0.83,4.2,-2.3,19.2,0.64,0.02,-0.05,0.77
1697353732.76,-0.18,0.34,1.01,-1,-1.8,18.1,0.64,0.02,-0.05,0.77
1697353732.77,-0.14,0.44,0.83,-2.7,-0.9,17.6,0.64,0.02,-0.05,0.77
1697353732.78,-0.15,0.54,1.01,-1.2,-0.3,17.8,0.64,0.02,-0.05,0.77
1697353732.79,-0.21,0.5,1.23,0.3,0.2,18.1,0.64,0.02,-0.05,0.77
1697353732.8,-0.18,0.37,0.94,1.6,1.4,18.1,0.64,0.02,-0.05,0.77
1697353732.81,-0.14,0.27,0.97,-0.2,2,18.2,0.63,0.02,-0.05,0.77
1697353732.82,-0.17,0.15,1.13,-0.8,2,18.1,0.63,0.02,-0.05,0.77
1697353732.83,-0.05,0.2,0.96,-2.7,2,17.1,0.63,0.02,-0.05,0.77
1697353732.84,-0.17,0.29,1.13,-3,2,16.3,0.63,0.01,-0.05,0.77
1697353732.85,-0.09,0.33,1.11,-1.5,1.2,15.3,0.63,0.01,-0.05,0.78
1697353732.86,-0.05,0.27,0.83,-1.5,1.2,15.3,0.63,0.01,-0.05,0.78
1697353732.87,-0.15,0.19,1.32,2.7,0.2,13.7,0.63,0.01,-0.05,0.78
1697353732.88,-0.11,0.27,0.82,2.7,0.2,13.7,0.63,0.01,-0.05,0.78
1697353732.89,-0.15,0.14,1.02,1.9,-0.9,12.3,0.63,0.01,-0.05,0.78
1697353732.9,-0.15,0.14,1.02,1.9,-0.9,12.3,0.63,0.01,-0.05,0.78
1697353732.91,-0.09,0.14,0.85,-1,-0.3,11.4,0.62,0.01,-0.05,0.78
1697353732.92,-0.05,-0.04,0.9,-1,-0.3,11.4,0.62,0.01,-0.05,0.78
1697353732.93,-0.05,-0.04,0.9,-2.5,0.6,9.4,0.62,0.01,-0.05,0.78
1697353732.94,-0.05,-0.04,0.9,-2.5,0.6,9.4,0.62,0.01,-0.05,0.78
1697353732.95,-0.05,-0.04,0.9,-2.5,0.6,9.4,0.62,0.01,-0.05,0.78
1697353732.96,-0.05,-0.04,0.9,-2.5,0.6,9.4,0.62,0.01,-0.05,0.78
1697353732.97,-0.05,-0.04,0.9,-2.5,0.6,9.4,0.62,0.01,-0.05,0.78
1697353732.98,-0.05,-0.04,0.9,-2.5,0.6,9.4,0.62,0.01,-0.05,0.78
1697353732.99,-0.05,-0.04,0.9,-2.5,0.6,9.4,0.62,0.01,-0.05,0.78
1697353733,-0.05,-0.04,0.9,-2.5,0.6,9.4,0.62,0.01,-0.05,0.78
1697353733.01,-0.05,-0.04,0.9,-2.5,0.6,9.4,0.62,0.01,-0.05,0.78
1697353733.02,-0.05,-0.04,0.9,-2.5,0.6,9.4,0.62,0.01,-0.05,0.78
1697353733.03,-0.05,-0.04,0.9,-2.5,0.6,9.4,0.62,0.01,-0.05,0.78
1697353733.04,-0.05,-0.04,0.9,-2.5,0.6,9.4,0.62,0.01,-0.05,0.78
1697353733.05,-0.05,-0.04,0.9,-2.5,0.6,9.4,0.62,0.01,-0.05,0.78
1697353733.06,-0.19,-0.72,1.06,-7.8,1.4,-24.7,0.63,0.01,-0.06,0.77
1697353733.07,-0.21,-0.66,1.03,-8.5,2,-25.8,0.63,0.01,-0.06,0.77
1697353733.08,-0.06,-0.61,0.78,-7.2,2.4,-26.8,0.64,0.01,-0.06,0.77
1697353733.09,-0.04,-0.59,1.08,-4.5,1.8,-27.6,0.64,0.01,-0.06,0.77
1697353733.1,-0.22,-0.75,1.06,-2.4,1.1,-27.9,0.64,0.01,-0.06,0.77
1697353733.11,-0.15,-0.79,1.01,-2.7,0.8,-28.1,0.64,0.01,-0.06,0.76
1697353733.12,-0.05,-0.7,1.01,-4.4,1.1,-28.6,0.64,0.01,-0.06,0.76
1697353733.13,-0.09,-0.75,1,-2.8,1,-29.2,0.65,0.01,-0.06,0.76
1697353733.14,-0.07,-0.67,0.82,-0.8,0.7,-30,0.65,0.01,-0.06,0.76
1697353733.15,-0.1,-0.86,0.77,-0.3,0.4,-31.4,0.65,0.01,-0.06,0.76
1697353733.16,-0.23,-1.04,0.8,-1.6,0,-33.4,0.65,0.01,-0.06,0.76
1697353733.17,-0.15,-0.95,0.73,-2.2,0.6,-35,0.65,0.01,-0.06,0.75
1697353733.18,-0.17,-1.02,0.91,-3.3,0.5,-37,0.66,0.01,-0.06,0.75
1697353733.19,-0.23,-1.13,1.08,-4.7,0.9,-40,0.66,0.01,-0.06,0.75
1697353733.2,-0.18,-1.06,0.81,-5.9,1.7,-43.6,0.66,0.01,-0.06,0.75
1697353733.21,-0.28,-0.97,0.96,-4.8,2.5,-46.2,0.67,0.01,-0.06,0.74
1697353733.22,-0.26,-0.98,0.99,-2.7,2.9,-48.6,0.67,0.01,-0.06,0.74
1697353733.23,-0.2,-0.91,1.1,-1.9,2.9,-50.8,0.67,0.01,-0.06,0.74
1697353733.24,-0.22,-1.29,1.13,-3.2,2.7,-52.7,0.68,0.01,-0.06,0.74
1697353733.25,-0.27,-1.1,1.13,-4.5,2.5,-53.8,0.68,0.01,-0.06,0.73
1697353733.26,-0.2,-1.02,1.06,-3.6,1.8,-54.5,0.68,0.01,-0.06,0.73
1697353733.27,-0.17,-0.99,1.12,-0.6,0.4,-54.9,0.69,0.01,-0.06,0.73
1697353733.28,-0.16,-1.06,0.92,-0.6,0.4,-54.9,0.69,0.01,-0.06,0.73
1697353733.29,-0.24,-1.12,1.14,-0.2,-0.4,-54.5,0.69,0.01,-0.06,0.72
1697353733.3,-0.24,-1.12,1.14,-0.2,-0.4,-54.5,0.69,0.01,-0.06,0.72
1697353733.31,-0.17,-1.1,1.12,-1.9,-0.3,-53.9,0.7,0.01,-0.06,0.71
1697353733.32,-0.17,-1.1,1.12,-1.9,-0.3,-53.9,0.7,0.01,-0.06,0.71
1697353733.33,-0.33,-0.97,1.21,-2.8,-0.1,-53.4,0.7,0.01,-0.06,0.71
1697353733.34,-0.12,-1.08,0.58,-1.8,0.3,-52.1,0.71,0.01,-0.06,0.7
1697353733.35,-0.24,-1.07,0.98,-0.5,1.1,-51.8,0.71,0.01,-0.06,0.7
1697353733.36,-0.17,-1.28,0.87,-0.5,1.1,-51.8,0.71,0.01,-0.06,0.7
1697353733.37,-0.25,-1.23,1.36,-0.6,1.8,-51.8,0.72,0.01,-0.06,0.69
1697353733.38,-0.25,-1.23,1.36,-1,1.9,-52.6,0.72,0.01,-0.06,0.69
1697353733.39,-0.14,-1.23,0.81,-2.4,1.6,-53.5,0.72,0.01,-0.06,0.69
1697353733.4,-0.15,-1.06,1.18,-3.9,0.7,-54.5,0.73,0.01,-0.06,0.68
1697353733.41,-0.22,-0.77,0.86,-1.7,0,-55.5,0.73,0.01,-0.06,0.68
1697353733.42,-0.19,-0.93,1.04,2.5,0,-55.4,0.73,0.01,-0.06,0.68
1697353733.43,-0.25,-1.21,0.98,4.7,0.1,-55.6,0.74,0.01,-0.06,0.67
1697353733.44,-0.29,-1.03,1.21,2.7,-0.2,-56.2,0.74,0.01,-0.06,0.67
1697353733.45,-0.29,-1.03,1.21,2.7,-0.2,-56.2,0.74,0.01,-0.06,0.67
1697353733.46,-0.29,-1.03,1.21,2.7,-0.2,-56.2,0.74,0.01,-0.06,0.67
1697353733.47,-0.29,-1.03,1.21,2.7,-0.2,-56.2,0.74,0.01,-0.06,0.67
1697353733.48,-0.29,-1.03,1.21,2.7,-0.2,-56.2,0.74,0.01,-0.06,0.67
1697353733.49,-0.29,-1.03,1.21,2.7,-0.2,-56.2,0.74,0.01,-0.06,0.67
1697353733.5,-0.29,-1.03,1.21,2.7,-0.2,-56.2,0.74,0.01,-0.06,0.67
1697353733.51,-0.29,-1.03,1.21,2.7,-0.2,-56.2,0.74,0.01,-0.06,0.67
1697353733.52,-0.29,-1.03,1.21,2.7,-0.2,-56.2,0.74,0.01,-0.06,0.67
1697353733.53,-0.29,-1.03,1.21,2.7,-0.2,-56.2,0.74,0.01,-0.06,0.67
1697353733.54,-0.29,-1.03,1.21,2.7,-0.2,-56.2,0.74,0.01,-0.06,0.67
1697353733.55,-0.29,-1.03,1.21,2.7,-0.2,-56.2,0.74,0.01,-0.06,0.67
1697353733.56,-0.29,-1.03,1.21,2.7,-0.2,-56.2,0.74,0.01,-0.06,0.67
1697353733.57,-0.29,-1.03,1.21,2.7,-0.2,-56.2,0.74,0.01,-0.06,0.67
1697353733.58,-0.07,-1.02,0.73,3.1,0.9,-55.2,0.79,0.01,-0.05,0.62
1697353733.59,-0.17,-1,0.96,2.6,1.1,-54.4,0.79,0.01,-0.05,0.61
1697353733.6,-0.26,-0.97,0.88,2.2,1.5,-53.6,0.79,0.01,-0.05,0.61
1697353733.61,-0.19,-0.94,0.86,2.7,2.2,-52.5,0.79,0.01,-0.05,0.61
1697353733.62,-0.17,-0.94,0.6,2.7,2.9,-51.3,0.8,0.02,-0.05,0.6
1697353733.63,-0.12,-0.96,0.63,1.9,3.2,-50.1,0.8,0.02,-0.05,0.6
1697353733.64,-0.21,-0.83,1.01,2.9,3.7,-48.9,0.8,0.02,-0.05,0.59
1697353733.65,-0.07,-0.77,0.84,3.9,3.7,-47.8,0.81,0.02,-0.05,0.59
1697353733.66,-0.08,-0.8,0.86,4.2,3.1,-46.7,0.81,0.02,-0.05,0.59
1697353733.67,-0.09,-0.85,0.9,4.1,2.1,-46.3,0.81,0.02,-0.05,0.59
1697353733.68,-0.12,-0.75,0.98,4.1,2.1,-46.3,0.81,0.02,-0.05,0.58
1697353733.69,-0.04,-0.69,0.93,3.1,1,-44.6,0.81,0.02,-0.05,0.58
1697353733.7,-0.04,-0.69,0.93,3.1,1,-44.6,0.81,0.02,-0.05,0.58
1697353733.71,-0.1,-0.47,1.11,1,-0.5,-41,0.82,0.02,-0.05,0.57
1697353733.72,-0.1,-0.47,1.11,1,-0.5,-41,0.82,0.02,-0.05,0.57
1697353733.73,-0.15,-0.34,1.03,2.9,-0.7,-39,0.82,0.02,-0.05,0.57
1697353733.74,0.02,-0.43,0.8,4.3,-0.1,-37,0.82,0.02,-0.05,0.57
1697353733.75,-0.21,-0.48,0.99,4,0.3,-34.9,0.83,0.02,-0.05,0.56
1697353733.76,-0.17,-0.48,0.98,2.8,1,-33.2,0.83,0.02,-0.05,0.56
1697353733.77,-0.1,-0.54,0.78,1.6,2,-31.7,0.83,0.02,-0.05,0.56
1697353733.78,-0.17,-0.56,0.99,0.1,2.4,-30.4,0.83,0.02,-0.05,0.56
1697353733.79,-0.13,-0.5,0.96,0.2,2.6,-29.5,0.83,0.02,-0.05,0.55
1697353733.8,-0.05,-0.3,1.01,2.6,1.7,-28.5,0.83,0.02,-0.05,0.55
1697353733.81,0.01,-0.38,0.81,6,0.2,-27.6,0.83,0.02,-0.05,0.55
1697353733.82,-0.04,-0.48,1.01,6,0.2,-27.6,0.84,0.02,-0.05,0.55
1697353733.83,-0.07,-0.51,0.98,5.9,-0.7,-27.2,0.84,0.02,-0.05,0.54
1697353733.84,-0.15,-0.5,1.12,4.8,-1.7,-27.1,0.84,0.02,-0.05,0.54
1697353733.85,0.08,-0.49,0.73,2.4,-2.2,-27.1,0.84,0.02,-0.05,0.54
1697353733.86,-0.12,-0.39,1.15,0,-2.7,-26.9,0.84,0.02,-0.05,0.54
1697353733.87,-0.19,-0.2,1.21,-2,-2.7,-26.2,0.84,0.02,-0.05,0.54
1697353733.88,-0.19,-0.1,1.18,-2,-2.5,-25.4,0.84,0.02,-0.05,0.54
1697353733.89,-0.11,-0.1,0.81,0.4,-1.8,-24.1,0.84,0.02,-0.05,0.53
1697353733.9,-0.24,-0.21,1.2,2.6,-0.9,-22.8,0.85,0.02,-0.05,0.53
1697353733.91,-0.1,-0.35,0.88,3.1,-0.6,-21.5,0.85,0.02,-0.05,0.53
1697353733.92,-0.12,-0.3,0.97,3,0.3,-20.6,0.85,0.02,-0.05,0.53
1697353733.93,-0.09,-0.25,1.13,0.7,1.1,-17.4,0.85,0.02,-0.05,0.53
1697353733.94,-0.11,-0.06,0.97,1.5,1.3,-15.4,0.85,0.02,-0.05,0.53
1697353733.95,-0.11,-0.06,0.97,1.5,1.3,-15.4,0.85,0.02,-0.05,0.53
1697353733.96,-0.13,0.18,1.33,1.7,1.3,-14.8,0.85,0.02,-0.05,0.52
1697353733.97,-0.13,0.18,1.33,1.7,1.3,-14.8,0.85,0.02,-0.05,0.52
1697353733.98,-0.13,0.18,1.33,1.7,1.3,-14.8,0.85,0.02,-0.05,0.52
1697353733.99,-0.13,0.18,1.33,1.7,1.3,-14.8,0.85,0.02,-0.05,0.52
1697353734,-0.13,0.18,1.33,1.7,1.3,-14.8,0.85,0.02,-0.05,0.52
1697353734.01,-0.13,0.18,1.33,1.7,1.3,-14.8,0.85,0.02,-0.05,0.52
1697353734.02,-0.13,0.18,1.33,1.7,1.3,-14.8,0.85,0.02,-0.05,0.52
1697353734.03,-0.13,0.18,1.33,1.7,1.3,-14.8,0.85,0.02,-0.05,0.52
1697353734.04,-0.13,0.18,1.33,1.7,1.3,-14.8,0.85,0.02,-0.05,0.52
1697353734.05,-0.13,0.18,1.33,1.7,1.3,-14.8,0.85,0.02,-0.05,0.52
1697353734.06,-0.13,0.18,1.33,1.7,1.3,-14.8,0.85,0.02,-0.05,0.52
1697353734.07,-0.13,0.18,1.33,1.7,1.3,-14.8,0.85,0.02,-0.05,0.52
1697353734.08,-0.13,0.18,1.33,1.7,1.3,-14.8,0.85,0.02,-0.05,0.52
1697353734.09,-0.26,1.07,0.99,6.6,-1.3,36,0.84,0.03,-0.04,0.54
1697353734.1,-0.23,1.08,1,8,-1.1,38.5,0.84,0.03,-0.04,0.54
1697353734.11,-0.1,1.08,0.83,6.9,-1,40.9,0.84,0.03,-0.04,0.54
1697353734.12,-0.08,0.95,0.73,6.9,-1,40.9,0.84,0.03,-0.04,0.54
1697353734.13,-0.13,0.98,0.81,2.2,-1.8,45.3,0.83,0.03,-0.04,0.55
1697353734.14,-0.27,0.97,1.14,0.2,-1.9,47,0.83,0.03,-0.04,0.56
1697353734.15,-0.15,1.24,0.79,-0.1,-1.5,49.1,0.83,0.03,-0.04,0.56
1697353734.16,-0.23,1.13,0.81,-0.8,-1.7,51.2,0.82,0.03,-0.04,0.56
1697353734.17,-0.21,1.1,0.96,-1.2,-1.6,52.9,0.82,0.03,-0.04,0.57
1697353734.18,-0.17,1.28,0.76,0.2,-0.7,54.8,0.82,0.03,-0.04,0.57
1697353734.19,-0.32,1.28,1.27,3.2,-0.1,56.4,0.82,0.03,-0.04,0.57
1697353734.2,-0.32,1.12,0.99,3.8,1.3,57.4,0.81,0.03,-0.04,0.58
1697353734.21,-0.33,1.29,1.07,5.1,2.5,58.3,0.81,0.03,-0.04,0.58
1697353734.22,-0.21,1.17,1.02,4.8,3.5,59.5,0.81,0.03,-0.04,0.59
1697353734.23,-0.23,1.08,0.83,2.7,4.5,60.6,0.8,0.03,-0.04,0.59
1697353734.24,-0.28,1.18,1.04,1.5,4.6,61.2,0.8,0.03,-0.04,0.6
1697353734.25,-0.25,1.08,1.19,0,4.9,62,0.8,0.03,-0.04,0.6
1697353734.26,-0.21,1.27,0.88,-0.4,4.8,63,0.79,0.03,-0.04,0.6
1697353734.27,-0.26,1.2,1.16,0.9,3.9,64.1,0.79,0.03,-0.04,0.61
1697353734.28,-0.17,1.23,0.79,2.1,3.4,65,0.79,0.03,-0.04,0.61
1697353734.29,-0.2,1.15,1.04,2.8,2,66,0.78,0.03,-0.04,0.62
1697353734.3,-0.14,0.97,0.99,1.3,1.1,66.2,0.78,0.03,-0.04,0.62
1697353734.31,-0.15,0.72,0.82,-3.2,0.2,65.6,0.78,0.03,-0.04,0.63
1697353734.32,-0.16,1.14,0.85,-3.9,0,65.8,0.78,0.03,-0.04,0.63
1697353734.33,-0.16,1.14,0.85,-3.9,0,65.8,0.77,0.03,-0.04,0.63
1697353734.34,-0.25,1.31,1.05,-4.2,-0.4,66.6,0.77,0.03,-0.04,0.64
1697353734.35,-0.25,1.31,1.05,-0.7,-1.2,67,0.76,0.03,-0.04,0.64
1697353734.36,-0.16,1.14,0.53,3.3,-1.7,67.1,0.76,0.03,-0.04,0.65
1697353734.37,-0.35,0.96,1.22,4.4,-1.4,66.8,0.76,0.03,-0.04,0.65
1697353734.38,-0.27,1,0.73,2.6,-0.9,66.5,0.75,0.03,-0.04,0.66
1697353734.39,-0.34,1.05,1.17,0.6,0.1,65.9,0.75,0.03,-0.04,0.66
1697353734.4,-0.3,1.03,0.81,-1.4,0.8,65,0.75,0.03,-0.04,0.66
1697353734.41,-0.36,1.11,1.13,-2.4,2,64.1,0.74,0.03,-0.04,0.67
1697353734.42,-0.32,1.25,1.24,-2.9,3.9,63.5,0.74,0.03,-0.04,0.67
1697353734.43,-0.16,1.27,0.88,1.5,5.2,63.5,0.73,0.03,-0.04,0.68
1697353734.44,-0.25,1.13,1.11,3.1,5,63.6,0.73,0.03,-0.04,0.68
1697353734.45,-0.2,1.07,1.1,1.5,5.1,64,0.73,0.02,-0.04,0.69
1697353734.46,-0.26,0.92,1.26,-0.9,4.6,64.1,0.72,0.02,-0.04,0.69
1697353734.47,-0.16,0.94,1.03,-3.4,4,64.2,0.72,0.02,-0.04,0.69
1697353734.48,-0.16,0.94,1.03,-3.4,4,64.2,0.72,0.02,-0.04,0.69
1697353734.49,-0.16,0.94,1.03,-3.4,4,64.2,0.72,0.02,-0.04,0.69
1697353734.5,-0.16,0.94,1.03,-3.4,4,64.2,0.72,0.02,-0.04,0.69
1697353734.51,-0.16,0.94,1.03,-3.4,4,64.2,0.72,0.02,-0.04,0.69
1697353734.52,-0.16,0.94,1.03,-3.4,4,64.2,0.72,0.02,-0.04,0.69
1697353734.53,-0.16,0.94,1.03,-3.4,4,64.2,0.72,0.02,-0.04,0.69
1697353734.54,-0.16,0.94,1.03,-3.4,4,64.2,0.72,0.02,-0.04,0.69
1697353734.55,-0.16,0.94,1.03,-3.4,4,64.2,0.72,0.02,-0.04,0.69
1697353734.56,-0.16,0.94,1.03,-3.4,4,64.2,0.72,0.02,-0.04,0.69
1697353734.57,-0.16,0.94,1.03,-3.4,4,64.2,0.72,0.02,-0.04,0.69
1697353734.58,-0.16,0.94,1.03,-3.4,4,64.2,0.72,0.02,-0.04,0.69
1697353734.59,-0.16,0.94,1.03,-3.4,4,64.2,0.72,0.02,-0.04,0.69
1697353734.6,-0.16,0.94,1.03,-3.4,4,64.2,0.72,0.02,-0.04,0.69
1697353734.61,-0.16,0.94,1.03,-3.4,4,64.2,0.72,0.02,-0.04,0.69
1697353734.62,-0.16,0.94,1.03,-3.4,4,64.2,0.72,0.02,-0.04,0.69
1697353734.63,-0.16,0.94,1.03,-3.4,4,64.2,0.72,0.02,-0.04,0.69
1697353734.64,-0.16,0.94,1.03,-3.4,4,64.2,0.72,0.02,-0.04,0.69
1697353734.65,-0.16,0.94,1.03,-3.4,4,64.2,0.72,0.02,-0.04,0.69
1697353734.66,-0.16,0.94,1.03,-3.4,4,64.2,0.72,0.02,-0.04,0.69
1697353734.67,-0.16,0.94,1.03,-3.4,4,64.2,0.72,0.02,-0.04,0.69
1697353734.68,-0.16,0.94,1.03,-3.4,4,64.2,0.72,0.02,-0.04,0.69
1697353734.69,-0.16,0.94,1.03,-3.4,4,64.2,0.72,0.02,-0.04,0.69
1697353734.7,-0.16,0.94,1.03,-3.4,4,64.2,0.72,0.02,-0.04,0.69
1697353734.71,-0.16,0.94,1.03,-3.4,4,64.2,0.72,0.02,-0.04,0.69
1697353734.72,-0.16,0.94,1.03,-3.4,4,64.2,0.72,0.02,-0.04,0.69
1697353734.73,-0.16,0.94,1.03,-3.4,4,64.2,0.72,0.02,-0.04,0.69
1697353734.74,-0.16,0.94,1.03,-3.4,4,64.2,0.72,0.02,-0.04,0.69
1697353734.75,-0.19,0.51,0.81,-0.4,1.7,30.8,0.62,0.01,-0.05,0.78
1697353734.76,-0.03,0.28,0.87,-1.5,2.3,31,0.62,0.01,-0.05,0.78
1697353734.77,-0.12,0.21,0.96,-4.3,2.7,31.2,0.62,0.01,-0.05,0.79
1697353734.78,-0.1,0.26,1.09,-5.7,2.8,31,0.61,0.01,-0.05,0.79
1697353734.79,0.03,0.25,0.68,-5.4,2.4,30.2,0.61,0.01,-0.05,0.79
1697353734.8,-0.14,0.29,1.53,-3.9,2,29.2,0.61,0.01,-0.05,0.79
1697353734.81,-0.04,0.39,0.98,-0.3,2,28,0.61,0.01,-0.05,0.79
1697353734.82,-0.09,0.3,1.1,2.3,1.4,26.7,0.61,0.01,-0.05,0.79
1697353734.83,-0.04,0.14,1,1.7,1.1,25.3,0.6,0.01,-0.05,0.8
1697353734.84,-0.09,0.07,1.22,-0.8,-0.1,23.5,0.6,0.01,-0.05,0.8
1697353734.85,-0.02,0.21,1.15,-3.4,-0.8,22.3,0.6,0.01,-0.05,0.8
1697353734.86,-0.09,0.14,0.76,-3.6,-1.1,20.7,0.6,0.01,-0.05,0.8
1697353734.87,-0.02,0.11,0.78,-2.9,-1.1,18.8,0.6,0.01,-0.05,0.8
1697353734.88,-0.24,-0.3,0.98,-2.1,-0.9,15.3,0.6,0.01,-0.05,0.8
1697353734.89,0.06,-0.42,0.71,-4.2,-0.7,11.1,0.6,0.01,-0.05,0.8
1697353734.9,-0.2,-0.67,1.6,-7.8,-0.4,5.1,0.6,0.01,-0.05,0.8
1697353734.91,-0.14,-0.63,0.95,-11.6,-0.2,-2.4,0.6,0.01,-0.05,0.8
1697353734.92,-0.08,-0.75,0.89,-11.2,0,-8.8,0.6,0.01,-0.05,0.8
1697353734.93,-0.25,-0.88,1.25,-11.1,0.3,-15,0.6,0.01,-0.05,0.8
1697353734.94,-0.13,-0.92,1.05,-11.3,0.1,-20.8,0.6,0.01,-0.05,0.8
1697353734.95,-0.23,-1.14,0.78,-11.7,0.1,-25.9,0.6,0.01,-0.05,0.8
1697353734.96,-0.27,-1.11,1.24,-12.8,0,-31.1,0.6,0.01,-0.05,0.8
1697353734.97,-0.07,-0.93,0.7,-12.7,-0.5,-35.2,0.6,0.01,-0.05,0.8
1697353734.98,-0.25,-0.95,1.02,-10.9,-0.7,-37.7,0.6,0,-0.06,0.79
1697353734.99,-0.24,-1.02,1.06,-8.2,-1.2,-40.9,0.61,0,-0.06,0.79
1697353735,-0.24,-1.02,1.06,-8.2,-1.2,-40.9,0.61,0,-0.06,0.79
1697353735.01,-0.27,-1.28,0.99,-6.4,-1.2,-43.8,0.61,0,-0.06,0.79
1697353735.02,-0.27,-1.28,0.99,-6.4,-1.2,-43.8,0.62,0,-0.06,0.79
1697353735.03,-0.25,-1.13,1.34,-7.7,-0.7,-47.2,0.62,0,-0.06,0.78
1697353735.04,-0.21,-1.17,0.94,-7.7,-0.5,-48.1,0.62,0,-0.06,0.78
1697353735.05,-0.22,-1.15,1.09,-6.6,-0.1,-50.1,0.63,0,-0.06,0.78
1697353735.06,-0.31,-1.15,0.9,-4.4,0,-52.4,0.63,0,-0.06,0.77
1697353735.07,-0.38,-1.12,1.26,-2.4,0,-54.4,0.63,0,-0.06,0.77
1697353735.08,-0.12,-1.25,0.57,-0.8,0.2,-56.5,0.64,0,-0.06,0.77
1697353735.09,-0.22,-1.3,0.73,-0.4,0.4,-59,0.64,0,-0.06,0.76
1697353735.1,-0.31,-1.25,0.97,-0.1,0.3,-60.9,0.65,0,-0.06,0.76
1697353735.11,-0.22,-1.22,0.99,-0.5,0.7,-62.5,0.65,0,-0.06,0.76
1697353735.12,-0.35,-1.16,0.98,-0.7,1.1,-63.5,0.65,0,-0.06,0.75
1697353735.13,-0.3,-1.17,1.01,-0.8,1.3,-64.2,0.66,0.01,-0.06,0.75
1697353735.14,-0.26,-1.11,0.97,-0.6,1.6,-65.3,0.66,0.01,-0.06,0.75
1697353735.15,-0.26,-1.11,0.97,-0.6,1.6,-65.3,0.66,0.01,-0.06,0.75
1697353735.16,-0.26,-1.11,0.97,-0.6,1.6,-65.3,0.66,0.01,-0.06,0.75
1697353735.17,-0.26,-1.11,0.97,-0.6,1.6,-65.3,0.66,0.01,-0.06,0.75
1697353735.18,-0.26,-1.11,0.97,-0.6,1.6,-65.3,0.66,0.01,-0.06,0.75
1697353735.19,-0.26,-1.11,0.97,-0.6,1.6,-65.3,0.66,0.01,-0.06,0.75
1697353735.2,-0.26,-1.11,0.97,-0.6,1.6,-65.3,0.66,0.01,-0.06,0.75
1697353735.21,-0.26,-1.11,0.97,-0.6,1.6,-65.3,0.66,0.01,-0.06,0.75
1697353735.22,-0.26,-1.11,0.97,-0.6,1.6,-65.3,0.66,0.01,-0.06,0.75
1697353735.23,-0.26,-1.11,0.97,-0.6,1.6,-65.3,0.66,0.01,-0.06,0.75
1697353735.24,-0.26,-1.11,0.97,-0.6,1.6,-65.3,0.66,0.01,-0.06,0.75
1697353735.25,-0.26,-1.11,0.97,-0.6,1.6,-65.3,0.66,0.01,-0.06,0.75
1697353735.26,-0.26,-1.11,0.97,-0.6,1.6,-65.3,0.71,0.01,-0.06,0.7
1697353735.27,-0.21,-1.11,0.69,1.2,0.2,-66.8,0.72,0.01,-0.06,0.7
1697353735.28,-0.28,-1.01,1.1,-0.5,0.7,-66.2,0.72,0.01,-0.06,0.69
1697353735.29,-0.22,-0.92,0.7,-1.9,1.3,-65.4,0.72,0.01,-0.06,0.69
1697353735.3,-0.24,-0.89,1.02,-1.9,2.5,-64.6,0.73,0.01,-0.06,0.68
1697353735.31,-0.25,-0.91,0.88,-0.1,3.4,-64,0.73,0.01,-0.06,0.68
1697353735.32,-0.09,-0.98,0.88,2,3.3,-63.7,0.74,0.01,-0.06,0.68
1697353735.33,-0.19,-1.06,1.05,3.7,2.6,-64.1,0.74,0.01,-0.06,0.67
1697353735.34,-0.15,-1.21,0.92,3.8,1.9,-64.9,0.74,0.01,-0.06,0.67
1697353735.35,-0.22,-1.15,1.31,1.8,1.3,-65.8,0.75,0.01,-0.06,0.66
1697353735.36,-0.12,-1.06,0.86,-1.4,0.7,-66.6,0.75,0.01,-0.06,0.66
1697353735.37,-0.18,-0.97,1.29,-2.4,0,-67.2,0.76,0.01,-0.06,0.65
1697353735.38,-0.2,-0.82,0.9,-1.7,-0.8,-67.3,0.76,0.01,-0.06,0.65
1697353735.39,-0.18,-0.91,0.95,0.2,-1.3,-67.1,0.76,0.01,-0.06,0.64
1697353735.4,-0.18,-0.91,0.95,0.2,-1.3,-67.1,0.77,0.01,-0.06,0.64
1697353735.41,-0.24,-0.94,1.02,1,-0.5,-66.4,0.77,0.01,-0.06,0.63
1697353735.42,-0.2,-0.98,1,0.8,0.1,-65.9,0.77,0.01,-0.06,0.63
1697353735.43,-0.26,-0.97,0.86,0.5,1.3,-65.3,0.78,0.01,-0.06,0.63
1697353735.44,-0.26,-0.97,0.86,0.5,1.3,-65.3,0.78,0.01,-0.06,0.62
1697353735.45,-0.23,-1.04,0.96,0.8,2.8,-64.8,0.79,0.01,-0.06,0.62
1697353735.46,-0.23,-1.04,0.96,0,3.8,-64.3,0.79,0.02,-0.06,0.61
1697353735.47,-0.2,-0.96,0.91,-0.1,4,-64,0.79,0.02,-0.06,0.61
1697353735.48,-0.12,-0.89,0.76,0,4.1,-63.8,0.79,0.02,-0.06,0.61
1697353735.49,-0.2,-0.88,1.02,1.5,4.3,-63.6,0.8,0.02,-0.05,0.6
1697353735.5,-0.21,-0.87,1.06,2,4.1,-63.6,0.8,0.02,-0.05,0.6
1697353735.51,-0.14,-0.98,1,3.6,3.6,-63.6,0.8,0.02,-0.05,0.59
1697353735.52,-0.22,-0.97,0.85,4.5,2.9,-63.9,0.81,0.02,-0.05,0.59
1697353735.53,-0.16,-1.08,0.98,2.5,1.1,-64.5,0.81,0.02,-0.05,0.58
1697353735.54,-0.17,-0.95,0.96,1.2,0.3,-64.5,0.82,0.02,-0.05,0.57
1697353735.55,-0.2,-0.83,1.13,1.2,0,-63.7,0.82,0.02,-0.05,0.57
1697353735.56,-0.15,-0.72,1.03,2.8,-0.1,-62.6,0.82,0.02,-0.05,0.57
1697353735.57,-0.09,-0.69,0.96,4.2,0.1,-61.2,0.83,0.02,-0.05,0.56
1697353735.58,-0.25,-0.77,1.18,2.9,0.1,-59.7,0.83,0.02,-0.05,0.56
1697353735.59,-0.17,-0.68,1.06,1.5,-0.3,-57.7,0.83,0.02,-0.05,0.55
1697353735.6,-0.16,-0.62,1.12,0.4,-0.5,-55.3,0.83,0.02,-0.05,0.55
1697353735.61,-0.14,-0.55,0.98,0.1,-0.9,-53.5,0.84,0.02,-0.05,0.54
1697353735.62,-0.21,-0.5,1.1,1.2,-1.1,-50.6,0.84,0.02,-0.05,0.54
1697353735.63,-0.11,-0.34,1.04,2.2,-0.7,-47.9,0.84,0.02,-0.05,0.54
1697353735.64,-0.16,-0.36,1,3.1,-0.3,-45.2,0.84,0.02,-0.05,0.53
1697353735.65,-0.13,-0.36,0.96,3.9,0.1,-42.7,0.85,0.02,-0.05,0.53
1697353735.66,-0.13,-0.36,0.96,3.9,0.1,-42.7,0.85,0.02,-0.05,0.53
1697353735.67,-0.13,-0.36,0.96,3.9,0.1,-42.7,0.85,0.02,-0.05,0.53
1697353735.68,-0.13,-0.36,0.96,3.9,0.1,-42.7,0.85,0.02,-0.05,0.53
1697353735.69,-0.13,-0.36,0.96,3.9,0.1,-42.7,0.85,0.02,-0.05,0.53
1697353735.7,-0.13,-0.36,0.96,3.9,0.1,-42.7,0.85,0.02,-0.05,0.53
1697353735.71,-0.13,-0.36,0.96,3.9,0.1,-42.7,0.85,0.02,-0.05,0.53
1697353735.72,-0.13,-0.36,0.96,3.9,0.1,-42.7,0.85,0.02,-0.05,0.53
1697353735.73,-0.13,-0.36,0.96,3.9,0.1,-42.7,0.85,0.02,-0.05,0.53
1697353735.74,-0.13,-0.36,0.96,3.9,0.1,-42.7,0.85,0.02,-0.05,0.53
1697353735.75,-0.13,-0.36,0.96,3.9,0.1,-42.7,0.85,0.02,-0.05,0.53
1697353735.76,-0.13,-0.36,0.96,3.9,0.1,-42.7,0.85,0.02,-0.05,0.53
1697353735.77,-0.13,-0.36,0.96,3.9,0.1,-42.7,0.85,0.02,-0.05,0.53
1697353735.78,0.06,0.52,0.56,7.2,-2.3,3.2,0.85,0.02,-0.05,0.53
1697353735.79,0.21,0.53,1.65,5.8,-2.6,6.9,0.86,0.03,-0.05,0.51
1697353735.8,0.51,0.59,0.71,5.8,-2.6,6.9,0.86,0.03,-0.05,0.51
1697353735.81,0.68,0.66,0.91,4,-3.7,13.2,0.86,0.03,-0.05,0.51
1697353735.82,0.68,0.66,0.91,4,-3.7,13.2,0.86,0.03,-0.05,0.51
1697353735.83,0.37,0.57,1.12,4.6,-4.4,15.7,0.86,0.03,-0.05,0.51
1697353735.84,0.01,0.51,0.96,5.3,-4.6,17.4,0.86,0.03,-0.05,0.51
1697353735.85,0.01,0.51,0.96,5.7,-4.4,18.5,0.85,0.03,-0.05,0.52
1697353735.86,-0.21,0.49,1.15,4.7,-3.5,19.5,0.85,0.03,-0.05,0.52
1697353735.87,-0.05,0.59,0.75,0.8,0.1,21.8,0.85,0.03,-0.05,0.52
1697353735.88,-0.05,0.59,0.75,0.8,0.1,21.8,0.85,0.03,-0.05,0.52
1697353735.89,-0.03,0.5,1.3,1.3,3,25.3,0.85,0.03,-0.05,0.52
1697353735.9,-0.03,0.5,1.3,1.3,3,25.3,0.85,0.03,-0.05,0.53
1697353735.91,0.42,0.42,0.4,-0.9,1.9,25.9,0.85,0.03,-0.05,0.53
1697353735.92,0.48,0.4,0.88,-1.7,1.5,26.1,0.85,0.03,-0.05,0.53
1697353735.93,0.49,0.45,0.79,-2.9,-0.5,26.4,0.85,0.03,-0.05,0.53
1697353735.94,0.44,0.53,1,-2.9,-2.3,26.5,0.84,0.03,-0.05,0.53
1697353735.95,0.4,0.37,0.95,-3.1,-3.9,26.5,0.84,0.03,-0.05,0.54
1697353735.96,-0.18,0.7,0.97,-2.5,-4.1,25.8,0.84,0.03,-0.05,0.54
1697353735.97,0.34,0.24,0.66,-2.7,-3.3,26.3,0.84,0.03,-0.05,0.54
1697353735.98,-0.05,0.73,1.34,-0.9,-1.7,25.8,0.84,0.03,-0.05,0.54
1697353735.99,0.25,0.45,1.17,0.3,-1.2,26.1,0.84,0.03,-0.05,0.54
1697353736,0.2,0.31,1.03,0.2,0.1,26.5,0.84,0.03,-0.05,0.55
1697353736.01,0.33,0.39,1.13,0.2,0.5,25.7,0.83,0.03,-0.05,0.55
1697353736.02,0.44,0.38,1.24,-2.1,0.7,26.5,0.83,0.03,-0.05,0.55
1697353736.03,0.45,0.46,1.18,-2.1,0.3,26.5,0.83,0.03,-0.05,0.55
1697353736.04,0.3,0.46,1.07,-0.8,0.2,26.5,0.83,0.03,-0.05,0.55
1697353736.05,0.35,0.54,0.64,0.9,0.9,26.7,0.83,0.03,-0.05,0.56
1697353736.06,0.21,0.23,1.01,1,1.4,28.5,0.83,0.03,-0.05,0.56
1697353736.07,-0.04,0.5,1.15,2.7,1.7,27.8,0.83,0.03,-0.05,0.56
1697353736.08,0.17,0.3,0.94,0.2,2,30.3,0.83,0.03,-0.05,0.56
1697353736.09,0.08,0.48,1.08,0.9,1.1,30.2,0.82,0.03,-0.05,0.56
1697353736.1,0.21,0.4,0.81,0.6,0.3,30.8,0.82,0.03,-0.05,0.57
1697353736.11,0.21,0.48,0.86,1.3,-0.2,31.1,0.82,0.03,-0.05,0.57
1697353736.12,0.18,0.46,1.07,1.7,-2,29,0.82,0.03,-0.05,0.57
1697353736.13,0.32,0.48,1.07,1,-2.6,28,0.82,0.03,-0.05,0.57
1697353736.14,0.3,0.5,0.92,0.1,-3,26.7,0.82,0.03,-0.05,0.58
1697353736.15,0.34,0.65,0.97,0,-2.7,26.3,0.82,0.03,-0.05,0.58
1697353736.16,0.34,0.65,0.97,0,-2.7,26.3,0.81,0.03,-0.05,0.58
1697353736.17,0.34,0.65,0.97,0,-2.7,26.3,0.81,0.03,-0.05,0.58
1697353736.18,0.34,0.65,0.97,0,-2.7,26.3,0.81,0.03,-0.05,0.58
1697353736.19,0.34,0.65,0.97,0,-2.7,26.3,0.81,0.03,-0.05,0.58
1697353736.2,0.34,0.65,0.97,0,-2.7,26.3,0.81,0.03,-0.05,0.58
1697353736.21,0.34,0.65,0.97,0,-2.7,26.3,0.81,0.03,-0.05,0.58
1697353736.22,0.34,0.65,0.97,0,-2.7,26.3,0.81,0.03,-0.05,0.58
1697353736.23,0.34,0.65,0.97,0,-2.7,26.3,0.81,0.03,-0.05,0.58
1697353736.24,0.34,0.65,0.97,0,-2.7,26.3,0.81,0.03,-0.05,0.58
1697353736.25,0.34,0.65,0.97,0,-2.7,26.3,0.81,0.03,-0.05,0.58
1697353736.26,0.34,0.65,0.97,0,-2.7,26.3,0.81,0.03,-0.05,0.58
1697353736.27,0.34,0.65,0.97,0,-2.7,26.3,0.81,0.03,-0.05,0.58
1697353736.28,0.34,0.65,0.97,3.5,0.3,29.1,0.8,0.03,-0.05,0.6
1697353736.29,0.21,0.12,0.88,3.1,-0.2,28.3,0.8,0.03,-0.05,0.6
1697353736.3,0.21,0.05,0.98,0.9,-0.3,27.2,0.79,0.03,-0.05,0.61
1697353736.31,0.26,0.29,1.15,-1.9,-0.4,25.5,0.79,0.03,-0.05,0.61
1697353736.32,0.24,0.38,1.02,-2.8,-0.6,24,0.79,0.03,-0.05,0.61
1697353736.33,0.24,0.38,1.03,-0.1,-1.3,22.4,0.79,0.03,-0.05,0.61
1697353736.34,0.22,0.17,1,1.1,-1.4,21.3,0.79,0.03,-0.05,0.61
1697353736.35,0.2,0.11,1.15,-1.4,-0.6,20.2,0.79,0.03,-0.05,0.61
1697353736.36,0.15,0.35,1.11,-4.3,-0.2,18.7,0.79,0.03,-0.05,0.61
1697353736.37,0.2,0.37,1.04,-4.5,0.3,18.2,0.79,0.03,-0.05,0.62
1697353736.38,0.24,0.38,0.93,-1.6,0.8,17.5,0.78,0.03,-0.05,0.62
1697353736.39,0.21,0.12,0.9,1.2,0.7,16.9,0.78,0.03,-0.05,0.62
1697353736.4,0.13,0.15,0.9,0.8,0.8,16.5,0.78,0.03,-0.05,0.62
1697353736.41,0.17,0.11,0.99,-0.4,1.1,16,0.78,0.03,-0.05,0.62
1697353736.42,0.26,0.17,0.83,-1.8,1.5,15.6,0.78,0.03,-0.05,0.62
1697353736.43,0.2,0.29,1.17,-1.6,1.6,15.3,0.78,0.03,-0.05,0.62
1697353736.44,0.24,0.27,1.02,0.5,1.1,15.5,0.78,0.03,-0.05,0.62
1697353736.45,0.32,0.2,0.9,0.5,1.1,15.5,0.78,0.03,-0.05,0.62
1697353736.46,0.25,0.06,0.89,3.6,0.1,15.7,0.78,0.03,-0.05,0.63
1697353736.47,0.22,0.12,1,3.6,0.1,15.7,0.78,0.03,-0.05,0.63
1697353736.48,0.17,0.24,1.02,-1.3,-0.5,15.1,0.78,0.03,-0.05,0.63
1697353736.49,0.13,0.31,1.16,-1.3,-0.5,15.1,0.78,0.03,-0.05,0.63
1697353736.5,0.13,0.22,1.01,-1.1,-0.8,15.1,0.77,0.03,-0.05,0.63
1697353736.51,0.13,0.22,1.01,-1.1,-0.8,15.1,0.77,0.03,-0.05,0.63
1697353736.52,0.13,0.25,1.2,0.2,-0.3,14.5,0.77,0.03,-0.05,0.63
1697353736.53,0.16,0.08,1.05,2,-0.5,13.5,0.77,0.03,-0.05,0.63
1697353736.54,0.36,-0.08,0.9,2.1,-0.1,12.5,0.77,0.03,-0.05,0.63
1697353736.55,0.05,0.02,1.03,2.1,-0.1,12.5,0.77,0.03,-0.05,0.63
1697353736.56,0.26,0.08,1,-3.3,1.2,10.3,0.77,0.02,-0.05,0.63
1697353736.57,0.18,0.18,0.84,-2.5,1.4,8.9,0.77,0.02,-0.05,0.63
1697353736.58,0.14,0.18,1.01,-2.1,1.7,8.6,0.77,0.02,-0.05,0.64
1697353736.59,0.22,0.26,0.94,0.9,1,8.6,0.77,0.02,-0.05,0.64
1697353736.6,0.24,0.23,0.99,0.9,1,8.6,0.77,0.02,-0.05,0.64
1697353736.61,0.13,0.14,1.09,2.3,0.4,9,0.77,0.02,-0.05,0.64
1697353736.62,0.19,-0,1.03,2.3,0.4,9,0.77,0.03,-0.05,0.64
1697353736.63,0.19,0.12,1.18,0.8,0.1,8.9,0.77,0.03,-0.05,0.64
1697353736.64,0.19,0.12,1.18,-1.4,0,9.6,0.77,0.03,-0.05,0.64
1697353736.65,0.26,0.17,1.1,-0.8,0,9.9,0.77,0.03,-0.05,0.64
1697353736.66,0.27,0.32,0.99,1.5,-0.2,10.6,0.77,0.03,-0.05,0.64
1697353736.67,0.23,0.32,0.9,2.6,0,11.6,0.76,0.03,-0.05,0.64
1697353736.68,0.23,0.32,0.9,2.6,0,11.6,0.76,0.03,-0.05,0.64
1697353736.69,0.23,0.32,0.9,2.6,0,11.6,0.76,0.03,-0.05,0.64
1697353736.7,0.23,0.32,0.9,2.6,0,11.6,0.76,0.03,-0.05,0.64
1697353736.71,0.23,0.32,0.9,2.6,0,11.6,0.76,0.03,-0.05,0.64
1697353736.72,0.23,0.32,0.9,2.6,0,11.6,0.76,0.03,-0.05,0.64
1697353736.73,0.23,0.32,0.9,2.6,0,11.6,0.76,0.03,-0.05,0.64
1697353736.74,0.23,0.32,0.9,2.6,0,11.6,0.76,0.03,-0.05,0.64
1697353736.75,0.23,0.32,0.9,2.6,0,11.6,0.76,0.03,-0.05,0.64
1697353736.76,0.23,0.32,0.9,2.6,0,11.6,0.76,0.03,-0.05,0.64
1697353736.77,0.23,0.32,0.9,2.6,0,11.6,0.76,0.03,-0.05,0.64
1697353736.78,0.23,0.32,0.9,2.6,0,11.6,0.76,0.03,-0.05,0.64
1697353736.79,0.23,0.32,0.9,2.6,0,11.6,0.76,0.03,-0.05,0.64
1697353736.8,0.23,0.32,0.9,2.6,0,11.6,0.76,0.03,-0.05,0.64
1697353736.81,0.23,0.32,0.9,2.6,0,11.6,0.76,0.03,-0.05,0.64
1697353736.82,0.23,0.32,0.9,2.6,0,11.6,0.76,0.03,-0.05,0.64
1697353736.83,0.23,0.32,0.9,2.6,0,11.6,0.76,0.03,-0.05,0.64
1697353736.84,0.23,0.32,0.9,2.6,0,11.6,0.76,0.03,-0.05,0.64
1697353736.85,0.23,0.32,0.9,2.6,0,11.6,0.76,0.03,-0.05,0.64
1697353736.86,0.23,0.32,0.9,2.6,0,11.6,0.76,0.03,-0.05,0.64
1697353736.87,0.23,0.32,0.9,2.6,0,11.6,0.76,0.03,-0.05,0.64
1697353736.88,0.24,0.48,0.94,0.6,0.3,21.2,0.75,0.03,-0.05,0.66
1697353736.89,0.2,0.4,0.85,0.6,0.3,21.2,0.75,0.03,-0.05,0.66
1697353736.9,0.2,0.4,0.85,5.4,1.1,21.4,0.74,0.03,-0.05,0.66
1697353736.91,0.26,0.25,0.97,6.3,1.4,21.3,0.74,0.03,-0.05,0.67
1697353736.92,0.25,0.5,1.22,3.1,1.5,21.2,0.74,0.03,-0.05,0.67
1697353736.93,0.25,0.5,1.22,3.1,1.5,21.2,0.74,0.03,-0.05,0.67
1697353736.94,0.24,0.56,0.95,0,1.5,20.7,0.74,0.03,-0.05,0.67
1697353736.95,0.24,0.66,1.12,-1.8,1.1,21,0.74,0.03,-0.05,0.67
1697353736.96,0.25,0.54,1.03,-2.2,0.6,21.5,0.74,0.03,-0.05,0.67
1697353736.97,0.31,0.52,1.07,-0.9,0,21.7,0.74,0.03,-0.05,0.67
1697353736.98,0.35,0.5,0.82,0.1,-0.8,22.2,0.73,0.03,-0.05,0.68
1697353736.99,0.23,0.34,1.1,0.2,-1.4,22.6,0.73,0.03,-0.05,0.68
1697353737,0.26,0.38,1,0.2,-1.5,22.6,0.73,0.03,-0.05,0.68
1697353737.01,0.28,0.48,0.92,0,-1.5,22.7,0.73,0.03,-0.05,0.68
1697353737.02,0.17,0.55,0.98,-1.5,-1,22.7,0.73,0.03,-0.05,0.68
1697353737.03,0.21,0.6,0.86,-1.6,-0.4,22.9,0.73,0.03,-0.05,0.68
1697353737.04,0.21,0.54,0.91,1,0.4,23.1,0.73,0.03,-0.05,0.69
1697353737.05,0.29,0.44,0.76,4.6,0.7,23.9,0.72,0.03,-0.05,0.69
1697353737.06,0.25,0.44,0.99,6.5,0.7,24.8,0.72,0.03,-0.05,0.69
1697353737.07,0.17,0.56,1.16,4.4,0.5,25.8,0.72,0.03,-0.05,0.69
1697353737.08,0.17,0.76,1.14,1.3,-0.3,26.6,0.72,0.03,-0.05,0.69
1697353737.09,0.23,0.82,0.73,-1,-0.8,27.6,0.72,0.03,-0.05,0.69
1697353737.1,0.12,0.71,1.28,-1,-0.8,27.6,0.72,0.03,-0.05,0.69
1697353737.11,0.23,0.77,0.88,0.9,-0.4,31.3,0.71,0.03,-0.05,0.7
1697353737.12,0.23,0.77,0.88,0.9,-0.4,31.3,0.71,0.03,-0.05,0.7
1697353737.13,0.18,0.66,1.28,0.7,-0.4,33.1,0.71,0.03,-0.05,0.7
1697353737.14,0.17,0.71,1.06,0.7,-0.4,33.1,0.71,0.03,-0.05,0.7
1697353737.15,0.28,0.64,1.03,0,0.5,33.4,0.71,0.03,-0.05,0.71
1697353737.16,0.23,0.7,1.13,0,0.5,33.4,0.71,0.03,-0.05,0.71
1697353737.17,0.23,0.7,1.13,0,0.5,33.4,0.71,0.03,-0.05,0.71
1697353737.18,0.14,0.71,1.04,1.1,0.3,33.5,0.7,0.02,-0.05,0.71
1697353737.19,0.2,0.67,0.91,1.9,0.3,33.2,0.7,0.02,-0.05,0.71
1697353737.2,0.23,0.56,0.99,1.9,0.3,33.2,0.7,0.02,-0.05,0.71
1697353737.21,0.22,0.73,1,0,-0.2,32.3,0.69,0.02,-0.05,0.72
1697353737.22,0.24,0.76,0.89,0.7,-1,32.3,0.69,0.02,-0.05,0.72
1697353737.23,0.23,0.79,1.16,1.8,-2.1,32.4,0.69,0.02,-0.05,0.72
1697353737.24,0.2,0.62,1.02,1.8,-2.1,32.4,0.69,0.02,-0.05,0.72
1697353737.25,0.23,0.55,1.03,1.4,-3.2,32.7,0.69,0.02,-0.05,0.72
1697353737.26,0.23,0.55,1.03,-1.7,-3.3,32.3,0.68,0.02,-0.05,0.73
1697353737.27,0.28,0.62,1.05,-3.8,-3.5,32.2,0.68,0.02,-0.05,0.73
1697353737.28,0.32,0.68,0.98,-3.8,-3.5,32.2,0.68,0.02,-0.05,0.73
1697353737.29,0.32,0.68,0.98,-3.8,-3.5,32.2,0.68,0.02,-0.05,0.73
1697353737.3,0.32,0.68,0.98,-3.8,-3.5,32.2,0.68,0.02,-0.05,0.73
1697353737.31,0.32,0.68,0.98,-3.8,-3.5,32.2,0.68,0.02,-0.05,0.73
1697353737.32,0.32,0.68,0.98,-3.8,-3.5,32.2,0.68,0.02,-0.05,0.73
1697353737.33,0.32,0.68,0.98,-3.8,-3.5,32.2,0.68,0.02,-0.05,0.73
1697353737.34,0.32,0.68,0.98,-3.8,-3.5,32.2,0.68,0.02,-0.05,0.73
1697353737.35,0.32,0.68,0.98,-3.8,-3.5,32.2,0.68,0.02,-0.05,0.73
1697353737.36,0.32,0.68,0.98,-3.8,-3.5,32.2,0.68,0.02,-0.05,0.73
1697353737.37,0.32,0.68,0.98,-3.8,-3.5,32.2,0.68,0.02,-0.05,0.73
1697353737.38,0.32,0.68,0.98,-3.8,-3.5,32.2,0.68,0.02,-0.05,0.73
1697353737.39,0.32,0.68,0.98,-3.8,-3.5,32.2,0.68,0.02,-0.05,0.73
1697353737.4,0.32,0.68,0.98,-3.8,-3.5,32.2,0.68,0.02,-0.05,0.73
1697353737.41,0.28,0.63,1.03,-0.2,-3.6,28.9,0.65,0.02,-0.05,0.75
1697353737.42,0.3,0.66,0.88,-0.4,-3.5,29.4,0.65,0.02,-0.05,0.75
1697353737.43,0.22,0.43,1.05,-0.2,-2.4,28.4,0.65,0.02,-0.05,0.76
1697353737.44,0.13,0.54,1.07,-2.5,-1.1,29.1,0.65,0.02,-0.05,0.76
1697353737.45,0.12,0.57,0.99,-2,0.2,28.8,0.65,0.02,-0.05,0.76
1697353737.46,0.15,0.66,1.02,-1.4,1.1,29,0.64,0.02,-0.05,0.76
1697353737.47,0.18,0.65,0.89,-0.2,2,29.6,0.64,0.02,-0.05,0.76
1697353737.48,0.2,0.65,0.97,-0.2,2,29.6,0.64,0.02,-0.05,0.76
1697353737.49,0.23,0.77,0.95,0,1.9,30.1,0.64,0.02,-0.05,0.77
1697353737.5,0.26,0.66,1.03,0.3,1.7,30.6,0.64,0.02,-0.05,0.77
1697353737.51,0.36,0.77,0.84,1.4,1.1,31,0.63,0.02,-0.05,0.77
1697353737.52,0.27,0.58,1.03,1.4,1.1,31,0.63,0.02,-0.05,0.77
1697353737.53,0.21,0.55,0.88,0.6,-1.8,31.3,0.63,0.02,-0.05,0.78
1697353737.54,0.21,0.55,0.88,0.6,-1.8,31.3,0.63,0.02,-0.05,0.78
1697353737.55,0.19,0.69,1.01,-0.6,-1.5,31.4,0.63,0.02,-0.05,0.78
1697353737.56,0.25,0.72,0.83,-1.2,-0.9,31.3,0.62,0.02,-0.05,0.78
1697353737.57,0.13,0.63,0.92,0.8,1.5,30.7,0.62,0.02,-0.05,0.78
1697353737.58,0.13,0.63,0.92,0.8,1.5,30.7,0.62,0.02,-0.05,0.78
1697353737.59,0.17,0.73,0.89,-0.3,2.7,30.1,0.62,0.02,-0.05,0.78
1697353737.6,0.17,0.73,0.89,-1.4,3.4,30.8,0.62,0.02,-0.05,0.79
1697353737.61,0.3,0.87,0.81,0.2,3.5,30.9,0.61,0.02,-0.05,0.79
1697353737.62,0.3,0.87,0.81,2.3,3,31.3,0.61,0.02,-0.05,0.79
1697353737.63,0.22,0.61,0.84,2.6,2.7,31.7,0.61,0.02,-0.05,0.79
1697353737.64,0.22,0.61,0.84,1.7,2.6,31.6,0.61,0.02,-0.05,0.79
1697353737.65,0.22,0.83,1.32,1.7,2.7,31.4,0.61,0.02,-0.05,0.79
1697353737.66,0.26,0.54,0.72,0.5,1.7,31.3,0.6,0.02,-0.05,0.8
1697353737.67,0.23,0.55,0.81,-0.4,1.1,31.1,0.6,0.02,-0.05,0.8
1697353737.68,0.16,0.73,1.04,0,1.5,31.1,0.6,0.02,-0.05,0.8
1697353737.69,0.2,0.71,0.76,1.6,1.6,31.2,0.6,0.02,-0.05,0.8
1697353737.7,0.17,0.75,0.92,2.7,2.1,31.6,0.59,0.02,-0.05,0.8
1697353737.71,0.08,0.61,0.99,1.7,2.6,31.7,0.59,0.02,-0.05,0.8
1697353737.72,0.15,0.62,0.92,-0.5,3.5,32,0.59,0.02,-0.05,0.81
1697353737.73,0.09,0.73,0.98,-0.5,4.4,32.1,0.59,0.02,-0.05,0.81
1697353737.74,0.12,0.82,0.9,0.7,5,32.9,0.58,0.01,-0.05,0.81
1697353737.75,0.07,0.75,1.01,2.2,5,33.6,0.58,0.01,-0.05,0.81
1697353737.76,0.17,0.7,0.87,1.5,4.6,33.9,0.58,0.01,-0.05,0.81
1697353737.77,0.11,0.69,0.94,0.1,4.4,34.6,0.58,0.01,-0.05,0.81
1697353737.78,0.05,0.73,0.79,-0.7,3.7,35.1,0.57,0.01,-0.05,0.82
1697353737.79,0.02,0.82,0.87,-1.1,3,35.7,0.57,0.01,-0.05,0.82
1697353737.8,0.02,0.82,0.87,-1.1,3,35.7,0.57,0.01,-0.05,0.82
1697353737.81,0.02,0.82,0.87,-1.1,3,35.7,0.57,0.01,-0.05,0.82
1697353737.82,0.02,0.82,0.87,-1.1,3,35.7,0.57,0.01,-0.05,0.82
1697353737.83,0.02,0.82,0.87,-1.1,3,35.7,0.57,0.01,-0.05,0.82
1697353737.84,0.02,0.82,0.87,-1.1,3,35.7,0.57,0.01,-0.05,0.82
1697353737.85,0.02,0.82,0.87,-1.1,3,35.7,0.57,0.01,-0.05,0.82
1697353737.86,0.02,0.82,0.87,-1.1,3,35.7,0.57,0.01,-0.05,0.82
1697353737.87,0.02,0.82,0.87,-1.1,3,35.7,0.57,0.01,-0.05,0.82
1697353737.88,0.02,0.82,0.87,-1.1,3,35.7,0.57,0.01,-0.05,0.82
1697353737.89,0.02,0.82,0.87,-1.1,3,35.7,0.57,0.01,-0.05,0.82
1697353737.9,0.02,0.82,0.87,-1.1,3,35.7,0.57,0.01,-0.05,0.82
1697353737.91,0.02,0.82,0.87,-1.1,3,35.7,0.57,0.01,-0.05,0.82
1697353737.92,-0.11,0.95,1.16,-1.1,3,35.7,0.54,0.01,-0.05,0.84
1697353737.93,-0.01,0.98,0.99,-2.1,4.1,32.5,0.54,0.01,-0.05,0.84
1697353737.94,-0.2,0.86,1.07,-2.1,4.1,32.5,0.54,0,-0.05,0.84
1697353737.95,-0.29,0.68,1.44,2,3.3,33.2,0.54,0,-0.05,0.84
1697353737.96,-0.58,0.63,1.01,5.1,2.2,34.2,0.53,0,-0.05,0.84
1697353737.97,-0.58,0.63,1.01,4,1,34.4,0.53,0,-0.05,0.85
1697353737.98,-0.53,0.91,0.97,0.3,1.7,33.6,0.53,0,-0.05,0.85
1697353737.99,-0.37,0.98,1.15,-1.7,3.1,32.5,0.52,0,-0.05,0.85
1697353738,-0.19,0.79,1.28,0.1,3.6,32.2,0.52,0,-0.05,0.85
1697353738.01,-0.07,0.76,1.32,3.8,3.1,32.9,0.52,0,-0.05,0.85
1697353738.02,0.07,0.57,1.06,6.2,1.8,33,0.52,0,-0.05,0.85
1697353738.03,0.05,0.64,1.03,3.9,0.2,34.4,0.51,0,-0.05,0.86
1697353738.04,-0.05,0.7,1.21,-0.1,-2.1,35.4,0.51,0,-0.05,0.86
1697353738.05,-0.04,1.01,0.56,-3.3,-3.9,35.9,0.51,0,-0.05,0.86
1697353738.06,-0.24,0.96,1.37,-3.8,-5.1,37.1,0.51,0,-0.05,0.86
1697353738.07,-0.13,0.85,1.09,0.5,-5.5,37.3,0.5,0,-0.05,0.86
1697353738.08,0,0.71,1.19,7.6,-4.2,37.4,0.5,0,-0.05,0.86
1697353738.09,-0.19,0.43,1.23,10.6,-3.5,37.1,0.5,0.01,-0.05,0.87
1697353738.1,-0.04,0.75,0.52,8.2,-3.6,36.9,0.49,0.01,-0.05,0.87
1697353738.11,-0.2,1.22,1.04,2.2,-3.2,35.9,0.49,0.01,-0.05,0.87
1697353738.12,-0.16,1.16,0.85,-2.7,-2.4,36.7,0.49,0.01,-0.05,0.87
1697353738.13,-0.24,1.21,1.14,-0.3,-0.7,38.3,0.49,0.01,-0.05,0.87
1697353738.14,-0.19,1.03,1.02,3.9,-0.1,39.2,0.48,0.01,-0.05,0.87
1697353738.15,-0.19,1.03,1.02,3.9,-0.1,39.2,0.48,0.01,-0.05,0.87
1697353738.16,-0.29,1.06,1.05,6,1.1,42.9,0.48,0.01,-0.05,0.88
1697353738.17,-0.29,1.06,1.05,6,1.1,42.9,0.48,0.01,-0.05,0.88
1697353738.18,-0.28,0.99,1.13,4.3,1.2,45.3,0.47,0.01,-0.04,0.88
1697353738.19,-0.28,0.99,1.13,4.3,1.2,45.3,0.47,0.01,-0.04,0.88
1697353738.2,-0.11,0.96,1.1,2.9,-1.6,46.6,0.47,0.01,-0.04,0.88
1697353738.21,-0.18,1.35,0.75,0.1,-2.5,46.6,0.46,0.01,-0.04,0.89
1697353738.22,-0.09,1.02,0.57,0.6,-3.1,47.6,0.46,0.01,-0.04,0.89
1697353738.23,-0.17,0.98,1.34,3.4,-2.9,48,0.45,0.01,-0.04,0.89
1697353738.24,-0.05,0.93,0.85,4,-1.8,47.7,0.45,0.01,-0.04,0.89
1697353738.25,-0.05,0.93,0.85,3,-1.7,47,0.45,0.01,-0.04,0.89
1697353738.26,-0.28,1.03,1.03,-1.8,-0.7,46.5,0.44,0.01,-0.04,0.9
1697353738.27,-0.28,1.03,1.03,-3.6,0.3,46.2,0.44,0.01,-0.04,0.9
1697353738.28,-0.14,1.17,0.84,-3.7,1.6,45.8,0.43,0.01,-0.04,0.9
1697353738.29,-0.08,1.19,0.95,-3.7,1.6,45.8,0.43,0,-0.04,0.9
1697353738.3,-0.08,1.19,0.95,-1.6,2.5,46.1,0.43,0,-0.04,0.9
1697353738.31,-0.18,0.82,1.03,3.1,2.4,46.9,0.43,0,-0.04,0.9
1697353738.32,-0.18,0.82,1.03,3.1,2.4,46.9,0.43,0,-0.04,0.9
1697353738.33,-0.18,0.82,1.03,3.1,2.4,46.9,0.43,0,-0.04,0.9
1697353738.34,-0.18,0.82,1.03,3.1,2.4,46.9,0.43,0,-0.04,0.9
1697353738.35,-0.18,0.82,1.03,3.1,2.4,46.9,0.43,0,-0.04,0.9
1697353738.36,-0.18,0.82,1.03,3.1,2.4,46.9,0.43,0,-0.04,0.9
1697353738.37,-0.18,0.82,1.03,3.1,2.4,46.9,0.43,0,-0.04,0.9
1697353738.38,-0.18,0.82,1.03,3.1,2.4,46.9,0.43,0,-0.04,0.9
1697353738.39,-0.18,0.82,1.03,3.1,2.4,46.9,0.43,0,-0.04,0.9
1697353738.4,-0.18,0.82,1.03,3.1,2.4,46.9,0.43,0,-0.04,0.9
1697353738.41,-0.18,0.82,1.03,3.1,2.4,46.9,0.43,0,-0.04,0.9
1697353738.42,-0.18,0.82,1.03,3.1,2.4,46.9,0.43,0,-0.04,0.9
1697353738.43,-0.18,0.82,1.03,3.1,2.4,46.9,0.43,0,-0.04,0.9
1697353738.44,-0.24,1.01,1.03,1.7,3.4,43.8,0.38,-0,-0.04,0.93
1697353738.45,-0.12,0.72,1.1,4.1,4,43.3,0.37,-0,-0.04,0.93
1697353738.46,-0.14,0.71,1.04,-1,4.3,43,0.37,-0,-0.04,0.93
1697353738.47,-0.16,0.95,0.97,-6.2,4.6,42,0.37,-0,-0.04,0.93
1697353738.48,-0.18,1.25,1.17,-8.3,4.7,42,0.36,-0,-0.04,0.93
1697353738.49,-0.07,1.26,0.86,-5.3,4.8,43.2,0.36,-0,-0.04,0.93
1697353738.5,-0.07,1.09,0.9,0.3,4.6,44,0.36,-0,-0.04,0.93
1697353738.51,-0.12,0.9,0.95,4.2,3.8,44.7,0.35,-0,-0.04,0.93
1697353738.52,-0.09,0.81,0.52,4.4,3,45.4,0.35,-0.01,-0.04,0.94
1697353738.53,-0.21,0.86,0.95,2.8,2.7,45.8,0.34,-0.01,-0.04,0.94
1697353738.54,-0.05,0.7,0.66,1.6,3.6,46,0.34,-0.01,-0.04,0.94
1697353738.55,-0.02,0.98,1.05,0.3,4.1,45.1,0.34,-0.01,-0.04,0.94
1697353738.56,-0.04,1.1,0.99,-1.4,3.5,45.6,0.33,-0.01,-0.04,0.94
1697353738.57,-0.23,1.07,0.88,-1.4,3.5,45.6,0.33,-0.01,-0.04,0.94
1697353738.58,-0.31,1.14,1.04,-0.4,2,47.9,0.33,-0.01,-0.04,0.94
1697353738.59,-0.16,1,0.83,-0.4,2,47.9,0.32,-0.01,-0.04,0.95
1697353738.6,-0.16,1,0.83,0.8,1.4,48.6,0.32,-0.01,-0.04,0.95
1697353738.61,-0.17,1.1,0.99,-0.1,0.4,49.3,0.32,-0.01,-0.04,0.95
1697353738.62,-0.2,1.14,1.01,-1.9,-0.1,49.6,0.31,-0.01,-0.04,0.95
1697353738.63,-0.2,1.14,1.01,-2.2,-0.7,50.5,0.31,-0.01,-0.04,0.95
1697353738.64,-0.17,1.16,1.35,-0.1,-1.6,50.5,0.3,-0.01,-0.04,0.95
1697353738.65,-0.2,1.11,1.14,0,-1.5,50.6,0.3,-0.01,-0.04,0.95
1697353738.66,-0.07,1.08,0.77,2,-1.2,50.4,0.29,-0.01,-0.04,0.96
1697353738.67,-0.19,1.16,1.07,4.1,-0.7,49.9,0.29,-0.01,-0.04,0.96
1697353738.68,-0.2,1,1.09,6,0,49.1,0.28,-0.01,-0.04,0.96
1697353738.69,-0.06,0.96,0.48,5.7,1.5,48.2,0.28,-0.01,-0.04,0.96
1697353738.7,-0.24,0.72,1.36,4,2,46.5,0.27,-0.01,-0.04,0.96
1697353738.71,-0.24,0.95,1.06,1.6,3.8,44.9,0.27,-0.01,-0.04,0.96
1697353738.72,-0.28,1.03,1.25,0,5.4,44.9,0.27,-0.01,-0.04,0.96
1697353738.73,-0.15,0.86,0.8,-0.9,6.1,44.2,0.26,-0.01,-0.04,0.96
1697353738.74,-0.18,1,0.82,-0.9,6.1,44.2,0.26,-0.01,-0.04,0.96
1697353738.75,-0.12,1.14,0.98,-2.5,5.9,44.4,0.26,-0.01,-0.04,0.97
1697353738.76,-0.01,0.99,0.79,-2.2,5.2,45.1,0.25,-0.01,-0.04,0.97
1697353738.77,-0.22,1.09,1.14,-2.2,4,45.8,0.25,-0.01,-0.04,0.97
1697353738.78,-0.14,1.08,1.36,-0.9,1.8,46.7,0.24,-0.01,-0.04,0.97
1697353738.79,-0.03,0.97,0.91,-0.1,-0.4,47.2,0.24,-0.01,-0.04,0.97
1697353738.8,-0.13,0.93,0.99,0,-1.7,46.9,0.24,-0.01,-0.04,0.97
1697353738.81,-0.1,0.71,0.98,-0.6,-2.1,45.6,0.23,-0.01,-0.04,0.97
1697353738.82,-0.12,0.74,0.91,-1.6,-2.2,44.7,0.23,-0.01,-0.04,0.97
1697353738.83,-0.12,0.74,0.91,-1.6,-2.2,44.7,0.23,-0.01,-0.04,0.97
1697353738.84,-0.12,0.74,0.91,-1.6,-2.2,44.7,0.23,-0.01,-0.04,0.97
1697353738.85,-0.12,0.74,0.91,-1.6,-2.2,44.7,0.23,-0.01,-0.04,0.97
1697353738.86,-0.12,0.74,0.91,-1.6,-2.2,44.7,0.23,-0.01,-0.04,0.97
1697353738.87,-0.12,0.74,0.91,-1.6,-2.2,44.7,0.23,-0.01,-0.04,0.97
1697353738.88,-0.12,0.74,0.91,-1.6,-2.2,44.7,0.23,-0.01,-0.04,0.97
1697353738.89,-0.12,0.74,0.91,-1.6,-2.2,44.7,0.23,-0.01,-0.04,0.97
1697353738.9,-0.12,0.74,0.91,-1.6,-2.2,44.7,0.23,-0.01,-0.04,0.97
1697353738.91,-0.12,0.74,0.91,-1.6,-2.2,44.7,0.23,-0.01,-0.04,0.97
1697353738.92,-0.12,0.74,0.91,-1.6,-2.2,44.7,0.23,-0.01,-0.04,0.97
1697353738.93,-0.12,0.74,0.91,-1.6,-2.2,44.7,0.23,-0.01,-0.04,0.97
1697353738.94,-0.12,0.74,0.91,-1.6,-2.2,44.7,0.23,-0.01,-0.04,0.97
1697353738.95,-0.12,0.74,0.91,-1.6,-2.2,44.7,0.23,-0.01,-0.04,0.97
1697353738.96,-0.12,0.65,1.18,1.8,2.8,41.3,0.18,-0.02,-0.04,0.98
1697353738.97,-0.24,0.77,0.88,-1.8,4,40.7,0.18,-0.02,-0.04,0.98
1697353738.98,-0.07,0.84,1.13,-3.4,4.8,40.5,0.18,-0.02,-0.04,0.98
1697353738.99,-0.02,1.07,0.87,-2.7,4.7,40.2,0.17,-0.02,-0.04,0.98
1697353739,-0.08,0.88,0.9,-1.1,4.4,40.6,0.17,-0.02,-0.04,0.98
1697353739.01,-0.12,0.91,1,-0.3,3.7,41,0.17,-0.02,-0.04,0.99
1697353739.02,-0.12,0.9,1,-1.3,2.4,41.2,0.16,-0.02,-0.04,0.99
1697353739.03,-0.08,0.8,1.06,-3.7,1.2,41.6,0.16,-0.02,-0.04,0.99
1697353739.04,-0.21,0.93,1,-5.3,-0.3,41.9,0.15,-0.02,-0.04,0.99
1697353739.05,-0.04,0.97,0.75,-5.1,-1.2,42.1,0.15,-0.02,-0.04,0.99
1697353739.06,-0.21,1.04,1.11,-3.7,-1.7,42.5,0.14,-0.02,-0.04,0.99
