time,accel_x,accel_y,accel_z,gyro_x,gyro_y,gyro_z,quat_w,quat_x,quat_y,quat_z
1697353924.45,-0.27,0.85,0.75,-0.8,1.6,83.6,0.93,0.02,-0.02,-0.37
1697353924.46,-0.14,0.89,0.35,-2,2.1,83.4,0.93,0.02,-0.02,-0.37
1697353924.47,-0.14,0.89,0.35,-2,2.1,83.4,0.93,0.02,-0.02,-0.36
1697353924.48,-0.41,0.97,1.22,-2.3,2.3,83.6,0.94,0.02,-0.02,-0.35
1697353924.49,-0.28,0.99,0.62,-0.8,2,83.6,0.94,0.02,-0.02,-0.35
1697353924.5,-0.33,1.04,0.92,-0.8,2,83.6,0.94,0.02,-0.02,-0.34
1697353924.51,-0.33,1.04,0.92,-0.8,2,83.6,0.94,0.02,-0.02,-0.34
1697353924.52,-0.33,1.04,0.92,-0.8,2,83.6,0.94,0.02,-0.02,-0.34
1697353924.53,-0.33,1.04,0.92,-0.8,2,83.6,0.94,0.02,-0.02,-0.34
1697353924.54,-0.33,1.04,0.92,-0.8,2,83.6,0.94,0.02,-0.02,-0.34
1697353924.55,-0.33,1.04,0.92,-0.8,2,83.6,0.94,0.02,-0.02,-0.34
1697353924.56,-0.33,1.04,0.92,-0.8,2,83.6,0.94,0.02,-0.02,-0.34
1697353924.57,-0.33,1.04,0.92,-0.8,2,83.6,0.94,0.02,-0.02,-0.34
1697353924.58,-0.33,1.04,0.92,-0.8,2,83.6,0.94,0.02,-0.02,-0.34
1697353924.59,-0.33,1.04,0.92,-0.8,2,83.6,0.94,0.02,-0.02,-0.34
1697353924.6,-0.33,1.04,0.92,-0.8,2,83.6,0.94,0.02,-0.02,-0.34
1697353924.61,-0.33,1.04,0.92,-0.8,2,83.6,0.94,0.02,-0.02,-0.34
1697353924.62,-0.33,1.04,0.92,-0.8,2,83.6,0.94,0.02,-0.02,-0.34
1697353924.63,-0.36,0.82,0.99,0.2,3.1,82.2,0.97,0.02,-0.02,-0.24
1697353924.64,-0.34,0.83,0.93,-1,3.7,82.2,0.97,0.02,-0.02,-0.24
1697353924.65,-0.32,0.78,0.96,-1.7,3.9,82.4,0.97,0.02,-0.02,-0.23
1697353924.66,-0.36,0.88,1.12,-1.7,4.1,82.6,0.97,0.02,-0.02,-0.22
1697353924.67,-0.22,0.85,0.9,-0.6,3.9,82.5,0.98,0.02,-0.02,-0.22
1697353924.68,-0.2,0.85,0.87,0,2.8,82.4,0.98,0.02,-0.02,-0.21
1697353924.69,-0.25,0.73,0.92,-0.4,2.1,82.2,0.98,0.02,-0.02,-0.2
1697353924.7,-0.23,0.82,0.82,-1,1.8,82,0.98,0.01,-0.02,-0.19
1697353924.71,-0.32,0.73,0.83,-1.3,1.8,81.3,0.98,0.01,-0.02,-0.19
1697353924.72,-0.27,0.84,0.96,-1,2.1,81,0.98,0.01,-0.02,-0.18
1697353924.73,-0.33,0.73,1.29,-0.8,2.9,80.9,0.98,0.01,-0.02,-0.17
1697353924.74,-0.33,0.73,1.29,-0.8,2.9,80.9,0.98,0.01,-0.02,-0.17
1697353924.75,-0.34,0.71,0.93,-2.7,4.7,80.2,0.99,0.01,-0.02,-0.16
1697353924.76,-0.35,0.65,1.08,-2.7,4.7,80.2,0.99,0.01,-0.02,-0.16
1697353924.77,-0.35,0.65,1.08,-4.7,4.7,79.9,0.99,0.01,-0.02,-0.15
1697353924.78,-0.19,0.8,0.71,-3.8,5.8,79.2,0.99,0.01,-0.02,-0.14
1697353924.79,-0.19,0.8,0.71,-3.8,5.8,79.2,0.99,0.01,-0.02,-0.14
1697353924.8,-0.23,0.75,0.85,-2.3,5.9,78.6,0.99,0.01,-0.02,-0.13
1697353924.81,-0.16,0.79,0.61,1.9,6.2,78.1,0.99,0.01,-0.02,-0.12
1697353924.82,-0.16,0.79,0.61,1.9,6.2,78.1,0.99,0.01,-0.02,-0.12
1697353924.83,-0.29,0.64,0.94,2,5.9,78,0.99,0.01,-0.02,-0.11
1697353924.84,-0.29,0.64,0.94,0.6,5.8,77.6,0.99,0.01,-0.02,-0.1
1697353924.85,-0.22,0.65,0.81,-1.6,5.6,77.5,1,0.01,-0.02,-0.09
1697353924.86,-0.21,0.66,0.99,-2.7,5.6,77.5,1,0.01,-0.02,-0.09
1697353924.87,-0.21,0.68,1.04,-2.9,5.5,77.1,1,0.01,-0.02,-0.08
1697353924.88,-0.21,0.73,0.93,-1.8,5.7,77,1,0.01,-0.01,-0.07
1697353924.89,-0.23,0.69,0.97,-0.3,5.7,76.7,1,0.01,-0.01,-0.07
1697353924.9,-0.22,0.68,1.11,0.4,5.9,76.2,1,0.01,-0.01,-0.06
1697353924.91,-0.05,0.68,0.89,0.4,6,75.8,1,0.01,-0.01,-0.05
1697353924.92,0.19,0.52,0.92,-0.1,5.8,74.3,1,0.01,-0.01,-0.05
1697353924.93,0.07,0.55,1.17,-1.8,5.5,73.2,1,0.01,-0.01,-0.04
1697353924.94,0.27,0.52,1.24,-3,5.5,72.4,1,0.01,-0.01,-0.03
1697353924.95,0.04,0.7,1.06,-2.2,6,72.1,1,0.01,-0.01,-0.03
1697353924.96,-0.02,0.72,1.12,-0.3,6.9,72.6,1,0.01,-0.01,-0.02
1697353924.97,-0.34,0.95,0.89,-0.3,6.9,72.6,1,0.01,-0.01,-0.02
1697353924.98,-0.42,0.77,0.79,2.1,8.8,76.5,1,0.01,-0.01,-0.01
1697353924.99,-0.36,0.79,0.93,1.2,9,78.7,1,0.01,-0.01,-0.01
1697353925,-0.34,0.76,0.97,0.6,8.7,79.7,1,0.01,-0.01,0.01
1697353925.01,-0.27,0.64,1.15,-0.4,8.1,80.4,1,0.01,-0.01,0.02
1697353925.02,-0.27,0.64,1.15,-0.4,8.1,80.4,1,0.01,-0.01,0.02
1697353925.03,-0.27,0.64,1.15,-0.4,8.1,80.4,1,0.01,-0.01,0.02
1697353925.04,-0.27,0.64,1.15,-0.4,8.1,80.4,1,0.01,-0.01,0.02
1697353925.05,-0.27,0.64,1.15,-0.4,8.1,80.4,1,0.01,-0.01,0.02
1697353925.06,-0.27,0.64,1.15,-0.4,8.1,80.4,1,0.01,-0.01,0.02
1697353925.07,-0.27,0.64,1.15,-0.4,8.1,80.4,1,0.01,-0.01,0.02
1697353925.08,-0.27,0.64,1.15,-0.4,8.1,80.4,1,0.01,-0.01,0.02
1697353925.09,-0.27,0.64,1.15,-0.4,8.1,80.4,1,0.01,-0.01,0.02
1697353925.1,-0.27,0.64,1.15,-0.4,8.1,80.4,1,0.01,-0.01,0.02
1697353925.11,-0.27,0.64,1.15,-0.4,8.1,80.4,1,0.01,-0.01,0.02
1697353925.12,-0.27,0.64,1.15,-0.4,8.1,80.4,1,0.01,-0.01,0.02
1697353925.13,-0.27,0.64,1.15,-0.4,8.1,80.4,1,0.01,-0.01,0.02
1697353925.14,-0.27,0.64,1.15,-0.4,8.1,80.4,1,0.01,-0.01,0.02
1697353925.15,-0.27,0.64,1.15,-0.4,8.1,80.4,1,0.01,-0.01,0.02
1697353925.16,-0.1,0.8,1.03,-0.4,8.1,80.4,1,0.01,-0.01,0.02
1697353925.17,-0.2,0.87,0.89,-0.6,4.1,76.7,0.99,0.01,-0,0.12
1697353925.18,-0.29,0.75,1.15,-0.4,4,78.1,0.99,0.01,-0,0.13
1697353925.19,-0.19,0.74,0.77,-0.6,3.4,79.2,0.99,0.01,-0,0.13
1697353925.2,-0.21,0.72,1.12,-0.5,2.8,79.9,0.99,0.01,-0,0.14
1697353925.21,-0.16,0.69,1.18,0,2.1,80.3,0.99,0.01,-0,0.15
1697353925.22,-0.11,0.66,1.09,0.2,1.2,79.8,0.99,0.01,-0,0.15
1697353925.23,0.08,0.73,0.66,0,0.9,79.1,0.99,0.01,-0,0.16
1697353925.24,-0.04,0.66,0.89,-1.4,0,78.3,0.99,0.01,-0,0.17
1697353925.25,0.03,0.68,0.69,-2.5,-0.2,77.4,0.98,0.01,-0,0.17
1697353925.26,-0.1,0.76,0.75,-2.5,-0.5,76.7,0.98,0.01,-0,0.18
1697353925.27,-0.08,0.77,0.49,-2.1,-0.3,76.4,0.98,0.01,-0,0.19
1697353925.28,-0.24,0.87,1.26,-1.2,0,76.5,0.98,0.01,-0,0.19
1697353925.29,-0.26,0.82,0.97,2.1,1.8,77.7,0.98,0.01,-0,0.2
1697353925.3,-0.3,0.73,1,2.9,2.1,78.3,0.98,0.01,-0,0.21
1697353925.31,-0.25,0.69,1.03,2,2.3,78.9,0.98,0.01,-0,0.21
1697353925.32,-0.17,0.63,1.12,0.6,2.2,79.1,0.98,0.01,-0,0.22
1697353925.33,-0.1,0.67,0.98,-0.7,1.9,79.3,0.97,0.01,-0,0.23
1697353925.34,-0.04,0.68,0.8,-1.1,1.2,79,0.97,0.01,-0,0.24
1697353925.35,-0.09,0.77,1.06,-0.7,0.5,78.8,0.97,0.01,-0,0.24
1697353925.36,-0.05,0.73,0.94,-0.3,0.2,78.4,0.97,0.01,-0,0.25
1697353925.37,-0.09,0.73,1.06,-0.7,0.2,77.9,0.97,0.01,-0,0.25
1697353925.38,-0.12,0.75,1.35,-1.2,0.3,77.8,0.96,0.01,-0,0.26
1697353925.39,-0.12,0.75,1.35,-1.2,0.3,77.8,0.96,0.01,-0,0.26
1697353925.4,-0.14,0.83,1.03,-0.6,0.8,78,0.96,0.01,-0,0.28
1697353925.41,-0.23,0.78,1.17,-0.6,0.8,78,0.96,0.01,-0,0.28
1697353925.42,-0.15,0.78,0.87,0.3,1,78.3,0.96,0.01,-0,0.28
1697353925.43,-0.05,0.61,0.85,1.6,1.1,78.4,0.96,0.01,-0,0.29
1697353925.44,0.04,0.68,0.61,1.6,0.7,78.6,0.95,0.01,-0,0.3
1697353925.45,0.04,0.68,0.61,0.2,0.2,78,0.95,0.01,-0,0.3
1697353925.46,-0.23,0.64,1.07,0.2,0.2,78,0.95,0.01,-0,0.31
1697353925.47,-0.13,0.7,1.14,-1,-0.8,77.9,0.95,0.01,-0,0.32
1697353925.48,-0.19,0.76,0.82,-1.5,-1,77.2,0.95,0.01,-0,0.32
1697353925.49,-0.19,0.76,0.82,-1.3,-1.3,77.1,0.94,0.01,-0,0.33
1697353925.5,-0.08,0.83,0.77,-1.6,-0.8,77.4,0.94,0.01,-0,0.34
1697353925.51,-0.08,0.83,0.77,-1.2,-0.2,77.4,0.94,0.01,-0,0.34
1697353925.52,-0.11,0.79,0.7,-0.6,0.5,77.7,0.94,0.01,-0,0.35
1697353925.53,-0.18,0.66,0.94,-0.6,1,78.2,0.93,0.01,-0,0.36
1697353925.54,-0.21,0.54,0.92,-0.7,1.2,78.1,0.93,0.01,-0,0.36
1697353925.55,-0.21,0.54,0.92,-0.7,1.2,78.1,0.93,0.01,-0,0.36
1697353925.56,-0.21,0.54,0.92,-0.7,1.2,78.1,0.93,0.01,-0,0.36
1697353925.57,-0.21,0.54,0.92,-0.7,1.2,78.1,0.93,0.01,-0,0.36
1697353925.58,-0.21,0.54,0.92,-0.7,1.2,78.1,0.93,0.01,-0,0.36
1697353925.59,-0.21,0.54,0.92,-0.7,1.2,78.1,0.93,0.01,-0,0.36
1697353925.6,-0.21,0.54,0.92,-0.7,1.2,78.1,0.93,0.01,-0,0.36
1697353925.61,-0.21,0.54,0.92,-0.7,1.2,78.1,0.93,0.01,-0,0.36
1697353925.62,-0.21,0.54,0.92,-0.7,1.2,78.1,0.93,0.01,-0,0.36
1697353925.63,-0.21,0.54,0.92,-0.7,1.2,78.1,0.93,0.01,-0,0.36
1697353925.64,-0.21,0.54,0.92,-0.7,1.2,78.1,0.93,0.01,-0,0.36
1697353925.65,-0.21,0.54,0.92,-0.7,1.2,78.1,0.93,0.01,-0,0.36
1697353925.66,-0.21,0.54,0.92,-0.7,1.2,78.1,0.93,0.01,-0,0.36
1697353925.67,-0.21,0.54,0.92,-0.7,1.2,78.1,0.93,0.01,-0,0.36
1697353925.68,-0.21,0.54,0.92,-0.7,1.2,78.1,0.93,0.01,-0,0.36
1697353925.69,-0.21,0.54,0.92,-0.7,1.2,78.1,0.93,0.01,-0,0.36
1697353925.7,-0.21,0.54,0.92,-0.7,1.2,78.1,0.93,0.01,-0,0.36
1697353925.71,-0.21,0.54,0.92,-0.7,1.2,78.1,0.93,0.01,-0,0.36
1697353925.72,-0.21,0.54,0.92,-0.7,1.2,78.1,0.93,0.01,-0,0.36
1697353925.73,-0.21,0.54,0.92,-0.7,1.2,78.1,0.93,0.01,-0,0.36
1697353925.74,-0.21,0.54,0.92,-0.7,1.2,78.1,0.93,0.01,-0,0.36
1697353925.75,-0.21,0.54,0.92,-0.7,1.2,78.1,0.93,0.01,-0,0.36
1697353925.76,-0.21,0.54,0.92,-0.7,1.2,78.1,0.93,0.01,-0,0.36
1697353925.77,-0.21,0.54,0.92,-0.7,1.2,78.1,0.93,0.01,-0,0.36
1697353925.78,-0.21,0.54,0.92,-0.7,1.2,78.1,0.93,0.01,-0,0.36
1697353925.79,-0.21,0.54,0.92,-0.7,1.2,78.1,0.93,0.01,-0,0.36
1697353925.8,-0.21,0.54,0.92,-0.7,1.2,78.1,0.93,0.01,-0,0.36
1697353925.81,-0.21,0.54,0.92,-0.7,1.2,78.1,0.93,0.01,-0,0.36
1697353925.82,-0.21,0.54,0.92,-0.7,1.2,78.1,0.93,0.01,-0,0.36
1697353925.83,-0.21,0.54,0.92,-0.7,1.2,78.1,0.93,0.01,-0,0.36
1697353925.84,-0.21,0.54,0.92,-0.7,1.2,78.1,0.93,0.01,-0,0.36
1697353925.85,-0.21,0.54,0.92,-0.7,1.2,78.1,0.93,0.01,-0,0.36
1697353925.86,-0.21,0.54,0.92,-0.7,1.2,78.1,0.93,0.01,-0,0.36
1697353925.87,-0.21,0.54,0.92,-0.7,1.2,78.1,0.93,0.01,-0,0.36
1697353925.88,-0.21,0.54,0.92,-0.7,1.2,78.1,0.93,0.01,-0,0.36
1697353925.89,-0.21,0.54,0.92,-0.7,1.2,78.1,0.93,0.01,-0,0.36
1697353925.9,-0.21,0.54,0.92,-0.7,1.2,78.1,0.93,0.01,-0,0.36
1697353925.91,-0.21,0.54,0.92,-0.7,1.2,78.1,0.93,0.01,-0,0.36
1697353925.92,-0.21,0.54,0.92,-0.7,1.2,78.1,0.93,0.01,-0,0.36
1697353925.93,-0.21,0.54,0.92,-0.7,1.2,78.1,0.93,0.01,-0,0.36
1697353925.94,-0.21,0.54,0.92,-0.7,1.2,78.1,0.93,0.01,-0,0.36
1697353925.95,-0.21,0.54,0.92,-0.7,1.2,78.1,0.93,0.01,-0,0.36
1697353925.96,-0.21,0.54,0.92,-0.7,1.2,78.1,0.93,0.01,-0,0.36
1697353925.97,-0.1,0.56,1.02,-3.2,1.7,75.5,0.78,0,0,0.62
1697353925.98,-0.09,0.63,1.01,-3.8,2.1,74.8,0.78,0,0,0.63
1697353925.99,-0.05,0.65,1.08,-2.5,2.3,73.8,0.78,0,-0,0.63
1697353926,-0.02,0.64,0.84,-0.7,2.4,72.9,0.77,0,0,0.64
1697353926.01,-0.06,0.6,0.84,1,2.2,72.1,0.77,0,0,0.64
1697353926.02,0.08,0.58,1.09,1.3,2.2,71.8,0.77,0,0,0.64
1697353926.03,-0.06,0.54,1.3,1.5,1.7,71.1,0.76,0,0,0.65
1697353926.04,-0.06,0.54,1.3,1.5,1.7,71.1,0.76,0,0,0.65
1697353926.05,-0.04,0.66,0.61,-0.1,0.5,70.5,0.75,0,0,0.66
1697353926.06,-0.04,0.66,0.61,-0.1,0.5,70.5,0.75,0,0,0.66
1697353926.07,-0.11,0.64,0.74,-1.7,-1.1,71.1,0.75,0,0,0.66
1697353926.08,-0.11,0.64,0.74,-1.7,-1.1,71.1,0.74,0,0,0.67
1697353926.09,-0.01,0.76,0.89,-0.6,1,71.8,0.74,0,0,0.67
1697353926.1,-0.04,0.72,1.19,1.8,1,72,0.73,0,0,0.68
1697353926.11,-0.02,0.65,0.87,1.8,1,72,0.73,0,0,0.68
1697353926.12,-0.02,0.65,0.87,3.4,1.8,72,0.73,0,0,0.69
1697353926.13,0.05,0.58,1.25,2.8,1.5,71.9,0.72,0,0,0.69
1697353926.14,-0.07,0.47,1.06,-0.8,1.8,71,0.72,0,0,0.7
1697353926.15,-0.07,0.47,1.06,-2.1,1.5,70.3,0.71,0,0,0.7
1697353926.16,0.12,0.51,0.89,-2.2,0.9,69.3,0.71,0,0,0.71
1697353926.17,0.12,0.51,0.89,-1.2,0.4,67.9,0.7,0,0,0.71
1697353926.18,0.13,0.54,1.17,0.1,0,66.3,0.7,0,0,0.72
1697353926.19,0.03,0.45,1.29,0.9,-0.3,64,0.7,0,0,0.72
1697353926.2,0.08,0.27,0.88,-0.1,-0.4,60.9,0.69,0,0,0.72
1697353926.21,0.18,0.17,0.55,-1.7,-1.2,58.2,0.69,0,0,0.73
1697353926.22,0.15,0.21,1.35,-1.7,-1.2,58.2,0.69,0,0,0.73
1697353926.23,0.21,0.35,1.08,-2.8,-1.7,55.3,0.68,0,0,0.73
1697353926.24,0.11,0.25,0.78,-3.3,-2.2,52.8,0.68,0,0,0.74
1697353926.25,0.19,0.28,0.94,-3.1,-2.3,50.6,0.67,0,-0,0.74
1697353926.26,0.09,0.28,1.09,-2.9,-2.4,48.8,0.67,0,-0,0.74
1697353926.27,0.11,0.21,1.12,-2.3,-2.5,47.3,0.67,0,-0,0.75
1697353926.28,0.1,0.19,1.18,-2,-2.1,45.8,0.66,0,-0,0.75
1697353926.29,0.12,0.08,1.03,-2.6,-1.6,44.6,0.66,-0,-0,0.75
1697353926.3,0.09,-0.01,1.01,-4.2,-0.6,42.8,0.66,-0,-0,0.75
1697353926.31,0.14,0.04,0.88,-5.7,0.2,40.9,0.65,-0,-0,0.76
1697353926.32,0.03,0.07,1.24,-5.5,0.8,38.8,0.65,-0,-0,0.76
1697353926.33,0.09,0.06,1.02,-2.7,0.9,36.5,0.65,-0,-0,0.76
1697353926.34,0.13,-0.04,1.2,-0.3,0.8,34.1,0.65,-0,-0,0.76
1697353926.35,0.13,-0.04,1.2,-0.3,0.8,34.1,0.65,-0,-0,0.76
1697353926.36,0.13,-0.04,1.2,-0.3,0.8,34.1,0.65,-0,-0,0.76
1697353926.37,0.13,-0.04,1.2,-0.3,0.8,34.1,0.65,-0,-0,0.76
1697353926.38,0.13,-0.04,1.2,-0.3,0.8,34.1,0.65,-0,-0,0.76
1697353926.39,0.13,-0.04,1.2,-0.3,0.8,34.1,0.65,-0,-0,0.76
1697353926.4,0.13,-0.04,1.2,-0.3,0.8,34.1,0.65,-0,-0,0.76
1697353926.41,0.13,-0.04,1.2,-0.3,0.8,34.1,0.65,-0,-0,0.76
1697353926.42,0.13,-0.04,1.2,-0.3,0.8,34.1,0.65,-0,-0,0.76
1697353926.43,0.13,-0.04,1.2,-0.3,0.8,34.1,0.65,-0,-0,0.76
1697353926.44,0.13,-0.04,1.2,-0.3,0.8,34.1,0.65,-0,-0,0.76
1697353926.45,0.13,-0.04,1.2,-0.3,0.8,34.1,0.65,-0,-0,0.76
1697353926.46,0.13,-0.04,1.2,-0.3,0.8,34.1,0.65,-0,-0,0.76
1697353926.47,0.13,-0.04,1.2,-0.3,0.8,34.1,0.65,-0,-0,0.76
1697353926.48,0.13,-0.04,1.2,-0.3,0.8,34.1,0.65,-0,-0,0.76
1697353926.49,0.13,-0.04,1.2,-0.3,0.8,34.1,0.65,-0,-0,0.76
1697353926.5,0.13,-0.04,1.2,-0.3,0.8,34.1,0.65,-0,-0,0.76
1697353926.51,0.13,-0.04,1.2,-0.3,0.8,34.1,0.65,-0,-0,0.76
1697353926.52,0.13,-0.04,1.2,-0.3,0.8,34.1,0.65,-0,-0,0.76
1697353926.53,0.13,-0.04,1.2,-1,-0.4,-9.2,0.64,-0,-0.01,0.77
1697353926.54,0.15,-0.58,0.94,-2.3,-0.5,-11,0.64,-0,-0.01,0.77
1697353926.55,-0.05,-0.62,1.18,-3.1,-0.3,-13.2,0.64,-0,-0.01,0.77
1697353926.56,0.21,-0.48,0.56,-4.2,0.2,-15.1,0.64,-0,-0.01,0.77
1697353926.57,0.11,-0.48,1.07,-4,1.3,-16.7,0.64,-0,-0.01,0.77
1697353926.58,-0.05,-0.72,1.1,-1.6,1.5,-18.9,0.64,-0,-0.01,0.77
1697353926.59,-0.04,-0.71,0.87,0.3,1.9,-21.8,0.64,-0,-0.01,0.76
1697353926.6,0.04,-0.86,1.06,0,2.2,-25,0.65,-0,-0.01,0.76
1697353926.61,0.07,-0.66,1.07,-1.3,1.8,-28.6,0.65,-0,-0.01,0.76
1697353926.62,0.08,-0.66,1.02,-3.6,1.6,-32.4,0.65,-0,-0.01,0.76
1697353926.63,0.15,-0.47,1,-3.2,0.9,-35.5,0.65,-0,-0.01,0.76
1697353926.64,-0.01,-0.42,1.09,-1.4,0.3,-37.3,0.66,-0,-0.01,0.75
1697353926.65,0.09,-0.43,1,0.8,-0.4,-37.8,0.66,-0,-0.01,0.75
1697353926.66,0.12,-0.42,1.08,2.9,-1.2,-38.1,0.66,-0,-0.01,0.75
1697353926.67,0.14,-0.51,1.07,2.9,-1.2,-38.1,0.66,-0,-0.01,0.75
1697353926.68,0.04,-0.61,1.08,2.7,-2.3,-36.8,0.67,-0,-0.01,0.75
1697353926.69,0.03,-0.6,0.99,0.2,-2.4,-36.2,0.67,-0,-0.01,0.74
1697353926.7,0.1,-0.47,1.03,-2.1,-2,-35.5,0.67,-0,-0.01,0.74
1697353926.71,0.02,-0.45,1.11,-3,-1.3,-35.1,0.67,-0,-0.01,0.74
1697353926.72,-0.04,-0.45,1.08,-1.8,-0.4,-34.8,0.67,-0,-0.01,0.74
1697353926.73,0.02,-0.46,0.91,-0.7,0.3,-35.1,0.68,-0,-0.01,0.74
1697353926.74,0.2,-0.45,1.06,-0.7,0.3,-35.1,0.68,-0,-0.01,0.74
1697353926.75,0.09,-0.31,1.19,-0.4,1.5,-36,0.68,-0,-0.01,0.73
1697353926.76,0.13,-0.4,0.95,1.6,1.1,-36.6,0.68,-0,-0.01,0.73
1697353926.77,0.26,-0.58,0.92,2.7,1.2,-37,0.69,-0,-0.01,0.73
1697353926.78,0.2,-0.52,1.08,2,0.6,-37.7,0.69,-0,-0.01,0.72
1697353926.79,0.16,-0.51,0.7,2,0.6,-37.7,0.69,-0,-0.01,0.72
1697353926.8,0.2,-0.29,0.93,-0.4,-1,-39.1,0.69,-0,-0.01,0.72
1697353926.81,0.17,-0.49,0.85,-0.4,-1,-39.1,0.7,-0,-0.01,0.72
1697353926.82,0.17,-0.49,0.85,0.8,-1.7,-38.8,0.7,-0,-0.01,0.72
1697353926.83,0.11,-0.4,1.16,2,-2.2,-39,0.7,-0,-0.01,0.71
1697353926.84,0.21,-0.5,0.99,2.2,-2.6,-38.9,0.7,-0,-0.01,0.71
1697353926.85,0.1,-0.64,0.79,1,-2.7,-38.7,0.7,-0,-0.01,0.71
1697353926.86,0.02,-0.54,1.02,-0.6,-2.5,-38.7,0.71,-0,-0.01,0.71
1697353926.87,0.17,-0.44,0.95,-1.6,-2.2,-38.6,0.71,-0,-0.01,0.7
1697353926.88,0.03,-0.51,1.25,-0.2,-1.2,-38.7,0.71,-0,-0.01,0.7
1697353926.89,0.06,-0.46,1.01,0.4,-0.6,-39.1,0.71,-0,-0.01,0.7
1697353926.9,0.15,-0.48,1,0,-0.9,-39.3,0.72,-0,-0.01,0.7
1697353926.91,0.15,-0.53,0.74,-0.3,-0.7,-39.8,0.72,-0,-0.01,0.69
1697353926.92,-0.01,-0.66,1.05,-1.5,0.8,-40.4,0.72,-0,-0.01,0.69
1697353926.93,-0.01,-0.66,1.05,-1.5,0.8,-40.4,0.72,-0,-0.01,0.69
1697353926.94,-0.01,-0.66,1.05,-1.5,0.8,-40.4,0.72,-0,-0.01,0.69
1697353926.95,-0.01,-0.66,1.05,-1.5,0.8,-40.4,0.72,-0,-0.01,0.69
1697353926.96,-0.01,-0.66,1.05,-1.5,0.8,-40.4,0.72,-0,-0.01,0.69
1697353926.97,-0.01,-0.66,1.05,-1.5,0.8,-40.4,0.72,-0,-0.01,0.69
1697353926.98,-0.01,-0.66,1.05,-1.5,0.8,-40.4,0.72,-0,-0.01,0.69
1697353926.99,-0.01,-0.66,1.05,-1.5,0.8,-40.4,0.72,-0,-0.01,0.69
1697353927,-0.01,-0.66,1.05,-1.5,0.8,-40.4,0.72,-0,-0.01,0.69
1697353927.01,-0.01,-0.66,1.05,-1.5,0.8,-40.4,0.72,-0,-0.01,0.69
1697353927.02,-0.01,-0.66,1.05,-1.5,0.8,-40.4,0.72,-0,-0.01,0.69
1697353927.03,-0.01,-0.66,1.05,-1.5,0.8,-40.4,0.72,-0,-0.01,0.69
1697353927.04,-0.01,-0.66,1.05,-1.5,0.8,-40.4,0.72,-0,-0.01,0.69
1697353927.05,-0.01,-0.66,1.05,-1.5,0.8,-40.4,0.72,-0,-0.01,0.69
1697353927.06,-0.01,-0.66,1.05,-1.5,0.8,-40.4,0.72,-0,-0.01,0.69
1697353927.07,-0.01,-0.66,1.05,-1.5,0.8,-40.4,0.72,-0,-0.01,0.69
1697353927.08,-0.01,-0.66,1.05,-1.5,0.8,-40.4,0.72,-0,-0.01,0.69
1697353927.09,-0.01,-0.66,1.05,-1.5,0.8,-40.4,0.72,-0,-0.01,0.69
1697353927.1,-0.01,-0.66,1.05,-1.5,0.8,-40.4,0.72,-0,-0.01,0.69
1697353927.11,-0.01,-0.66,1.05,-1.5,0.8,-40.4,0.72,-0,-0.01,0.69
1697353927.12,-0.01,-0.66,1.05,-1.5,0.8,-40.4,0.72,-0,-0.01,0.69
1697353927.13,-0.01,-0.66,1.05,-1.5,0.8,-40.4,0.72,-0,-0.01,0.69
1697353927.14,-0.01,-0.66,1.05,-1.5,0.8,-40.4,0.72,-0,-0.01,0.69
1697353927.15,-0.01,-0.66,1.05,-1.5,0.8,-40.4,0.72,-0,-0.01,0.69
1697353927.16,-0.01,-0.66,1.05,-1.5,0.8,-40.4,0.72,-0,-0.01,0.69
1697353927.17,-0.01,-0.66,1.05,-1.5,0.8,-40.4,0.72,-0,-0.01,0.69
1697353927.18,-0.01,-0.66,1.05,-1.5,0.8,-40.4,0.72,-0,-0.01,0.69
1697353927.19,-0.01,-0.66,1.05,-1.5,0.8,-40.4,0.72,-0,-0.01,0.69
1697353927.2,-0.01,-0.66,1.05,-1.5,0.8,-40.4,0.72,-0,-0.01,0.69
1697353927.21,-0.01,-0.66,1.05,-1.5,0.8,-40.4,0.72,-0,-0.01,0.69
1697353927.22,-0.01,-0.66,1.05,-1.5,0.8,-40.4,0.72,-0,-0.01,0.69
1697353927.23,-0.01,-0.66,1.05,-1.5,0.8,-40.4,0.72,-0,-0.01,0.69
1697353927.24,-0.01,-0.66,1.05,-1.5,0.8,-40.4,0.72,-0,-0.01,0.69
1697353927.25,-0.01,-0.66,1.05,-1.5,0.8,-40.4,0.72,-0,-0.01,0.69
1697353927.26,-0.01,-0.66,1.05,-1.5,0.8,-40.4,0.72,-0,-0.01,0.69
1697353927.27,-0.01,-0.66,1.05,-1.5,0.8,-40.4,0.72,-0,-0.01,0.69
1697353927.28,-0.01,-0.66,1.05,-1.5,0.8,-40.4,0.72,-0,-0.01,0.69
1697353927.29,-0.01,-0.66,1.05,-1.5,0.8,-40.4,0.72,-0,-0.01,0.69
1697353927.3,-0.01,-0.66,1.05,-1.5,0.8,-40.4,0.72,-0,-0.01,0.69
1697353927.31,-0.01,-0.66,1.05,-1.5,0.8,-40.4,0.72,-0,-0.01,0.69
1697353927.32,-0.01,-0.66,1.05,-1.5,0.8,-40.4,0.72,-0,-0.01,0.69
1697353927.33,-0.01,-0.66,1.05,-1.5,0.8,-40.4,0.72,-0,-0.01,0.69
1697353927.34,0.11,-0.57,0.91,-0.2,-1,-49.5,0.83,-0,-0.01,0.55
1697353927.35,0.09,-0.66,1.04,-0.2,-0.9,-49,0.84,-0,-0.01,0.55
1697353927.36,0.14,-0.72,0.88,-1.8,-1.1,-48.4,0.84,-0,-0.01,0.55
1697353927.37,0.16,-0.75,0.84,-2.7,-0.9,-48.5,0.84,-0,-0.01,0.54
1697353927.38,0.13,-0.64,0.8,-2.2,-0.6,-48.4,0.84,-0,-0.01,0.54
1697353927.39,0.24,-0.52,1.1,-0.8,-0.4,-48,0.84,-0,-0.01,0.54
1697353927.4,-0.09,-0.73,0.96,0.1,0.5,-48.1,0.85,-0,-0.01,0.53
1697353927.41,-0.06,-0.6,1.07,0,1.2,-48.3,0.85,-0,-0.01,0.53
1697353927.42,0.16,-0.72,1.02,0,1.2,-48.3,0.85,-0,-0.01,0.52
1697353927.43,0.01,-0.82,0.96,-2.1,2,-48.7,0.85,-0,-0.01,0.52
1697353927.44,0.21,-0.63,0.93,-3.9,2.5,-49.7,0.85,-0,-0.01,0.52
1697353927.45,0.16,-0.61,1.03,-4.1,2.7,-50.2,0.86,-0,-0.01,0.51
1697353927.46,0.02,-0.46,1.03,-1.2,2.1,-50.5,0.86,-0,-0.01,0.51
1697353927.47,0.22,-0.62,0.92,2.8,1.6,-50.5,0.86,-0,-0.01,0.51
1697353927.48,0.08,-0.82,1.18,4.4,1.2,-50.6,0.86,-0,-0.01,0.5
1697353927.49,0.24,-0.92,0.83,4.4,1.2,-50.6,0.86,-0,-0.01,0.5
1697353927.5,0.25,-0.64,0.7,0.8,0.5,-50.5,0.87,-0,-0.01,0.5
1697353927.51,0.25,-0.64,0.7,-4.7,0.4,-50.4,0.87,-0,-0.01,0.49
1697353927.52,0.1,-0.43,1.27,-6.5,0.4,-49.6,0.87,-0,-0.01,0.49
1697353927.53,0.18,-0.49,0.96,-3.4,0.3,-48.4,0.87,-0,-0.01,0.49
1697353927.54,0.13,-0.63,1.07,2.1,0.3,-47.2,0.88,-0,-0.01,0.48
1697353927.55,0.16,-0.77,0.83,0.1,0.2,-46.8,0.88,-0,-0.01,0.48
1697353927.56,0.13,-0.85,1.08,-3,0.1,-47.1,0.88,-0,-0.01,0.47
1697353927.57,0.11,-0.68,0.98,-3.6,0.2,-47.4,0.88,-0,-0.01,0.47
1697353927.58,0.29,-0.59,0.64,-3.2,0,-46.9,0.88,-0,-0.01,0.47
1697353927.59,-0.11,-0.61,0.88,-1.2,0,-47,0.89,-0,-0.01,0.46
1697353927.6,0.26,-0.53,0.98,1.1,-0.3,-46.8,0.89,-0,-0.01,0.46
1697353927.61,0.07,-0.66,0.86,1.8,0,-46.7,0.89,-0,-0.01,0.46
1697353927.62,0.09,-0.72,1.12,0.8,0.3,-46.7,0.89,-0,-0.01,0.45
1697353927.63,0.11,-0.78,0.9,-0.9,0.7,-47.1,0.89,-0,-0.01,0.45
1697353927.64,0.13,-0.72,1.03,-2.6,0.9,-47.4,0.9,-0,-0.01,0.44
1697353927.65,0.15,-0.51,1.02,-1.5,1.6,-47.5,0.9,-0,-0.01,0.44
1697353927.66,0.15,-0.51,1.02,-1.5,1.6,-47.5,0.9,-0,-0.01,0.44
1697353927.67,0.07,-0.61,1.16,2.4,4.1,-47.3,0.9,-0,-0.01,0.43
1697353927.68,-0.02,-0.85,1.31,1.3,4.6,-47.9,0.9,-0,-0.01,0.43
1697353927.69,0.09,-0.87,0.93,-1.7,5.1,-48.7,0.91,-0,-0.01,0.42
1697353927.7,0.11,-0.92,1.22,-5,4.2,-49.4,0.91,-0,-0.01,0.42
1697353927.71,0.11,-0.92,1.22,-5,4.2,-49.4,0.91,-0,-0.01,0.42
1697353927.72,0.11,-0.92,1.22,-5,4.2,-49.4,0.91,-0,-0.01,0.42
1697353927.73,0.11,-0.92,1.22,-5,4.2,-49.4,0.91,-0,-0.01,0.42
1697353927.74,0.11,-0.92,1.22,-5,4.2,-49.4,0.91,-0,-0.01,0.42
1697353927.75,0.11,-0.92,1.22,-5,4.2,-49.4,0.91,-0,-0.01,0.42
1697353927.76,0.11,-0.92,1.22,-5,4.2,-49.4,0.91,-0,-0.01,0.42
1697353927.77,0.11,-0.92,1.22,-5,4.2,-49.4,0.91,-0,-0.01,0.42
1697353927.78,0.11,-0.92,1.22,-5,4.2,-49.4,0.91,-0,-0.01,0.42
1697353927.79,0.11,-0.92,1.22,-5,4.2,-49.4,0.91,-0,-0.01,0.42
1697353927.8,0.11,-0.92,1.22,-5,4.2,-49.4,0.91,-0,-0.01,0.42
1697353927.81,0.11,-0.92,1.22,-5,4.2,-49.4,0.91,-0,-0.01,0.42
1697353927.82,0.11,-0.92,1.22,-5,4.2,-49.4,0.91,-0,-0.01,0.42
1697353927.83,0.11,-0.92,1.22,-5,4.2,-49.4,0.91,-0,-0.01,0.42
1697353927.84,0.11,-0.92,1.22,-5,4.2,-49.4,0.91,-0,-0.01,0.42
1697353927.85,0.11,-0.92,1.22,-5,4.2,-49.4,0.91,-0,-0.01,0.42
1697353927.86,0.11,-0.92,1.22,-5,4.2,-49.4,0.91,-0,-0.01,0.42
1697353927.87,0.11,-0.92,1.22,-5,4.2,-49.4,0.91,-0,-0.01,0.42
1697353927.88,0.11,-0.92,1.22,-5,4.2,-49.4,0.91,-0,-0.01,0.42
1697353927.89,0.11,-0.92,1.22,-5,4.2,-49.4,0.91,-0,-0.01,0.42
1697353927.9,0.11,-0.92,1.22,-5,4.2,-49.4,0.91,-0,-0.01,0.42
1697353927.91,0.11,-0.92,1.22,-5,4.2,-49.4,0.91,-0,-0.01,0.42
1697353927.92,0.11,-0.92,1.22,-5,4.2,-49.4,0.91,-0,-0.01,0.42
1697353927.93,0.11,-0.92,1.22,-5,4.2,-49.4,0.91,-0,-0.01,0.42
1697353927.94,0.11,-0.92,1.22,-5,4.2,-49.4,0.91,-0,-0.01,0.42
1697353927.95,0.11,-0.92,1.22,-5,4.2,-49.4,0.91,-0,-0.01,0.42
1697353927.96,0.11,-0.92,1.22,-5,4.2,-49.4,0.91,-0,-0.01,0.42
1697353927.97,0.11,-0.92,1.22,-5,4.2,-49.4,0.91,-0,-0.01,0.42
1697353927.98,0.11,-0.92,1.22,-5,4.2,-49.4,0.91,-0,-0.01,0.42
1697353927.99,0.11,-0.92,1.22,-5,4.2,-49.4,0.91,-0,-0.01,0.42
1697353928,0.11,-0.92,1.22,-5,4.2,-49.4,0.91,-0,-0.01,0.42
1697353928.01,0.11,-0.92,1.22,-5,4.2,-49.4,0.91,-0,-0.01,0.42
1697353928.02,0.19,-0.34,0.87,-1,2.5,-36.2,0.95,-0,-0.01,0.31
1697353928.03,0.09,-0.55,0.92,2.1,3,-36,0.95,-0,-0.01,0.3
1697353928.04,-0.09,-0.73,0.74,3.8,3.8,-36.1,0.95,-0,-0.01,0.3
1697353928.05,0.13,-0.78,1.1,2.3,4.1,-36.6,0.95,-0,-0.01,0.3
1697353928.06,0.15,-0.59,0.98,-0.9,3.8,-37.9,0.96,-0,-0.01,0.29
1697353928.07,0.19,-0.54,1.03,-1.8,3.7,-38.7,0.96,-0,-0.01,0.29
1697353928.08,0.12,-0.52,0.86,2.1,3.9,-39.3,0.96,-0,-0.01,0.29
1697353928.09,0.18,-0.56,0.96,5.4,4,-39.3,0.96,-0,-0.01,0.29
1697353928.1,-0.05,-0.71,1.24,9.4,4.4,-39.5,0.96,0,-0.01,0.28
1697353928.11,0.06,-0.81,0.99,10.1,5.7,-39.5,0.96,0,-0.01,0.28
1697353928.12,-0.01,-0.94,1.33,7.9,7.2,-39.3,0.96,0,-0.01,0.27
1697353928.13,0.23,-0.75,1.13,1.9,8.1,-38.9,0.96,0,-0.01,0.27
1697353928.14,0.23,-0.75,1.13,1.9,8.1,-38.9,0.96,0,-0.01,0.27
1697353928.15,0.17,-0.32,1.15,-4.4,6.8,-37.5,0.96,-0,-0,0.26
1697353928.16,0.17,-0.36,1.08,-4.4,6.8,-37.5,0.96,-0,-0,0.26
1697353928.17,0.18,-0.48,0.7,1.3,1.9,-35.5,0.97,0,-0,0.26
1697353928.18,0.21,-0.59,0.58,1.3,1.9,-35.5,0.97,0,-0,0.26
1697353928.19,0.21,-0.59,0.58,1.7,-2.9,-33.8,0.97,0,-0,0.25
1697353928.2,0.31,-0.47,0.8,0.8,-5.4,-32.7,0.97,0,-0,0.25
1697353928.21,0.31,-0.47,0.8,0.8,-5.4,-32.7,0.97,0,-0.01,0.25
1697353928.22,0.15,-0.41,1.06,4.2,-4.9,-31.6,0.97,0,-0.01,0.24
1697353928.23,0.29,-0.52,1.11,3.8,-3.7,-31.2,0.97,0,-0.01,0.24
1697353928.24,0.29,-0.52,1.11,3.8,-3.7,-31.2,0.97,0,-0.01,0.24
1697353928.25,0.12,-0.41,1,1,-0.7,-33,0.97,0,-0.01,0.24
1697353928.26,0.08,-0.68,1.09,1,-0.7,-33,0.97,0,-0.01,0.24
1697353928.27,0.08,-0.68,1.09,1.5,1.2,-35.6,0.97,0,-0.01,0.23
1697353928.28,0.01,-0.31,0.97,0.9,3,-36.4,0.97,0,-0.01,0.23
1697353928.29,0.08,-0.53,1.07,1.8,3.8,-38.1,0.97,0,-0.01,0.23
1697353928.3,0,-0.52,1.16,0,3.8,-38.8,0.97,0,-0.01,0.22
1697353928.31,0.26,-0.48,1,-2,3,-38.6,0.98,0,-0.01,0.22
1697353928.32,0.27,-0.53,1.33,-3.4,1.5,-38.3,0.98,0,-0.01,0.22
1697353928.33,0.36,-0.32,0.9,-3.8,0,-36.9,0.98,0,-0.01,0.21
1697353928.34,0.43,-0.62,0.99,-2.4,-1,-35.6,0.98,0,-0.01,0.21
1697353928.35,0.32,-0.4,0.66,-2.5,-1.9,-32.9,0.98,0,-0.01,0.21
1697353928.36,0.07,-0.56,1.11,-3.4,-1.7,-32,0.98,0,-0.01,0.2
1697353928.37,0.19,-0.54,0.84,-5.7,-1.7,-30.9,0.98,0,-0.01,0.2
1697353928.38,0.07,-0.34,1.18,-4,-1.3,-29.8,0.98,0,-0.01,0.2
1697353928.39,0.04,-0.24,0.91,0.3,0.1,-28.4,0.98,0,-0.01,0.2
1697353928.4,0.08,-0.28,0.85,5.8,1.8,-27.9,0.98,0,-0.01,0.19
1697353928.41,-0.07,-0.52,0.99,7.6,3.9,-27.6,0.98,0,-0.01,0.19
1697353928.42,-0.07,-0.52,0.99,7.6,3.9,-27.6,0.98,0,-0.01,0.19
1697353928.43,-0.07,-0.52,0.99,7.6,3.9,-27.6,0.98,0,-0.01,0.19
1697353928.44,-0.07,-0.52,0.99,7.6,3.9,-27.6,0.98,0,-0.01,0.19
1697353928.45,-0.07,-0.52,0.99,7.6,3.9,-27.6,0.98,0,-0.01,0.19
1697353928.46,-0.07,-0.52,0.99,7.6,3.9,-27.6,0.98,0,-0.01,0.19
1697353928.47,-0.07,-0.52,0.99,7.6,3.9,-27.6,0.98,0,-0.01,0.19
1697353928.48,-0.07,-0.52,0.99,7.6,3.9,-27.6,0.98,0,-0.01,0.19
1697353928.49,-0.07,-0.52,0.99,7.6,3.9,-27.6,0.98,0,-0.01,0.19
1697353928.5,-0.07,-0.52,0.99,7.6,3.9,-27.6,0.98,0,-0.01,0.19
1697353928.51,-0.07,-0.52,0.99,7.6,3.9,-27.6,0.98,0,-0.01,0.19
1697353928.52,-0.07,-0.52,0.99,7.6,3.9,-27.6,0.98,0,-0.01,0.19
1697353928.53,-0.07,-0.52,0.99,7.6,3.9,-27.6,0.98,0,-0.01,0.19
1697353928.54,-0.07,-0.52,0.99,7.6,3.9,-27.6,0.98,0,-0.01,0.19
1697353928.55,0.19,-0.07,0.99,0.7,1.6,-15.8,0.99,0,-0,0.16
1697353928.56,0.09,-0.29,0.93,0.7,1.6,-15.8,0.99,0,-0,0.16
1697353928.57,0.21,0.27,0.82,1.5,2.9,-14,0.99,0,-0,0.16
1697353928.58,0.19,-0.14,1.01,1.5,2.9,-14,0.99,0,-0,0.16
1697353928.59,0.16,0.01,0.84,2.5,3.9,-12.3,0.99,0,0,0.16
1697353928.6,0.16,0.01,0.84,4.6,4,-11,0.99,0,0,0.16
1697353928.61,0.22,-0.11,0.91,4.1,4.2,-10.8,0.99,0,0,0.15
1697353928.62,0.22,-0.11,0.91,2.9,4,-10.6,0.99,0,0,0.15
1697353928.63,0.17,-0.15,0.98,0.7,3.4,-10.3,0.99,0,0,0.15
1697353928.64,0.17,0.16,1.04,-1.6,3.2,-9.8,0.99,0,0,0.15
1697353928.65,0.23,0.04,0.73,-2.1,2.6,-8.3,0.99,0,0,0.15
1697353928.66,0.22,0.05,1.17,-0.7,1.1,-6.8,0.99,0,0,0.15
1697353928.67,0.32,-0.02,0.95,-0.6,0.5,-6.1,0.99,0,0,0.15
1697353928.68,0.14,-0.05,1.13,1,-0.5,-6.2,0.99,0,0,0.15
1697353928.69,0.2,-0.11,1.08,1,-0.6,-5.7,0.99,0,0,0.15
1697353928.7,0.18,-0.13,0.95,1.2,-1,-5.9,0.99,0,0,0.15
1697353928.71,0.15,-0.18,1.02,0.9,-1,-5.9,0.99,0,0,0.15
1697353928.72,0.23,-0.36,0.94,2.8,-0.6,-7.4,0.99,0,0,0.15
1697353928.73,0.23,0.08,0.79,0.7,-1,-7.2,0.99,0,0,0.15
1697353928.74,0.11,-0.4,1.09,0.1,-0.4,-7.9,0.99,0,0,0.15
1697353928.75,0.24,-0,0.58,0.2,-0.2,-8,0.99,0,0,0.15
1697353928.76,0.25,-0.12,1,-0.7,-0.4,-7.2,0.99,0,0,0.14
1697353928.77,0.18,-0.01,0.98,0.7,-0.9,-7.2,0.99,0,0,0.14
1697353928.78,0.2,-0.09,0.85,1.3,-1.8,-6.8,0.99,0,0,0.14
1697353928.79,0.21,-0.14,1.18,1.1,-2.5,-6.7,0.99,0,0,0.14
1697353928.8,0.22,-0.16,1,0.2,-3.3,-6.7,0.99,0,0,0.14
1697353928.81,0.14,-0.15,1.07,-0.8,-3.2,-6.6,0.99,0,0,0.14
1697353928.82,0.15,-0.09,0.95,-1.3,-2.6,-6.8,0.99,0,0,0.14
1697353928.83,0.07,-0.07,0.93,-1.2,-1.2,-6.5,0.99,0,-0,0.14
1697353928.84,0.12,-0.18,1.01,-1.2,-1.2,-6.5,0.99,0,-0,0.14
1697353928.85,0.17,-0.13,1.11,-0.4,0.4,-6.6,0.99,0,-0,0.14
1697353928.86,0.23,-0.15,0.95,-0.2,1.5,-7.1,0.99,0,-0,0.14
1697353928.87,0.11,-0.19,1.2,-0.8,1.7,-7.4,0.99,0,-0,0.14
1697353928.88,0.36,-0.22,0.82,-2.4,2.6,-8.2,0.99,0,0,0.14
1697353928.89,0.36,-0.22,0.82,-2.4,2.6,-8.2,0.99,0,0,0.14
1697353928.9,0.2,0.13,1.11,-2.7,2.1,-8.6,0.99,0,0,0.14
1697353928.91,0.18,-0.02,0.95,-1.6,1.2,-7.1,0.99,0,0,0.14
1697353928.92,0.18,-0.02,0.95,-1.6,1.2,-7.1,0.99,0,0,0.14
1697353928.93,0.18,-0.02,0.95,-1.6,1.2,-7.1,0.99,0,0,0.14
1697353928.94,0.18,-0.02,0.95,-1.6,1.2,-7.1,0.99,0,0,0.14
1697353928.95,0.18,-0.02,0.95,-1.6,1.2,-7.1,0.99,0,0,0.14
1697353928.96,0.18,-0.02,0.95,-1.6,1.2,-7.1,0.99,0,0,0.14
1697353928.97,0.18,-0.02,0.95,-1.6,1.2,-7.1,0.99,0,0,0.14
1697353928.98,0.18,-0.02,0.95,-1.6,1.2,-7.1,0.99,0,0,0.14
1697353928.99,0.18,-0.02,0.95,-1.6,1.2,-7.1,0.99,0,0,0.14
1697353929,0.18,-0.02,0.95,-1.6,1.2,-7.1,0.99,0,0,0.14
1697353929.01,0.18,-0.02,0.95,-1.6,1.2,-7.1,0.99,0,0,0.14
1697353929.02,0.18,-0.02,0.95,-1.6,1.2,-7.1,0.99,0,0,0.14
1697353929.03,0.18,-0.02,0.95,-1.6,1.2,-7.1,0.99,0,0,0.14
1697353929.04,0.18,-0.02,0.95,-1.6,1.2,-7.1,0.99,0,0,0.14
1697353929.05,0.09,0.26,0.96,-4.9,-3,0.6,0.99,0,-0,0.13
1697353929.06,0.14,0.32,1.05,-5,-2,1.2,0.99,0,-0,0.13
1697353929.07,0.16,0.36,1.04,-2.4,-0.9,1.6,0.99,0,-0,0.13
1697353929.08,0.07,0.08,1.19,2.1,-0.1,1.8,0.99,0,-0,0.13
1697353929.09,0.16,-0.06,1.16,3.6,0.9,1.5,0.99,0,-0,0.13
1697353929.1,0.21,-0.14,1.07,1,2,1.4,0.99,0,-0,0.13
1697353929.11,0.21,-0.18,1.04,-1.5,2.7,1,0.99,0,-0,0.13
1697353929.12,0.16,0.26,1.02,-3.9,2.7,0.5,0.99,0,-0,0.13
1697353929.13,0.19,0.18,0.99,-2,3.3,0.6,0.99,0,-0,0.13
1697353929.14,0.25,-0.04,1.04,3,2.9,0.9,0.99,0,-0,0.13
1697353929.15,0.31,-0.06,0.88,3.5,1.9,0.1,0.99,0,-0,0.13
1697353929.16,0.31,0.04,0.73,0.7,0.8,0.3,0.99,0,-0,0.13
1697353929.17,0.1,0.22,0.92,-2.1,-1.2,0.7,0.99,0,-0,0.13
1697353929.18,0.13,0.2,1.17,-3.2,-1.7,0.6,0.99,0,-0,0.13
1697353929.19,0.13,0.2,1.17,-3.2,-1.7,0.6,0.99,0,-0,0.13
1697353929.2,0.15,0.1,0.97,-0.6,-1.2,3.1,0.99,0,-0,0.13
1697353929.21,0.15,0.1,0.97,-0.6,-1.2,3.1,0.99,0,-0,0.13
1697353929.22,0.16,-0.05,0.85,3.6,-0.3,4,0.99,0,-0,0.13
1697353929.23,0.23,0.05,0.72,2.5,-0.1,4.2,0.99,0,-0,0.13
1697353929.24,0.17,0.03,0.84,2.5,-0.1,4.2,0.99,0,-0,0.13
1697353929.25,-0.06,0.34,1.16,-2.3,1.4,4.5,0.99,0,-0,0.14
1697353929.26,0.1,0.26,1.03,-2.3,1.4,4.5,0.99,0,-0,0.14
1697353929.27,0.05,0.23,0.81,2.5,2.7,5.6,0.99,0,-0,0.14
1697353929.28,0.07,0.12,0.96,2.5,2.7,5.6,0.99,0,-0,0.14
1697353929.29,0.01,-0.16,1.04,5.4,3.4,5.7,0.99,0.01,-0,0.14
1697353929.3,0.06,0.03,1.02,1.3,3.6,5.4,0.99,0.01,0,0.14
1697353929.31,-0,0.17,1.08,-2.4,3.9,5,0.99,0.01,0,0.14
1697353929.32,-0.13,0.33,1.04,-3.9,4,5.3,0.99,0.01,0,0.14
1697353929.33,0.06,0.46,1.15,-3.9,4,5.3,0.99,0.01,0,0.14
1697353929.34,0.06,0.46,1.15,-5.3,3.2,6.1,0.99,0,0,0.14
1697353929.35,0.09,0.41,0.73,-2.3,1.9,7.7,0.99,0,0,0.14
1697353929.36,0.01,0.2,1.13,-0.6,0.9,9,0.99,0,0,0.14
1697353929.37,-0.09,0.2,1.55,0.2,-0.9,9.5,0.99,0,0,0.14
1697353929.38,0.01,0.09,0.47,-1.4,-3.4,10.4,0.99,0,0,0.14
1697353929.39,-0.14,0.29,1.42,0,-3.6,10.7,0.99,0,0,0.14
1697353929.4,-0.04,0.49,0.87,1.3,-3.4,12.2,0.99,0,0,0.15
1697353929.41,-0.34,0.56,1.12,4.5,-3.4,14.1,0.99,0,0,0.15
1697353929.42,-0.57,0.62,1.65,8.5,-3.5,17.1,0.99,0.01,-0,0.15
1697353929.43,-0.66,0.38,1.34,9.1,-3.4,19.1,0.99,0.01,-0,0.15
1697353929.44,-0.59,0.4,0.93,7,-2.8,20.1,0.99,0.01,-0,0.15
1697353929.45,-0.59,0.4,0.93,7,-2.8,20.1,0.99,0.01,-0,0.15
1697353929.46,-0.59,0.4,0.93,7,-2.8,20.1,0.99,0.01,-0,0.15
1697353929.47,-0.59,0.4,0.93,7,-2.8,20.1,0.99,0.01,-0,0.15
1697353929.48,-0.59,0.4,0.93,7,-2.8,20.1,0.99,0.01,-0,0.15
1697353929.49,-0.59,0.4,0.93,7,-2.8,20.1,0.99,0.01,-0,0.15
1697353929.5,-0.59,0.4,0.93,7,-2.8,20.1,0.99,0.01,-0,0.15
1697353929.51,-0.59,0.4,0.93,7,-2.8,20.1,0.99,0.01,-0,0.15
1697353929.52,-0.59,0.4,0.93,7,-2.8,20.1,0.99,0.01,-0,0.15
1697353929.53,-0.59,0.4,0.93,7,-2.8,20.1,0.99,0.01,-0,0.15
1697353929.54,-0.59,0.4,0.93,7,-2.8,20.1,0.99,0.01,-0,0.15
1697353929.55,-0.59,0.4,0.93,7,-2.8,20.1,0.99,0.01,-0,0.15
1697353929.56,-0.59,0.4,0.93,7,-2.8,20.1,0.99,0.01,-0,0.15
1697353929.57,-0.59,0.4,0.93,7,-2.8,20.1,0.99,0.01,-0,0.15
1697353929.58,-0.28,0.55,1.53,-1,3.7,23.2,0.98,0.01,-0,0.18
1697353929.59,-0.1,0.39,1.13,2.7,4.4,23.6,0.98,0.01,-0,0.18
1697353929.6,-0.13,0.39,1.24,3.2,4.1,24,0.98,0.01,-0,0.19
1697353929.61,-0.13,0.39,1.24,3.2,4.1,24,0.98,0.01,-0,0.19
1697353929.62,-0.01,0.39,1.3,-0.5,2.8,24.3,0.98,0.01,-0,0.19
1697353929.63,-0.01,0.39,1.3,-0.5,2.8,24.3,0.98,0.01,-0,0.19
1697353929.64,0.04,0.38,0.59,-2.9,1,24.8,0.98,0.01,-0,0.19
1697353929.65,-0.15,0.48,1.6,-3.3,-0.7,24.9,0.98,0.01,-0,0.19
1697353929.66,-0.38,0.48,1.58,-3,-2.6,25.1,0.98,0.01,-0,0.2
1697353929.67,-0.38,0.48,1.58,-2.9,-3.4,25.1,0.98,0.01,-0,0.2
1697353929.68,-0.22,0.53,0.65,-0.2,-3.8,25,0.98,0.01,-0,0.2
1697353929.69,-0.31,0.27,1.02,2.6,-2.8,24.8,0.98,0.01,-0,0.2
1697353929.7,-0.19,0.21,1.14,4.7,-1.7,23.7,0.98,0.01,-0,0.21
1697353929.71,-0.16,0.16,1.28,1.6,-1.3,23.4,0.98,0.01,-0,0.21
1697353929.72,-0.04,0.49,0.8,-1.6,-1.1,23,0.98,0.01,-0,0.21
1697353929.73,-0.11,0.44,1.2,-2.6,-0.6,23.8,0.98,0.01,-0,0.21
1697353929.74,-0.11,0.44,1.2,-2.6,-0.6,23.8,0.98,0.01,-0,0.21
1697353929.75,-0.14,0.41,0.96,6.5,-0.1,24.5,0.98,0.01,-0,0.22
1697353929.76,-0.11,0.29,1.19,4.1,-0.3,24.3,0.98,0.01,-0,0.22
1697353929.77,-0.08,0.25,0.91,-0.8,0.1,24,0.98,0.01,-0,0.22
1697353929.78,-0.14,0.36,1.27,-2.9,0,23.8,0.97,0.01,-0,0.22
1697353929.79,-0.07,0.4,0.79,-2.7,0.2,23.6,0.97,0.01,-0,0.22
1697353929.8,-0.18,0.49,1.16,-2.8,0.9,23.5,0.97,0.01,-0,0.23
1697353929.81,-0.08,0.46,0.98,-3,2.1,23.7,0.97,0.01,-0,0.23
1697353929.82,-0.22,0.55,0.99,-2.9,3.2,24.2,0.97,0.01,-0,0.23
1697353929.83,-0.06,0.55,1.07,-2.9,3.4,24.3,0.97,0.01,-0,0.23
1697353929.84,-0.22,0.62,0.98,-1.2,4.3,24.7,0.97,0.01,-0,0.23
1697353929.85,-0.08,0.59,0.69,0.1,4.6,25.6,0.97,0.01,-0,0.24
1697353929.86,-0.21,0.45,1.15,1,4.6,26.8,0.97,0.01,-0,0.24
1697353929.87,0.01,0.62,0.99,-0.5,4.7,27.8,0.97,0.01,-0,0.24
1697353929.88,-0.03,0.69,0.67,-1.2,4.1,29.2,0.97,0.01,-0,0.24
1697353929.89,-0.09,0.88,1.33,1,2.9,30.7,0.97,0.01,-0,0.25
1697353929.9,-0.06,0.87,0.82,2.7,2.6,33.3,0.97,0.01,-0,0.25
1697353929.91,-0.15,0.77,1.19,7,2.4,35.3,0.97,0.01,-0,0.25
1697353929.92,-0.07,0.6,0.79,9.4,2.1,37.1,0.97,0.01,-0,0.26
1697353929.93,-0.18,0.6,0.86,3.2,1.3,40.3,0.97,0.01,0,0.26
1697353929.94,-0.1,0.84,1.13,3.2,1.3,40.3,0.97,0.01,0,0.26
1697353929.95,-0.15,0.92,0.79,2.4,2.3,43.1,0.96,0.01,0,0.27
1697353929.96,-0.26,1.08,0.95,2.9,2.7,45,0.96,0.01,0,0.27
1697353929.97,-0.26,1.08,0.95,2.9,2.7,45,0.96,0.01,0,0.27
1697353929.98,-0.26,1.08,0.95,2.9,2.7,45,0.96,0.01,0,0.27
1697353929.99,-0.26,1.08,0.95,2.9,2.7,45,0.96,0.01,0,0.27
1697353930,-0.26,1.08,0.95,2.9,2.7,45,0.96,0.01,0,0.27
1697353930.01,-0.26,1.08,0.95,2.9,2.7,45,0.96,0.01,0,0.27
1697353930.02,-0.26,1.08,0.95,2.9,2.7,45,0.96,0.01,0,0.27
1697353930.03,-0.26,1.08,0.95,2.9,2.7,45,0.96,0.01,0,0.27
1697353930.04,-0.26,1.08,0.95,2.9,2.7,45,0.96,0.01,0,0.27
1697353930.05,-0.26,1.08,0.95,2.9,2.7,45,0.96,0.01,0,0.27
1697353930.06,-0.26,1.08,0.95,2.9,2.7,45,0.96,0.01,0,0.27
1697353930.07,-0.26,1.08,0.95,2.9,2.7,45,0.96,0.01,0,0.27
1697353930.08,-0.26,1.08,0.95,2.9,2.7,45,0.96,0.01,0,0.27
1697353930.09,-0.26,1.08,0.95,2.9,2.7,45,0.96,0.01,0,0.27
1697353930.1,-0.14,0.99,1.01,0.5,1.8,58.8,0.94,0.01,0,0.33
1697353930.11,-0.12,1,0.84,0,1.1,59.5,0.94,0.01,0,0.34
1697353930.12,-0.18,0.97,1.29,0,0.9,60,0.94,0.01,0,0.34
1697353930.13,-0.07,1.1,0.49,0.7,0.9,60.5,0.94,0.01,0,0.35
1697353930.14,-0.27,0.99,1.24,1.7,0.8,60.5,0.94,0.01,0,0.35
1697353930.15,0.01,0.99,0.63,2.6,1.1,60.1,0.93,0.01,0,0.36
1697353930.16,-0.27,1.12,1.14,4.2,1,60,0.93,0.01,0,0.36
1697353930.17,-0.06,1.07,0.48,4.6,1,59.8,0.93,0.01,0,0.37
1697353930.18,-0.29,1,1.37,4.3,2,59.2,0.93,0.01,0,0.37
1697353930.19,-0.25,0.97,1.24,3.1,2.8,58.7,0.93,0.01,0,0.38
1697353930.2,-0.18,1.08,0.72,2.2,3.3,58.6,0.92,0.01,0.01,0.38
1697353930.21,-0.2,1.07,1.11,1.6,3.3,59.1,0.92,0.01,0.01,0.39
1697353930.22,-0.07,1.09,0.73,1.5,2.9,59.4,0.92,0.01,0.01,0.39
1697353930.23,-0.19,1.11,1.1,1.3,2.6,59.9,0.92,0.01,0.01,0.4
1697353930.24,-0.21,1.09,0.94,1.3,2.6,59.9,0.92,0.01,0.01,0.4
1697353930.25,-0.23,1.09,0.99,2.4,2.1,61.3,0.91,0.01,0.01,0.41
1697353930.26,-0.23,1.09,0.99,2.4,2.1,61.3,0.91,0.01,0.01,0.41
1697353930.27,-0.19,0.96,1.19,3.7,1.8,62.5,0.91,0.01,0.01,0.41
1697353930.28,-0.19,0.96,1.19,3.7,1.8,62.5,0.91,0.01,0.01,0.41
1697353930.29,-0.15,1,1.06,3.3,1.2,62.8,0.91,0.01,0.01,0.42
1697353930.3,-0.17,1.08,0.89,0.7,0.5,63.5,0.9,0.01,0.01,0.43
1697353930.31,-0.12,1.15,0.69,-0.2,-0.1,64.3,0.9,0.01,0.01,0.43
1697353930.32,-0.12,1.37,1.02,0.5,-0.6,65.2,0.9,0.01,0.01,0.44
1697353930.33,-0.12,1.11,0.81,5.2,-1.3,67.1,0.9,0.01,0.01,0.44
1697353930.34,-0.35,1.17,1.09,5.2,-1.3,67.1,0.89,0.01,0.01,0.45
1697353930.35,-0.35,1.17,1.09,5.9,-1.4,67.7,0.89,0.02,0.01,0.45
1697353930.36,-0.16,0.98,0.63,5.7,-0.9,68.7,0.89,0.02,0.01,0.46
1697353930.37,-0.16,1.14,0.97,2.6,-0.2,69.5,0.89,0.02,0.01,0.46
1697353930.38,-0.16,1.1,1.25,0.2,0.2,70.4,0.88,0.02,0.01,0.47
1697353930.39,0.01,1.11,0.53,-0.7,1,70.9,0.88,0.02,0.01,0.48
1697353930.4,-0.15,1.24,1.33,-1.5,1,72.3,0.88,0.02,0.01,0.48
1697353930.41,-0.13,1.47,0.76,-2.1,1.8,72.6,0.87,0.02,0.01,0.49
1697353930.42,-0.28,1.29,0.82,-0.3,2.2,73.4,0.87,0.02,0.01,0.49
1697353930.43,-0.47,1.23,1.24,2.7,2.8,74.1,0.87,0.02,0.01,0.5
1697353930.44,-0.1,1.31,0.52,5.4,2.9,74.6,0.86,0.02,0.01,0.51
1697353930.45,-0.21,1.28,0.63,3.5,2.8,76,0.86,0.02,0.01,0.51
1697353930.46,-0.28,1.24,1.21,0,3.1,76.6,0.86,0.02,0.01,0.52
1697353930.47,-0.28,1.06,1.07,-1.8,1.8,77.2,0.85,0.02,0.01,0.52
1697353930.48,-0.06,1.2,0.62,-4.6,1,77.9,0.85,0.02,0.01,0.53
1697353930.49,-0.3,1.23,1.27,-3.8,-0.1,78.3,0.85,0.02,0.01,0.53
1697353930.5,-0.3,1.23,1.27,-3.8,-0.1,78.3,0.85,0.02,0.01,0.53
1697353930.51,-0.3,1.23,1.27,-3.8,-0.1,78.3,0.85,0.02,0.01,0.53
1697353930.52,-0.3,1.23,1.27,-3.8,-0.1,78.3,0.85,0.02,0.01,0.53
1697353930.53,-0.3,1.23,1.27,-3.8,-0.1,78.3,0.85,0.02,0.01,0.53
1697353930.54,-0.3,1.23,1.27,-3.8,-0.1,78.3,0.85,0.02,0.01,0.53
1697353930.55,-0.3,1.23,1.27,-3.8,-0.1,78.3,0.85,0.02,0.01,0.53
1697353930.56,-0.3,1.23,1.27,-3.8,-0.1,78.3,0.85,0.02,0.01,0.53
1697353930.57,-0.3,1.23,1.27,-3.8,-0.1,78.3,0.85,0.02,0.01,0.53
1697353930.58,-0.3,1.23,1.27,-3.8,-0.1,78.3,0.85,0.02,0.01,0.53
1697353930.59,-0.3,1.23,1.27,-3.8,-0.1,78.3,0.85,0.02,0.01,0.53
1697353930.6,-0.3,1.23,1.27,-3.8,-0.1,78.3,0.85,0.02,0.01,0.53
1697353930.61,-0.3,1.23,1.27,-3.8,-0.1,78.3,0.85,0.02,0.01,0.53
1697353930.62,-0.3,1.23,1.27,-3.8,-0.1,78.3,0.85,0.02,0.01,0.53
1697353930.63,-0.34,1.38,1.38,0.9,3.9,74.9,0.8,0.02,0.01,0.61
1697353930.64,-0.21,1.07,0.81,0.3,3.3,76.6,0.8,0.02,0.01,0.61
1697353930.65,-0.23,1.33,0.81,0,2.2,77.9,0.79,0.02,0.01,0.62
1697353930.66,-0.23,1.33,0.81,0,2.2,77.9,0.79,0.02,0.01,0.62
1697353930.67,-0.27,1.16,1.39,-0.9,1,80.6,0.78,0.01,0.01,0.63
1697353930.68,-0.21,1.22,0.32,-1.8,0.6,81.2,0.78,0.01,0.01,0.63
1697353930.69,-0.1,1.04,1.2,-1.8,0.6,81.2,0.77,0.01,0.01,0.63
1697353930.7,-0.27,1.49,0.75,-0.7,0.4,81.4,0.76,0.01,0.01,0.64
1697353930.71,-0.19,1.04,1.31,-0.7,0.4,81.4,0.76,0.01,0.01,0.64
1697353930.72,-0.19,1.04,1.31,1.2,0.9,81.9,0.76,0.01,0.01,0.66
1697353930.73,-0.22,1.44,0.84,2,1.2,81.1,0.75,0.01,0.01,0.66
1697353930.74,-0.13,1.08,0.91,2.3,1.8,81,0.75,0.01,0.01,0.67
1697353930.75,-0.13,1.12,0.75,0.7,3.2,79.4,0.74,0.01,0.01,0.68
1697353930.76,-0.38,1.35,1.29,0.7,3.2,79.4,0.74,0.01,0.01,0.68
1697353930.77,-0.39,1.28,0.84,-1,4,78.2,0.73,0.01,0.01,0.68
1697353930.78,-0.39,1.28,0.84,-1,4,78.2,0.73,0.01,0.01,0.69
1697353930.79,-0.27,1.32,1.48,0.1,4.5,78.5,0.72,0.01,0.01,0.69
1697353930.8,-0.24,1.49,0.67,-1,4.6,78.4,0.72,0.01,0.01,0.7
1697353930.81,-0.22,1.29,1.26,0.3,4.4,79.5,0.71,0.01,0.01,0.7
1697353930.82,-0.18,1.55,0.77,1,4.2,79.8,0.71,0.01,0.01,0.71
1697353930.83,-0.26,1.18,0.86,2.9,4.3,81,0.7,0.01,0.01,0.71
1697353930.84,-0.28,1.27,0.87,2.7,3.7,81.3,0.7,0.01,0.01,0.72
1697353930.85,-0.16,1.15,1.47,-0.4,2.6,83.5,0.69,0.01,0.01,0.72
1697353930.86,-0.19,1.17,0.7,-1.5,1.7,83.6,0.69,0.01,0.01,0.73
1697353930.87,-0.25,1,0.96,-2.8,0.8,83.2,0.68,0.01,0.01,0.73
1697353930.88,0.01,0.83,0.43,-4.8,0.3,81.3,0.67,0.01,0.01,0.74
1697353930.89,-0.07,0.69,1.4,-6.9,-0.5,77.7,0.67,0.01,0.01,0.74
1697353930.9,-0.04,0.66,0.73,-8.3,-0.7,72.7,0.66,0.01,0.01,0.75
1697353930.91,0.06,0.58,0.87,-8,-1,66.4,0.66,0.01,0.01,0.75
1697353930.92,-0.04,0.57,0.99,-6,-1.2,59.5,0.66,0.01,0.01,0.75
1697353930.93,-0.05,0.52,1.08,-3.6,-0.6,53.1,0.65,0.01,0.01,0.76
1697353930.94,-0.1,0.66,1.28,-0.6,0.4,47.4,0.65,0.01,0.01,0.76
1697353930.95,-0.18,0.64,1.15,0.3,2.1,43.2,0.65,0.01,0.01,0.76
1697353930.96,-0.18,0.75,1.06,-0.8,4.3,40.2,0.65,0.01,0.01,0.76
1697353930.97,-0.18,0.9,0.98,-1.4,5.2,39.8,0.64,0.01,0.01,0.77
1697353930.98,-0.26,0.88,1.38,-2.1,5.6,41,0.64,0.01,0.01,0.77
1697353930.99,-0.01,0.78,0.73,-3.3,5.5,42.5,0.63,0.01,0.01,0.77
1697353931,-0.05,0.62,1.05,-4.2,4.7,43.8,0.63,0.01,0.01,0.78
1697353931.01,-0.13,0.61,1.13,-5.2,4,44.9,0.63,0.01,0.01,0.78
1697353931.02,-0.13,0.61,1.13,-5.2,4,44.9,0.63,0.01,0.01,0.78
1697353931.03,-0.13,0.61,1.13,-5.2,4,44.9,0.63,0.01,0.01,0.78
1697353931.04,-0.13,0.61,1.13,-5.2,4,44.9,0.63,0.01,0.01,0.78
1697353931.05,-0.13,0.61,1.13,-5.2,4,44.9,0.63,0.01,0.01,0.78
1697353931.06,-0.13,0.61,1.13,-5.2,4,44.9,0.63,0.01,0.01,0.78
1697353931.07,-0.13,0.61,1.13,-5.2,4,44.9,0.63,0.01,0.01,0.78
1697353931.08,-0.13,0.61,1.13,-5.2,4,44.9,0.63,0.01,0.01,0.78
1697353931.09,-0.13,0.61,1.13,-5.2,4,44.9,0.63,0.01,0.01,0.78
1697353931.1,-0.13,0.61,1.13,-5.2,4,44.9,0.63,0.01,0.01,0.78
1697353931.11,-0.13,0.61,1.13,-5.2,4,44.9,0.63,0.01,0.01,0.78
1697353931.12,-0.13,0.61,1.13,-5.2,4,44.9,0.63,0.01,0.01,0.78
1697353931.13,-0.13,0.61,1.13,-5.2,4,44.9,0.63,0.01,0.01,0.78
1697353931.14,-0.13,0.61,1.13,-5.2,4,44.9,0.63,0.01,0.01,0.78
1697353931.15,-0.18,0.76,1.26,-1.7,1.8,40.1,0.59,0.01,0.01,0.81
1697353931.16,0.14,0.63,0.77,-0.1,2,39.8,0.59,0.01,0.01,0.81
1697353931.17,0.22,0.58,0.97,1.1,1.4,38.5,0.59,0.01,0.01,0.81
1697353931.18,0.37,0.33,1.06,-0.3,0.3,37.2,0.58,0.01,0.01,0.81
1697353931.19,0.3,0.2,0.94,-2.1,-0.5,34.5,0.58,0.01,0.01,0.81
1697353931.2,0.27,0.39,0.9,-3.1,-0.8,32,0.58,0.01,0.01,0.82
1697353931.21,0.06,0.21,0.94,-3.3,-0.9,31.6,0.58,0.01,0,0.82
1697353931.22,-0.04,0.32,0.6,-2.8,-0.7,28.6,0.57,0.01,0,0.82
1697353931.23,-0.07,0.23,1.12,-2.1,-0.4,27,0.57,0.01,0,0.82
1697353931.24,-0.06,0.16,0.73,-1.9,-0.2,25.3,0.57,0.01,0,0.82
1697353931.25,0.01,-0.07,1.18,-3.7,-0.1,22.7,0.57,0.01,0,0.82
1697353931.26,-0.11,-0.16,1,-5.4,-0.4,19.7,0.57,0.01,0,0.82
1697353931.27,0.1,-0.11,0.92,-7.1,-0.9,16.2,0.56,0.01,0,0.83
1697353931.28,0.14,-0.27,1.24,-7.9,-0.9,11.7,0.56,0.01,0,0.83
1697353931.29,0.09,-0.53,1.37,-8.7,-1.3,6.7,0.56,0.01,0,0.83
1697353931.3,0.39,-0.41,0.72,-9,-1.6,1.9,0.56,0.01,0,0.83
1697353931.31,0.28,-0.37,0.89,-9,-1.6,1.9,0.56,0.01,0,0.83
1697353931.32,0.08,-0.34,1.22,-8,-1.9,-3.5,0.56,0,-0,0.83
1697353931.33,0.06,-0.39,0.74,-7.3,-1.8,-7,0.56,0,-0,0.83
1697353931.34,-0.13,-0.31,1,-7.4,-1,-9.4,0.56,0,-0,0.83
1697353931.35,-0.01,-0.35,0.72,-7,0,-10.7,0.57,0,-0,0.82
1697353931.36,-0.2,-0.43,1.21,-7,0,-10.7,0.57,0,-0,0.82
1697353931.37,0.09,-0.32,0.74,-6.1,0.6,-11.5,0.57,0,-0,0.82
1697353931.38,-0.08,-0.4,1.39,-5.3,0.4,-11.6,0.57,0,-0,0.82
1697353931.39,-0.08,-0.4,1.39,-5.3,0.4,-11.6,0.57,0,-0,0.82
1697353931.4,0.19,-0.49,1.07,-4.7,0.3,-11.9,0.57,0,-0,0.82
1697353931.41,0.32,-0.44,0.92,-4,-0.1,-12.5,0.57,0,-0,0.82
1697353931.42,0.17,-0.53,1.26,-2.9,-0.8,-13.4,0.57,0,-0,0.82
1697353931.43,0.21,-0.44,0.83,-1.5,-1.7,-14.7,0.57,0,-0,0.82
1697353931.44,0.21,-0.44,0.83,-1.5,-1.7,-14.7,0.57,0,-0,0.82
1697353931.45,-0.12,-0.51,0.92,-1,-2.4,-17.2,0.57,0,-0,0.82
1697353931.46,-0.12,-0.51,0.92,-1,-2.4,-17.2,0.58,0,-0.01,0.82
1697353931.47,-0.04,-0.61,0.97,-0.1,-2,-19.2,0.58,0,-0.01,0.82
1697353931.48,-0.01,-0.39,0.8,-0.2,-1.4,-20.9,0.58,0,-0.01,0.82
1697353931.49,-0.01,-0.39,0.8,0.5,-0.7,-22.9,0.58,0,-0.01,0.81
1697353931.5,0.23,-0.54,0.7,1.3,0,-24.3,0.58,0,-0.01,0.81
1697353931.51,0.15,-0.58,1.14,1.6,0,-25.7,0.58,0,-0,0.81
1697353931.52,0.26,-0.51,0.72,0.3,-0.5,-26.5,0.59,0,-0.01,0.81
1697353931.53,0.32,-0.54,1.11,-1.6,-0.9,-26.8,0.59,0,-0.01,0.81
1697353931.54,0.32,-0.54,1.11,-1.6,-0.9,-26.8,0.59,0,-0.01,0.81
1697353931.55,0.32,-0.54,1.11,-1.6,-0.9,-26.8,0.59,0,-0.01,0.81
1697353931.56,0.32,-0.54,1.11,-1.6,-0.9,-26.8,0.59,0,-0.01,0.81
1697353931.57,0.32,-0.54,1.11,-1.6,-0.9,-26.8,0.59,0,-0.01,0.81
1697353931.58,0.32,-0.54,1.11,-1.6,-0.9,-26.8,0.59,0,-0.01,0.81
1697353931.59,0.32,-0.54,1.11,-1.6,-0.9,-26.8,0.59,0,-0.01,0.81
1697353931.6,0.32,-0.54,1.11,-1.6,-0.9,-26.8,0.59,0,-0.01,0.81
1697353931.61,0.32,-0.54,1.11,-1.6,-0.9,-26.8,0.59,0,-0.01,0.81
1697353931.62,0.32,-0.54,1.11,-1.6,-0.9,-26.8,0.59,0,-0.01,0.81
1697353931.63,0.32,-0.54,1.11,-1.6,-0.9,-26.8,0.59,0,-0.01,0.81
1697353931.64,0.32,-0.54,1.11,-1.6,-0.9,-26.8,0.59,0,-0.01,0.81
1697353931.65,0.32,-0.54,1.11,-1.6,-0.9,-26.8,0.59,0,-0.01,0.81
1697353931.66,0.32,-0.54,1.11,-1.6,-0.9,-26.8,0.59,0,-0.01,0.81
1697353931.67,0.05,-0.55,1.04,1.5,-0.4,-34.1,0.62,0,-0.01,0.78
1697353931.68,0.03,-0.52,0.89,3.3,0.4,-33.4,0.62,0,-0.01,0.78
1697353931.69,0.12,-0.68,0.78,3.5,0.8,-33.6,0.63,0,-0.01,0.78
1697353931.7,0,-0.89,1.23,1.2,0.4,-34.4,0.63,0,-0.01,0.78
1697353931.71,0,-0.89,1.23,1.2,0.4,-34.4,0.63,0,-0.01,0.78
1697353931.72,0.26,-0.66,1.02,-3.9,0.7,-34.3,0.63,0,-0.01,0.77
1697353931.73,0.26,-0.66,1.02,-3.9,0.7,-34.3,0.63,0,-0.01,0.77
1697353931.74,0.23,-0.32,1.14,0.6,-0.4,-34.5,0.64,0,-0.01,0.77
1697353931.75,0.23,-0.32,1.14,0.6,-0.4,-34.5,0.64,0,-0.01,0.77
1697353931.76,0.17,-0.51,0.92,3,-0.9,-34.2,0.64,0,-0.01,0.77
1697353931.77,0.17,-0.51,0.92,3.2,-0.7,-35.5,0.64,0,-0.01,0.77
1697353931.78,0.01,-0.68,0.92,-0.6,0.1,-36.1,0.65,0,-0.01,0.76
1697353931.79,0.03,-0.59,0.92,-2.1,0.7,-37.4,0.65,0,-0.01,0.76
1697353931.8,-0.03,-0.63,1.07,-1.7,1.2,-38.5,0.65,0,-0.01,0.76
1697353931.81,-0.03,-0.63,1.07,-1.7,1.2,-38.5,0.65,0,-0.01,0.76
1697353931.82,0.07,-0.54,1.09,-1.5,1.6,-38.4,0.66,0,-0.01,0.75
1697353931.83,0,-0.68,1.22,-1.4,1.4,-37.4,0.66,0,-0.01,0.75
1697353931.84,0,-0.68,1.22,-1.4,1.4,-37.4,0.66,0,-0.01,0.75
1697353931.85,0.2,-0.64,1.03,-2.4,1.1,-36.6,0.66,0,-0.01,0.75
1697353931.86,0.2,-0.64,1.03,-1.5,0.4,-36.4,0.67,0,-0.01,0.75
1697353931.87,0.16,-0.72,1.03,-1.6,0.1,-36.1,0.67,0,-0.01,0.74
1697353931.88,0.01,-0.53,1.43,-1.9,-0.4,-35.6,0.67,0,-0.01,0.74
1697353931.89,0.16,-0.68,0.86,-0.2,-1.3,-35,0.67,0,-0.01,0.74
1697353931.9,0.09,-0.5,1.2,2.4,0,-36.2,0.67,0,-0.01,0.74
1697353931.91,0.09,-0.5,1.2,2.4,0,-36.2,0.67,0,-0.01,0.74
1697353931.92,0.09,-0.5,1.2,2.4,0,-36.2,0.67,0,-0.01,0.74
1697353931.93,0.09,-0.5,1.2,2.4,0,-36.2,0.67,0,-0.01,0.74
1697353931.94,0.09,-0.5,1.2,2.4,0,-36.2,0.67,0,-0.01,0.74
1697353931.95,0.09,-0.5,1.2,2.4,0,-36.2,0.67,0,-0.01,0.74
1697353931.96,0.09,-0.5,1.2,2.4,0,-36.2,0.67,0,-0.01,0.74
1697353931.97,0.09,-0.5,1.2,2.4,0,-36.2,0.67,0,-0.01,0.74
1697353931.98,0.09,-0.5,1.2,2.4,0,-36.2,0.67,0,-0.01,0.74
1697353931.99,0.09,-0.5,1.2,2.4,0,-36.2,0.67,0,-0.01,0.74
1697353932,0.09,-0.5,1.2,2.4,0,-36.2,0.67,0,-0.01,0.74
1697353932.01,0.09,-0.5,1.2,2.4,0,-36.2,0.67,0,-0.01,0.74
1697353932.02,0.09,-0.5,1.2,2.4,0,-36.2,0.67,0,-0.01,0.74
1697353932.03,-0.07,-0.64,1.2,-4.3,-1.3,-41.5,0.71,0,-0.01,0.71
1697353932.04,0.26,-0.58,1.26,1.3,0.2,-41.4,0.71,0,-0.01,0.7
1697353932.05,0.12,-0.48,0.81,3,0.4,-40,0.71,0,-0.01,0.7
1697353932.06,0.12,-0.48,0.81,3,0.4,-40,0.71,0,-0.01,0.7
1697353932.07,0.16,-0.88,0.87,1.4,1.2,-41.2,0.72,0,-0.01,0.69
1697353932.08,0.15,-0.99,1.08,-2.9,1.3,-41.8,0.72,0,-0.01,0.69
1697353932.09,0.15,-0.99,1.08,-2.9,1.3,-41.8,0.72,0,-0.01,0.69
1697353932.1,0.09,-0.69,1.19,-4.3,0.4,-42,0.72,0,-0.01,0.69
1697353932.11,0.09,-0.69,1.19,-2.4,0,-42.3,0.73,0,-0.01,0.69
1697353932.12,0.18,-0.6,0.81,4.2,0,-41.9,0.73,0,-0.01,0.68
1697353932.13,0.18,-0.6,0.81,4.2,0,-41.9,0.73,0,-0.01,0.68
1697353932.14,0.17,-0.8,0.82,-0.9,-0.3,-42.4,0.73,0,-0.01,0.68
1697353932.15,0.17,-0.8,0.82,-0.9,-0.3,-42.4,0.74,0,-0.01,0.68
1697353932.16,0.18,-0.59,0.86,-4.9,0.2,-41.6,0.74,0,-0.01,0.67
1697353932.17,0.18,-0.59,0.86,-5.2,0.3,-41,0.74,0,-0.01,0.67
1697353932.18,0.1,-0.69,1.05,-1.7,0.2,-40.8,0.74,0,-0.01,0.67
1697353932.19,0.1,-0.69,1.05,-0.1,0.5,-40.6,0.75,0,-0.01,0.66
1697353932.2,-0.03,-0.62,1.26,0.3,0.6,-40.8,0.75,0,-0.01,0.66
1697353932.21,0.08,-0.77,0.94,3.6,1.7,-40.7,0.75,0,-0.01,0.66
1697353932.22,0.02,-0.85,1.05,3.6,1.7,-40.7,0.75,0,-0.01,0.66
1697353932.23,0.07,-0.82,0.97,3.1,2,-41.2,0.75,0,-0.01,0.66
1697353932.24,0.21,-0.84,0.63,2.1,2.1,-41.4,0.76,0,-0.01,0.65
1697353932.25,0.14,-0.7,1.2,0.4,2.4,-41.1,0.76,0,-0.01,0.65
1697353932.26,0.17,-0.59,1.02,0.3,2,-40.7,0.76,0,-0.01,0.64
1697353932.27,0.15,-0.69,1.28,2.4,1.8,-39,0.77,0,-0.01,0.64
1697353932.28,0.18,-0.52,0.88,4.1,1.6,-38.1,0.77,0,-0.01,0.64
1697353932.29,0.26,-0.76,0.76,2.7,0.7,-37.7,0.77,0,-0.01,0.64
1697353932.3,0.27,-0.7,1.03,-0.9,-0.1,-36.7,0.77,0,-0.01,0.63
1697353932.31,0.19,-0.52,0.83,0.4,-0.5,-36.5,0.78,0,-0.01,0.63
1697353932.32,0.12,-0.68,0.8,-0.8,-0.1,-36,0.78,0,-0.01,0.63
1697353932.33,0.23,-0.63,0.79,-1.8,-0.4,-36.1,0.78,0,-0.01,0.63
1697353932.34,0.06,-0.49,1,-1.8,-0.4,-36.1,0.78,0,-0.01,0.63
1697353932.35,0.14,-0.37,1.07,1.5,-0.3,-34,0.78,0,-0.01,0.62
1697353932.36,0.14,-0.37,1.07,1.5,-0.3,-34,0.78,0,-0.01,0.62
1697353932.37,0.1,-0.5,1.07,4.2,0.2,-32.4,0.79,0,-0.01,0.62
1697353932.38,0.15,-0.64,0.99,4.2,0.2,-32.4,0.79,0,-0.01,0.62
1697353932.39,0.16,-0.61,0.92,1.2,0.7,-30.9,0.79,0,-0,0.61
1697353932.4,0.17,-0.48,0.95,0.3,0.5,-30.3,0.79,0,-0,0.61
1697353932.41,0.17,-0.48,0.95,0.3,0.5,-30.3,0.79,0,-0,0.61
1697353932.42,0.19,-0.47,1.03,0.2,0.5,-30.2,0.79,0,-0,0.61
1697353932.43,0.19,-0.47,1.03,0.2,0.5,-30.2,0.79,0,-0,0.61
1697353932.44,0.19,-0.47,1.03,0.2,0.5,-30.2,0.79,0,-0,0.61
1697353932.45,0.19,-0.47,1.03,0.2,0.5,-30.2,0.79,0,-0,0.61
1697353932.46,0.19,-0.47,1.03,0.2,0.5,-30.2,0.79,0,-0,0.61
1697353932.47,0.19,-0.47,1.03,0.2,0.5,-30.2,0.79,0,-0,0.61
1697353932.48,0.19,-0.47,1.03,0.2,0.5,-30.2,0.79,0,-0,0.61
1697353932.49,0.19,-0.47,1.03,0.2,0.5,-30.2,0.79,0,-0,0.61
1697353932.5,0.19,-0.47,1.03,0.2,0.5,-30.2,0.79,0,-0,0.61
1697353932.51,0.19,-0.47,1.03,0.2,0.5,-30.2,0.79,0,-0,0.61
1697353932.52,0.19,-0.47,1.03,0.2,0.5,-30.2,0.79,0,-0,0.61
1697353932.53,0.19,-0.47,1.03,0.2,0.5,-30.2,0.79,0,-0,0.61
1697353932.54,0.19,-0.47,1.03,0.2,0.5,-30.2,0.79,0,-0,0.61
1697353932.55,0.26,-0.3,0.96,0.1,1.1,-26.5,0.81,0,-0,0.58
1697353932.56,0.24,-0.46,0.81,0.7,0.9,-25.6,0.81,0,-0,0.58
1697353932.57,0.16,-0.45,1.13,0.4,0.6,-23,0.82,0,-0,0.58
1697353932.58,0.21,-0.42,1.07,1,0.7,-22.6,0.82,0,-0,0.58
1697353932.59,0.24,-0.23,0.72,1,1.2,-20.5,0.82,0,-0,0.58
1697353932.6,0.18,-0.26,1.24,2.2,1.2,-19.8,0.82,0,-0,0.57
1697353932.61,0.21,-0.48,0.92,1.7,1.5,-19.3,0.82,0,-0,0.57
1697353932.62,0.27,-0.1,0.78,0.2,2,-18.6,0.82,0,-0,0.57
1697353932.63,0.07,-0.26,1.17,-1.1,2.6,-17,0.82,0,-0,0.57
1697353932.64,0.21,0.24,0.8,-1.3,2.8,-16.5,0.82,0,-0,0.57
1697353932.65,0.15,-0.06,0.94,-0.5,2.7,-14,0.82,0,-0,0.57
1697353932.66,0.22,0.06,0.98,3.4,2.2,-12.6,0.82,0,-0,0.57
1697353932.67,0.21,-0.1,1.18,3.7,1.3,-10.4,0.82,0,-0,0.57
1697353932.68,0.29,-0.09,0.85,4.4,0,-8.9,0.82,0,-0,0.57
1697353932.69,0.16,-0.01,1.05,3.1,-1.1,-7.6,0.82,0,-0,0.57
1697353932.7,0.25,-0.08,0.93,2.8,-1.7,-6.4,0.83,0,-0,0.56
1697353932.71,0.17,0.05,0.94,1.7,-1.4,-4.9,0.83,0,-0,0.56
1697353932.72,0.25,0.14,0.94,1,-0.9,-3.6,0.83,0,-0,0.56
1697353932.73,0.17,0.11,0.98,2.2,0.1,-2.5,0.83,0,-0,0.56
1697353932.74,0.18,-0.03,0.97,3.4,0.9,-1.7,0.83,0,-0,0.56
1697353932.75,0.18,0.06,1.03,4.2,1.6,-2,0.83,0.01,-0,0.56
1697353932.76,0.18,0.06,1.03,4.2,1.6,-2,0.83,0.01,-0,0.56
1697353932.77,0.22,0.24,0.96,0.1,1.7,-1.5,0.83,0.01,-0,0.56
1697353932.78,0.22,0.24,0.96,0.1,1.7,-1.5,0.83,0.01,-0,0.56
1697353932.79,0.22,0.3,0.99,-0.8,0.6,0.6,0.83,0.01,-0,0.56
1697353932.8,0.22,0.3,0.99,-0.8,0.6,0.6,0.83,0.01,-0,0.56
1697353932.81,0.21,0.26,1.03,0.8,-0.3,2.2,0.83,0.01,-0,0.56
1697353932.82,0.25,0.21,0.97,0.8,-0.8,3.4,0.83,0.01,-0,0.56
1697353932.83,0.15,0.13,1.28,1.7,-1.4,4,0.83,0.01,-0,0.56
1697353932.84,0.15,-0.05,1.22,2.4,-1.8,4.2,0.83,0.01,-0,0.56
1697353932.85,0.23,0.02,0.98,-1.1,-2.2,3.7,0.82,0.01,-0,0.57
1697353932.86,0.23,0.02,0.98,-1.1,-2.2,3.7,0.82,0.01,-0,0.57
1697353932.87,0.14,0.16,1.15,-2.9,-1.9,3.4,0.82,0.01,-0,0.57
1697353932.88,0.23,0.22,0.99,0.6,0.1,3.1,0.82,0.01,-0,0.57
1697353932.89,0.11,0.17,1.18,1.8,1,3.3,0.82,0.01,-0,0.57
1697353932.9,0.15,-0.03,1.01,1.1,1.5,3.1,0.82,0.01,-0,0.57
1697353932.91,0.19,0,0.99,1.1,1.5,3.1,0.82,0.01,-0,0.57
1697353932.92,0.26,0.12,1.01,-1.7,1.3,3.2,0.82,0.01,-0,0.57
1697353932.93,0.24,0.29,0.97,-3.5,0.4,3.7,0.82,0.01,-0,0.57
1697353932.94,0.18,0.28,1.13,-0.1,-0.7,5.2,0.82,0.01,-0,0.57
1697353932.95,0.18,0.28,1.13,-0.1,-0.7,5.2,0.82,0.01,-0,0.57
1697353932.96,0.18,0.28,1.13,-0.1,-0.7,5.2,0.82,0.01,-0,0.57
1697353932.97,0.18,0.28,1.13,-0.1,-0.7,5.2,0.82,0.01,-0,0.57
1697353932.98,0.18,0.28,1.13,-0.1,-0.7,5.2,0.82,0.01,-0,0.57
1697353932.99,0.18,0.28,1.13,-0.1,-0.7,5.2,0.82,0.01,-0,0.57
1697353933,0.18,0.28,1.13,-0.1,-0.7,5.2,0.82,0.01,-0,0.57
1697353933.01,0.18,0.28,1.13,-0.1,-0.7,5.2,0.82,0.01,-0,0.57
1697353933.02,0.18,0.28,1.13,-0.1,-0.7,5.2,0.82,0.01,-0,0.57
1697353933.03,0.18,0.28,1.13,-0.1,-0.7,5.2,0.82,0.01,-0,0.57
1697353933.04,0.18,0.28,1.13,-0.1,-0.7,5.2,0.82,0.01,-0,0.57
1697353933.05,0.18,0.28,1.13,-0.1,-0.7,5.2,0.82,0.01,-0,0.57
1697353933.06,0.18,0.28,1.13,-0.1,-0.7,5.2,0.82,0.01,-0,0.57
1697353933.07,0.18,0.28,1.13,-0.1,-0.7,5.2,0.82,0.01,-0,0.57
1697353933.08,0.18,0.28,1.13,-0.1,-0.7,5.2,0.82,0.01,-0,0.57
1697353933.09,0.24,0.31,1.15,4.7,-1.1,10,0.82,0.01,-0,0.58
1697353933.1,0.23,0.15,0.68,3.6,-1.8,9.9,0.82,0.01,-0,0.58
1697353933.11,0.12,0.08,0.99,3.6,-1.8,9.9,0.82,0.01,-0,0.58
1697353933.12,0.24,0.16,1.01,-1.7,-1.3,9.2,0.82,0.01,-0,0.58
1697353933.13,0.2,0.33,1.11,-1.9,-1,9.5,0.82,0.01,-0,0.58
1697353933.14,0.26,0.36,0.89,-0.4,-0.5,10.2,0.81,0.01,-0,0.58
1697353933.15,0.11,0.29,1.16,-0.4,-0.5,10.2,0.81,0.01,-0,0.58
1697353933.16,0.11,0.29,1.16,1.1,0.4,10.8,0.81,0.01,-0,0.58
1697353933.17,0.14,0.23,1.13,1.5,1.4,11.2,0.81,0.01,-0,0.58
1697353933.18,0.14,0.23,1.13,1.1,1.7,11.5,0.81,0.01,-0,0.58
1697353933.19,0.26,0.15,0.91,0.3,1.5,11.7,0.81,0.01,-0,0.58
1697353933.2,0.17,0.28,1.07,-0.3,1.3,12,0.81,0.01,-0,0.58
1697353933.21,0.21,0.38,1.09,1.4,0.4,12.4,0.81,0.01,-0,0.59
1697353933.22,0.15,0.37,1.24,2,0.2,12.4,0.81,0.01,-0,0.59
1697353933.23,0.27,0.18,0.84,3.6,-1.1,12.1,0.81,0.01,-0,0.59
1697353933.24,0.23,0.17,0.84,1.8,-3.1,12,0.81,0.01,-0,0.59
1697353933.25,0.25,0.26,0.85,0.5,-3.5,11.9,0.81,0.01,-0,0.59
1697353933.26,0.18,0.19,0.93,0,-3.1,11.5,0.81,0.01,-0,0.59
1697353933.27,0.09,0.27,1.16,-0.4,-2.3,11.6,0.81,0.01,-0,0.59
1697353933.28,0.17,0.31,0.94,0.7,-0.8,12.2,0.81,0.01,-0,0.59
1697353933.29,0.13,0.27,1.03,2.3,0.2,12,0.81,0.01,-0,0.59
1697353933.3,0.07,0.08,1.14,2,1.3,11.2,0.8,0.01,-0,0.59
1697353933.31,0.1,0.06,1.18,2,1.3,11.2,0.8,0.01,-0,0.59
1697353933.32,0.18,0.24,1.16,-0.4,1.7,10.8,0.8,0.01,-0,0.59
1697353933.33,0.27,0.35,0.91,-1.5,2.1,10.9,0.8,0.01,-0,0.6
1697353933.34,0.19,0.27,1.12,0.4,2.7,10.6,0.8,0.01,-0,0.6
1697353933.35,0.28,0.09,1.02,2.7,2.5,10.1,0.8,0.01,-0,0.6
1697353933.36,0.3,0.01,0.83,3,1.5,9.2,0.8,0.01,-0,0.6
1697353933.37,0.25,0.21,1.14,-0.9,0.1,9.2,0.8,0.01,-0,0.6
1697353933.38,0.24,0.22,1.02,-3.1,-1.8,9,0.8,0.01,-0,0.6
1697353933.39,0.24,0.33,1.06,-2.7,-3,8.7,0.8,0.01,-0,0.6
1697353933.4,0.14,0.38,0.97,-1.5,-4.1,8.8,0.8,0.01,-0,0.6
1697353933.41,0.14,0.38,0.97,-1.5,-4.1,8.8,0.8,0.01,-0,0.6
1697353933.42,0.19,0.04,0.95,3.5,-3.6,9.3,0.8,0.01,-0,0.6
1697353933.43,0.22,0,1.01,3.5,-3.6,9.3,0.8,0.01,-0,0.6
1697353933.44,0.19,0.14,1.05,-2.4,-1.6,9.2,0.8,0.01,-0.01,0.6
1697353933.45,0.16,0.43,1,-3,-1.3,9.5,0.8,0.01,-0.01,0.6
1697353933.46,0.25,0.46,0.85,-3,-1.3,9.5,0.8,0.01,-0.01,0.6
1697353933.47,0.2,0.29,1.11,4,-1.3,11.2,0.8,0.01,-0.01,0.6
1697353933.48,0.2,0.29,1.11,4,-1.3,11.2,0.8,0.01,-0.01,0.6
1697353933.49,0.2,0.29,1.11,4,-1.3,11.2,0.8,0.01,-0.01,0.6
1697353933.5,0.2,0.29,1.11,4,-1.3,11.2,0.8,0.01,-0.01,0.6
1697353933.51,0.2,0.29,1.11,4,-1.3,11.2,0.8,0.01,-0.01,0.6
1697353933.52,0.2,0.29,1.11,4,-1.3,11.2,0.8,0.01,-0.01,0.6
1697353933.53,0.2,0.29,1.11,4,-1.3,11.2,0.8,0.01,-0.01,0.6
1697353933.54,0.2,0.29,1.11,4,-1.3,11.2,0.8,0.01,-0.01,0.6
1697353933.55,0.2,0.29,1.11,4,-1.3,11.2,0.8,0.01,-0.01,0.6
1697353933.56,0.2,0.29,1.11,4,-1.3,11.2,0.8,0.01,-0.01,0.6
1697353933.57,0.2,0.29,1.11,4,-1.3,11.2,0.8,0.01,-0.01,0.6
1697353933.58,0.2,0.29,1.11,4,-1.3,11.2,0.8,0.01,-0.01,0.6
1697353933.59,0.2,0.29,1.11,4,-1.3,11.2,0.8,0.01,-0.01,0.6
1697353933.6,0.2,0.29,1.11,4,-1.3,11.2,0.8,0.01,-0.01,0.6
1697353933.61,0.17,0.59,1.04,-0.7,2.1,16.8,0.78,0.01,-0.01,0.62
1697353933.62,0.17,0.43,1.14,0.9,0.9,16.4,0.78,0.01,-0,0.62
1697353933.63,0.17,0.29,0.9,2.8,0.3,15.9,0.78,0.01,-0,0.62
1697353933.64,0.24,0.19,0.88,1.8,-0.3,15.5,0.78,0.01,-0,0.62
1697353933.65,0.14,0.25,1.11,0.4,-1.2,14.6,0.78,0.01,-0,0.62
1697353933.66,0.15,0.28,1.09,-1,-1.5,14.1,0.78,0.01,-0,0.62
1697353933.67,0.26,0.31,0.92,-2.5,-1,13.7,0.78,0.01,-0.01,0.63
1697353933.68,0.18,0.31,1.04,-1.7,-0.2,13.4,0.78,0.01,-0.01,0.63
1697353933.69,0.26,0.12,1.08,-0.8,0.2,13,0.78,0.01,-0.01,0.63
1697353933.7,0.26,0.23,0.91,-0.8,0.7,12,0.78,0.01,-0.01,0.63
1697353933.71,0.16,0.05,1.15,-3.7,0.9,12.3,0.78,0.01,-0.01,0.63
1697353933.72,0.2,0.45,1.07,-5.3,0.9,11.6,0.78,0.01,-0.01,0.63
1697353933.73,0.08,0.44,1.06,-4.7,0.7,11.6,0.78,0.01,-0.01,0.63
1697353933.74,0.24,0.41,0.72,-1,-0.2,11.7,0.77,0.01,-0.01,0.63
1697353933.75,0.13,0.29,1.15,2.5,-0.5,12,0.77,0.01,-0.01,0.63
1697353933.76,0.14,0.02,0.93,4.6,-0.8,12.1,0.77,0.01,-0.01,0.63
1697353933.77,0.19,0.01,1.19,3.4,-1,11.2,0.77,0.01,-0.01,0.63
1697353933.78,0.21,-0.04,1.15,-0.5,-1.4,10.3,0.77,0.01,-0.01,0.63
1697353933.79,0.27,0.22,0.87,-3.3,-1.9,9.4,0.77,0.01,-0.01,0.64
1697353933.8,0.17,0.15,1.11,-1.7,-1.7,8.5,0.77,0.01,-0.01,0.64
1697353933.81,0.17,0.15,1.11,-1.7,-1.7,8.5,0.77,0.01,-0.01,0.64
1697353933.82,0.21,0.06,1.07,-0.3,0.2,6.4,0.77,0.01,-0.01,0.64
1697353933.83,0.21,0.06,1.07,-0.3,0.2,6.4,0.77,0.01,-0.01,0.64
1697353933.84,0.18,0.22,1.03,-5.5,1.6,6.5,0.77,0.01,-0.01,0.64
1697353933.85,0.17,0.45,0.95,-5.5,1.6,6.5,0.77,0.01,-0.01,0.64
1697353933.86,0.18,0.22,0.94,-3.9,1.6,6.1,0.77,0.01,-0.01,0.64
1697353933.87,0.21,0.12,0.9,2.6,0.8,6.9,0.77,0.01,-0.01,0.64
1697353933.88,0.21,-0.04,0.94,2.6,0.8,6.9,0.77,0.01,-0.01,0.64
1697353933.89,0.2,-0.03,1.11,1.2,0.4,6.7,0.77,0.01,-0.01,0.64
1697353933.9,0.31,0.14,1.07,-1.8,-0.2,6,0.77,0.01,-0.01,0.64
1697353933.91,0.31,0.14,1.07,-1.8,-0.2,6,0.77,0.01,-0.01,0.64
1697353933.92,0.29,0.23,1.12,-2.1,-1.1,6.1,0.77,0.01,-0.01,0.64
1697353933.93,0.2,0.12,0.92,-0.7,-3.1,6.1,0.77,0.01,-0.01,0.64
1697353933.94,0.28,0.05,0.83,-0.7,-3.1,6.1,0.77,0.01,-0.01,0.64
1697353933.95,0.07,0.34,1.21,-3,-3.2,6.7,0.77,0.01,-0.01,0.64
1697353933.96,0.07,0.34,1.21,-1.9,-2.9,7.3,0.77,0.01,-0.01,0.64
1697353933.97,0.07,0.22,1.06,1.4,-2.2,7.3,0.77,0.01,-0.01,0.64
1697353933.98,0.12,0.35,0.92,3.4,-2,8.2,0.76,0.01,-0.01,0.64
1697353933.99,0.09,0.05,1.02,3.4,-2,8.2,0.76,0.01,-0.01,0.64
1697353934,0.09,0.05,1.02,3.4,-2,8.2,0.76,0.01,-0.01,0.64
1697353934.01,0.09,0.05,1.02,3.4,-2,8.2,0.76,0.01,-0.01,0.64
1697353934.02,0.09,0.05,1.02,3.4,-2,8.2,0.76,0.01,-0.01,0.64
1697353934.03,0.09,0.05,1.02,3.4,-2,8.2,0.76,0.01,-0.01,0.64
1697353934.04,0.09,0.05,1.02,3.4,-2,8.2,0.76,0.01,-0.01,0.64
1697353934.05,0.09,0.05,1.02,3.4,-2,8.2,0.76,0.01,-0.01,0.64
1697353934.06,0.09,0.05,1.02,3.4,-2,8.2,0.76,0.01,-0.01,0.64
1697353934.07,0.09,0.05,1.02,3.4,-2,8.2,0.76,0.01,-0.01,0.64
1697353934.08,0.09,0.05,1.02,3.4,-2,8.2,0.76,0.01,-0.01,0.64
1697353934.09,0.09,0.05,1.02,3.4,-2,8.2,0.76,0.01,-0.01,0.64
1697353934.1,0.09,0.05,1.02,3.4,-2,8.2,0.76,0.01,-0.01,0.64
1697353934.11,0.09,0.05,1.02,3.4,-2,8.2,0.76,0.01,-0.01,0.64
1697353934.12,0.18,-0.1,1.28,3.5,-1.1,4.9,0.76,0.01,-0.01,0.65
1697353934.13,0.1,0.02,1.46,-0.4,-4.4,3.9,0.76,0.01,-0.01,0.65
1697353934.14,0.24,0.27,0.8,-3.4,-6.4,4.1,0.76,0.01,-0.01,0.65
1697353934.15,0.14,0.16,1,-2.1,-7.5,4.1,0.76,0.01,-0.01,0.65
1697353934.16,0.13,0.04,0.94,1.3,-7.2,3.7,0.76,0.01,-0.01,0.65
1697353934.17,0.01,-0.16,0.96,2.3,-5.4,3.2,0.76,0.01,-0.01,0.65
1697353934.18,-0.03,-0.24,0.75,0,-3.3,3.1,0.76,0.01,-0.01,0.65
1697353934.19,0.11,0,0.94,-3.3,-1.4,2.6,0.76,0.01,-0.01,0.65
1697353934.2,0.17,0.25,0.98,-3.3,-1.4,2.6,0.76,0.01,-0.01,0.65
1697353934.21,0.17,0.25,0.98,-3.2,0.6,2.2,0.76,0.01,-0.01,0.65
1697353934.22,0.2,0.07,0.93,-0.3,2.6,2.4,0.76,0.01,-0.01,0.65
1697353934.23,0.2,0.07,0.93,3.4,3.6,2.8,0.76,0.01,-0.01,0.65
1697353934.24,0.03,-0.13,1.26,-0.3,5.4,2,0.76,0.01,-0.01,0.65
1697353934.25,0.03,-0.13,1.26,-0.3,5.4,2,0.76,0.01,-0.01,0.65
1697353934.26,0.23,0.28,0.98,-5.6,6,2.2,0.76,0.01,-0.01,0.65
1697353934.27,0.11,0.23,1.22,-3.2,5.4,2.2,0.76,0.01,-0.01,0.65
1697353934.28,0.11,0.02,0.91,0.9,4.4,2.4,0.76,0.01,-0.01,0.65
1697353934.29,0.18,-0.1,1.09,2,3.2,2,0.76,0.01,-0.01,0.65
1697353934.3,0.26,-0.19,0.79,0.8,2,1.5,0.76,0.01,-0.01,0.65
1697353934.31,0.23,-0.03,1.02,-2.2,0.7,0.6,0.76,0.01,-0.01,0.65
1697353934.32,0.36,-0.02,0.8,-1.5,-0.6,-0.1,0.76,0.01,-0.01,0.65
1697353934.33,0.31,0.12,1.06,0,-2.1,-0.6,0.76,0.01,-0.01,0.65
1697353934.34,0.27,-0.01,0.94,2.7,-3.8,-0.2,0.76,0.01,-0.01,0.65
1697353934.35,0.1,-0.02,1,4.2,-4.7,-0.2,0.76,0.01,-0.01,0.65
1697353934.36,0.06,-0.03,1.07,1.4,-5,0,0.76,0.01,-0.01,0.65
1697353934.37,0,0.01,1.11,0.1,-4.8,0.3,0.76,0.01,-0.01,0.65
1697353934.38,0.06,0.11,0.88,0.1,-4.8,0.3,0.76,0.01,-0.01,0.65
1697353934.39,0.06,0.01,1.15,0,-0.9,1.3,0.76,0.01,-0.01,0.65
1697353934.4,0.16,0.02,1.04,-0.2,1.6,2,0.76,0.01,-0.01,0.65
1697353934.41,0.21,0.06,1.16,-0.4,3.6,2.4,0.76,0.01,-0.01,0.65
1697353934.42,0.3,0.05,0.98,-0.2,4.4,2.5,0.76,0.01,-0.01,0.65
1697353934.43,0.42,0.16,0.77,0.3,4.3,2.8,0.76,0.01,-0.01,0.65
1697353934.44,0.23,0.14,1.31,-0.2,3.7,3.3,0.76,0.01,-0.01,0.65
1697353934.45,0.29,0.21,0.95,0.8,2.4,3.6,0.76,0.01,-0.01,0.65
1697353934.46,0.29,0.21,0.95,0.8,2.4,3.6,0.76,0.01,-0.01,0.65
1697353934.47,0.16,0.19,0.99,3,-0.4,4.3,0.76,0.01,-0.01,0.65
1697353934.48,0.1,0,1.21,3,-0.4,4.3,0.76,0.01,-0.01,0.65
1697353934.49,0.12,0.03,0.94,1.6,-2.1,4,0.76,0.02,-0.01,0.66
1697353934.5,0.12,0.03,0.94,1.6,-2.1,4,0.76,0.02,-0.01,0.66
1697353934.51,0.12,0.03,0.94,1.6,-2.1,4,0.76,0.02,-0.01,0.66
1697353934.52,0.12,0.03,0.94,1.6,-2.1,4,0.76,0.02,-0.01,0.66
1697353934.53,0.12,0.03,0.94,1.6,-2.1,4,0.76,0.02,-0.01,0.66
1697353934.54,0.12,0.03,0.94,1.6,-2.1,4,0.76,0.02,-0.01,0.66
1697353934.55,0.12,0.03,0.94,1.6,-2.1,4,0.76,0.02,-0.01,0.66
1697353934.56,0.12,0.03,0.94,1.6,-2.1,4,0.76,0.02,-0.01,0.66
1697353934.57,0.12,0.03,0.94,1.6,-2.1,4,0.76,0.02,-0.01,0.66
1697353934.58,0.12,0.03,0.94,1.6,-2.1,4,0.76,0.02,-0.01,0.66
1697353934.59,0.12,0.03,0.94,1.6,-2.1,4,0.76,0.02,-0.01,0.66
1697353934.6,0.12,0.03,0.94,1.6,-2.1,4,0.76,0.02,-0.01,0.66
1697353934.61,0.12,0.03,0.94,1.6,-2.1,4,0.76,0.02,-0.01,0.66
1697353934.62,0.12,0.03,0.94,1.6,-2.1,4,0.76,0.02,-0.01,0.66
1697353934.63,0.14,-0.08,1.04,-2.3,2.3,0.6,0.75,0.01,-0.01,0.66
1697353934.64,0.21,0.06,1.18,-1.5,1.2,1,0.75,0.01,-0.01,0.66
1697353934.65,0.23,0.08,0.88,1.1,-0.2,0.4,0.75,0.01,-0.01,0.66
1697353934.66,0.06,-0.01,0.77,2,-0.6,0.5,0.75,0.01,-0.01,0.66
1697353934.67,-0.02,-0.13,0.82,1.9,-0.9,0.7,0.75,0.02,-0.01,0.66
1697353934.68,0.08,0.03,1.11,1.1,-1.1,1,0.75,0.02,-0.01,0.66
1697353934.69,-0.04,0.03,0.88,0.2,-1.5,1.3,0.75,0.02,-0.01,0.66
1697353934.7,-0.09,-0,0.75,0.8,-1.7,1.6,0.75,0.02,-0.01,0.66
1697353934.71,-0.02,-0.03,1.08,2.2,-0.9,1.4,0.75,0.02,-0.01,0.66
1697353934.72,-0.12,-0.17,1.09,2.3,-1.1,1.6,0.75,0.02,-0.01,0.66
1697353934.73,0.1,-0.12,0.9,-0.7,-0.3,1.2,0.75,0.02,-0.01,0.66
1697353934.74,0.13,0.02,0.73,-1.3,0,0.6,0.75,0.02,-0.01,0.66
1697353934.75,-0.01,0.16,1.07,0.2,0.1,0.9,0.75,0.02,-0.01,0.66
1697353934.76,0.06,-0.04,1.15,0.7,0.4,1,0.75,0.02,-0.01,0.66
1697353934.77,0.03,-0.06,1.26,0.6,0.5,0.9,0.75,0.02,-0.01,0.66
1697353934.78,-0.03,0.01,0.87,-0.6,0.7,0.4,0.75,0.02,-0.01,0.66
1697353934.79,-0.01,0.08,0.8,-2.2,1.7,0.1,0.75,0.02,-0.01,0.66
1697353934.8,-0.09,0.2,1.02,-1.4,2.9,0,0.75,0.02,-0.01,0.66
1697353934.81,-0.12,0,1.1,1.6,3.4,0.4,0.75,0.02,-0.01,0.66
1697353934.82,-0.13,0,1.1,2.3,3.9,0.5,0.75,0.01,-0.01,0.66
1697353934.83,0.14,-0.1,0.81,2.3,3.9,0.5,0.75,0.01,-0.01,0.66
1697353934.84,0.13,-0.28,0.82,1.3,4.2,-0.2,0.75,0.01,-0.01,0.66
1697353934.85,0.13,-0.02,1.08,-3.3,2.9,-1.2,0.75,0.01,-0.01,0.66
1697353934.86,0.13,-0.02,1.08,-3.3,2.9,-1.2,0.75,0.01,-0.01,0.66
1697353934.87,0.07,0.12,0.71,-0.3,1.4,-1,0.75,0.01,-0.01,0.66
1697353934.88,0.07,0.12,0.71,-0.3,1.4,-1,0.75,0.01,-0.01,0.66
1697353934.89,-0.02,-0.03,0.77,-1.4,2.1,-1.7,0.75,0.01,-0.01,0.66
1697353934.9,-0.02,-0.03,0.77,-1.4,2.1,-1.7,0.75,0.01,-0.01,0.66
1697353934.91,-0.08,-0.03,0.59,-2.2,2.9,-1.5,0.75,0.01,-0.01,0.66
1697353934.92,-0.08,-0.1,1.4,-2.4,3,-1.7,0.75,0.01,-0.01,0.66
1697353934.93,-0.08,0.01,1.1,-0.2,1.3,-1.8,0.75,0.01,-0.01,0.66
1697353934.94,-0.09,-0.21,0.92,2.5,0.4,-1.5,0.75,0.01,-0.01,0.66
1697353934.95,-0.35,-0.23,0.82,1.4,1,-1.7,0.75,0.01,-0.01,0.66
1697353934.96,-0.35,-0.23,0.82,1.4,1,-1.7,0.75,0.01,-0.01,0.66
1697353934.97,-0.52,-0.19,0.96,-1.3,3.1,-1.7,0.75,0.01,-0.01,0.66
1697353934.98,-0.41,0.25,0.7,-3.3,3.9,-1.5,0.75,0.01,-0.01,0.66
1697353934.99,-0.41,0.25,0.7,-2.6,3.5,-0.7,0.75,0.01,-0.01,0.66
1697353935,-0.13,0.01,0.9,-0.1,2.2,0,0.75,0.01,-0.01,0.66
1697353935.01,0.11,-0.13,1.12,-0.4,0.5,-0.2,0.75,0.01,-0.01,0.66
1697353935.02,0.04,-0.06,0.91,-1.7,-1.6,-0.8,0.75,0.01,-0.01,0.66
1697353935.03,0.04,-0.06,0.91,-1.7,-1.6,-0.8,0.75,0.01,-0.01,0.66
1697353935.04,0.04,-0.06,0.91,-1.7,-1.6,-0.8,0.75,0.01,-0.01,0.66
1697353935.05,0.04,-0.06,0.91,-1.7,-1.6,-0.8,0.75,0.01,-0.01,0.66
1697353935.06,0.04,-0.06,0.91,-1.7,-1.6,-0.8,0.75,0.01,-0.01,0.66
1697353935.07,0.04,-0.06,0.91,-1.7,-1.6,-0.8,0.75,0.01,-0.01,0.66
1697353935.08,0.04,-0.06,0.91,-1.7,-1.6,-0.8,0.75,0.01,-0.01,0.66
1697353935.09,0.04,-0.06,0.91,-1.7,-1.6,-0.8,0.75,0.01,-0.01,0.66
1697353935.1,0.04,-0.06,0.91,-1.7,-1.6,-0.8,0.75,0.01,-0.01,0.66
1697353935.11,0.04,-0.06,0.91,-1.7,-1.6,-0.8,0.75,0.01,-0.01,0.66
1697353935.12,0.04,-0.06,0.91,-1.7,-1.6,-0.8,0.75,0.01,-0.01,0.66
1697353935.13,0.04,-0.06,0.91,-1.7,-1.6,-0.8,0.75,0.01,-0.01,0.66
1697353935.14,0.04,-0.06,0.91,-1.7,-1.6,-0.8,0.75,0.01,-0.01,0.66
1697353935.15,-0.19,-0.14,1.2,-0.8,2.2,-2.9,0.76,0.01,-0.01,0.65
1697353935.16,0.11,-0.01,0.99,-1.8,1,-2.9,0.76,0.01,-0.01,0.65
1697353935.17,-0.01,-0.16,1.02,-0.3,0,-3.1,0.76,0.01,-0.01,0.65
1697353935.18,-0.25,-0.11,1,-0.3,0,-3.1,0.76,0.01,-0.01,0.65
1697353935.19,-0.4,-0.03,0.8,-0.7,-0.9,-3.4,0.76,0.01,-0.01,0.65
1697353935.2,-0.22,-0.14,0.73,-0.5,0,-3.5,0.76,0.01,-0.01,0.65
1697353935.21,-0.36,-0.05,0.97,-2.5,0.6,-3.6,0.76,0.01,-0.01,0.65
1697353935.22,-0.14,-0.03,1.09,-3.3,0.6,-3.3,0.76,0.01,-0.01,0.65
1697353935.23,-0.11,0.1,1.2,-1.1,-0.6,-1.9,0.76,0.01,-0.01,0.65
1697353935.24,-0.1,0.1,1.04,3.1,-1,-1.7,0.76,0.01,-0.01,0.65
1697353935.25,-0.1,-0.25,0.75,3.1,-1,-1.7,0.76,0.01,-0.01,0.65
1697353935.26,-0.02,-0.3,0.78,3.1,-1.5,-1.8,0.76,0.01,-0.01,0.65
1697353935.27,-0.11,-0.14,1.01,-0.9,-0.9,-2.1,0.76,0.01,-0.01,0.65
1697353935.28,-0.06,-0.06,1.01,-0.9,-0.9,-2.1,0.76,0.01,-0.01,0.65
1697353935.29,-0.08,0.02,1.12,-1.5,0,-2.7,0.76,0.01,-0.01,0.65
1697353935.3,-0.1,0.02,0.79,0,0,-2.4,0.76,0.01,-0.01,0.65
1697353935.31,-0.19,-0.08,1.24,0,0,-2.4,0.76,0.01,-0.01,0.65
1697353935.32,-0.19,-0.08,1.24,1,-0.1,-2.5,0.76,0.01,-0.01,0.65
1697353935.33,-0.11,-0.07,0.88,-0.1,0.1,-2.5,0.76,0.01,-0.01,0.65
1697353935.34,-0.04,-0.03,0.96,-1.6,0.8,-2.7,0.76,0.01,-0.01,0.65
1697353935.35,-0.16,0.1,0.86,-1.6,1.1,-3,0.76,0.01,-0.01,0.65
1697353935.36,-0.18,0.01,1.03,-0.9,1.6,-3,0.76,0.01,-0.01,0.65
1697353935.37,-0.32,-0.08,1.16,0.5,2,-2.8,0.76,0.01,-0.01,0.65
1697353935.38,-0.14,-0.11,0.9,1.1,2,-2.9,0.76,0.01,-0.01,0.65
1697353935.39,-0.21,-0.05,0.77,1.4,1.8,-3.2,0.76,0.01,-0.01,0.65
1697353935.4,-0.2,-0.07,0.96,1.3,1.8,-3.3,0.76,0.01,-0.01,0.65
1697353935.41,-0.32,-0.08,0.87,1.1,1.6,-3.5,0.76,0.01,-0.01,0.65
1697353935.42,-0.44,-0.12,1.06,0.4,1.5,-3.5,0.76,0.01,-0,0.65
1697353935.43,-0.24,-0.09,0.89,-0.1,2,-3.6,0.76,0.01,-0,0.65
1697353935.44,-0.3,-0.08,0.96,-1,1.9,-3.5,0.76,0.01,-0,0.65
1697353935.45,-0.34,0.03,1.18,-0.6,1.2,-2.4,0.76,0.01,-0,0.65
1697353935.46,-0.25,-0.06,0.67,1.3,1.2,-1.8,0.76,0.01,-0,0.65
1697353935.47,-0.24,-0.19,1.35,2.7,1.3,-2.3,0.76,0.01,-0,0.65
1697353935.48,-0.12,-0.26,0.94,0,0,-2.4,0.76,0.01,-0,0.65
1697353935.49,-0.17,-0.13,0.78,-2.6,-1.4,-2.4,0.76,0.01,-0,0.65
1697353935.5,-0.18,0.06,0.88,-1.4,-1.2,-2.9,0.76,0.01,-0,0.65
1697353935.51,-0.34,0.02,1.15,0.8,-1,-3.1,0.76,0.01,-0,0.65
1697353935.52,-0.36,-0.12,1.05,3.3,-0.1,-3.5,0.76,0.01,-0,0.65
1697353935.53,-0.12,-0.25,0.88,1.6,0,-3.5,0.76,0.01,-0,0.65
1697353935.54,-0.12,-0.25,0.88,1.6,0,-3.5,0.76,0.01,-0,0.65
1697353935.55,-0.12,-0.25,0.88,1.6,0,-3.5,0.76,0.01,-0,0.65
1697353935.56,-0.12,-0.25,0.88,1.6,0,-3.5,0.76,0.01,-0,0.65
1697353935.57,-0.12,-0.25,0.88,1.6,0,-3.5,0.76,0.01,-0,0.65
1697353935.58,-0.12,-0.25,0.88,1.6,0,-3.5,0.76,0.01,-0,0.65
1697353935.59,-0.12,-0.25,0.88,1.6,0,-3.5,0.76,0.01,-0,0.65
1697353935.6,-0.12,-0.25,0.88,1.6,0,-3.5,0.76,0.01,-0,0.65
1697353935.61,-0.12,-0.25,0.88,1.6,0,-3.5,0.76,0.01,-0,0.65
1697353935.62,-0.12,-0.25,0.88,1.6,0,-3.5,0.76,0.01,-0,0.65
1697353935.63,-0.12,-0.25,0.88,1.6,0,-3.5,0.76,0.01,-0,0.65
1697353935.64,-0.12,-0.25,0.88,1.6,0,-3.5,0.76,0.01,-0,0.65
1697353935.65,-0.12,-0.25,0.88,1.6,0,-3.5,0.76,0.01,-0,0.65
1697353935.66,-0.12,-0.25,0.88,1.6,0,-3.5,0.76,0.01,-0,0.65
1697353935.67,-0.17,0.19,0.67,-2.9,2.1,-2.1,0.76,0.01,-0,0.64
1697353935.68,-0.17,0.19,0.67,-2.9,2.1,-2.1,0.76,0.01,-0,0.64
1697353935.69,-0.28,0.32,0.93,0.9,1.7,0.7,0.76,0.01,-0,0.64
1697353935.7,-0.28,0.32,0.93,0.9,1.7,0.7,0.76,0.01,-0,0.64
1697353935.71,-0.43,0.12,1.13,3.9,1.5,2.3,0.76,0.01,-0,0.64
1697353935.72,-0.32,0.11,0.89,4.5,1.5,3.5,0.76,0.01,-0,0.64
1697353935.73,-0.39,0.26,0.98,1.7,1.3,5,0.76,0.01,-0,0.65
1697353935.74,-0.42,0.29,1.26,0.2,0.9,6.2,0.76,0.01,-0,0.65
1697353935.75,-0.36,0.23,0.83,0.3,1.2,7.3,0.76,0.01,-0,0.65
1697353935.76,-0.36,0.23,0.83,2.2,1.1,7.8,0.76,0.01,-0,0.65
1697353935.77,-0.35,0.13,0.67,3.3,1.1,8.1,0.76,0.01,-0,0.65
1697353935.78,-0.28,0.26,0.91,3.3,1.5,8.3,0.76,0.01,-0,0.65
1697353935.79,-0.39,0.19,1.09,1.8,1.7,8.5,0.76,0.01,-0,0.65
1697353935.8,-0.39,0.32,0.88,1.3,1.3,8.4,0.76,0.01,-0,0.65
1697353935.81,-0.39,0.32,0.88,-0.6,0.8,8.2,0.76,0.01,-0,0.65
1697353935.82,-0.2,0.55,0.77,-1.7,0.6,8.5,0.76,0.01,-0,0.65
1697353935.83,-0.37,0.45,1.02,-0.7,0,10,0.76,0.01,-0,0.65
1697353935.84,-0.39,0.36,1.06,2.2,-0.3,10.8,0.76,0.01,-0,0.65
1697353935.85,-0.29,0.31,0.83,3.1,-0.6,11.8,0.76,0.01,-0,0.65
1697353935.86,-0.31,0.31,0.86,2.6,-0.6,12.8,0.76,0.01,-0,0.65
1697353935.87,-0.24,0.37,0.81,1,-0.3,13.6,0.76,0.01,-0,0.65
1697353935.88,-0.36,0.33,0.96,0.9,0.2,14.4,0.76,0.01,-0,0.65
1697353935.89,-0.4,0.27,0.86,1.4,0.6,15,0.76,0.01,-0,0.66
1697353935.9,-0.42,0.27,0.96,1.6,1.2,15.5,0.75,0.01,-0,0.66
1697353935.91,-0.33,0.32,0.85,0.6,1.4,15.9,0.75,0.01,-0,0.66
1697353935.92,-0.45,0.37,1.06,0.7,1.3,16.5,0.75,0.01,-0,0.66
1697353935.93,-0.42,0.32,1.15,0.7,1.3,16.5,0.75,0.01,-0,0.66
1697353935.94,-0.37,0.54,1.26,0,0.3,16.7,0.75,0.01,-0,0.66
1697353935.95,-0.26,0.57,0.65,-0.2,0,17.5,0.75,0.01,-0,0.66
1697353935.96,-0.5,0.6,1.13,1.4,0.2,18.2,0.75,0.01,-0,0.66
1697353935.97,-0.39,0.51,1.09,2.8,0.6,18.7,0.75,0.01,-0,0.66
1697353935.98,-0.34,0.53,1.01,2.8,0.6,18.7,0.75,0.01,-0,0.67
1697353935.99,-0.4,0.52,1.16,1.2,0.4,20.4,0.75,0.01,0,0.67
1697353936,-0.36,0.62,1.31,0.7,0.6,21.3,0.74,0.01,0,0.67
1697353936.01,-0.39,0.62,1.03,1.7,0.3,22.3,0.74,0.01,0,0.67
1697353936.02,-0.42,0.5,1.26,2.7,0,23.5,0.74,0.01,0,0.67
1697353936.03,-0.23,0.43,0.68,2.7,0,23.5,0.74,0.01,0,0.67
1697353936.04,-0.31,0.56,1.1,2.4,-0.3,24.4,0.74,0.01,0,0.67
1697353936.05,-0.26,0.66,0.85,0.1,-0.6,25,0.74,0.01,0,0.68
1697353936.06,-0.26,0.66,0.85,-0.6,-0.7,25.5,0.74,0.01,0,0.68
1697353936.07,-0.26,0.66,0.85,-0.6,-0.7,25.5,0.74,0.01,0,0.68
1697353936.08,-0.26,0.66,0.85,-0.6,-0.7,25.5,0.74,0.01,0,0.68
1697353936.09,-0.26,0.66,0.85,-0.6,-0.7,25.5,0.74,0.01,0,0.68
1697353936.1,-0.26,0.66,0.85,-0.6,-0.7,25.5,0.74,0.01,0,0.68
1697353936.11,-0.26,0.66,0.85,-0.6,-0.7,25.5,0.74,0.01,0,0.68
1697353936.12,-0.26,0.66,0.85,-0.6,-0.7,25.5,0.74,0.01,0,0.68
1697353936.13,-0.26,0.66,0.85,-0.6,-0.7,25.5,0.74,0.01,0,0.68
1697353936.14,-0.26,0.66,0.85,-0.6,-0.7,25.5,0.74,0.01,0,0.68
1697353936.15,-0.26,0.66,0.85,-0.6,-0.7,25.5,0.74,0.01,0,0.68
1697353936.16,-0.26,0.66,0.85,-0.6,-0.7,25.5,0.74,0.01,0,0.68
1697353936.17,-0.26,0.66,0.85,-0.6,-0.7,25.5,0.74,0.01,0,0.68
1697353936.18,-0.26,0.66,0.85,-0.6,-0.7,25.5,0.74,0.01,0,0.68
1697353936.19,-0.12,0.56,0.8,0.9,0.1,34.8,0.71,0.01,0,0.7
1697353936.2,-0.27,0.68,1,-1.8,0,34.5,0.71,0.01,0,0.71
1697353936.21,-0.26,0.84,0.82,-1.6,0.1,34.6,0.71,0.01,0,0.71
1697353936.22,-0.34,0.82,1.21,-1.2,-0.6,35,0.7,0.01,0,0.71
1697353936.23,-0.24,0.84,0.8,-0.1,-0.9,35.4,0.7,0.01,0,0.71
1697353936.24,-0.11,0.94,0.55,1.1,-0.7,36.1,0.7,0.01,0,0.71
1697353936.25,-0.18,0.9,1,2,-0.2,37.4,0.7,0.01,0,0.72
1697353936.26,-0.24,0.84,1,2.4,-0.1,37.8,0.69,0.01,0,0.72
1697353936.27,-0.19,0.77,1.02,1.3,0,38.8,0.69,0.01,0,0.72
1697353936.28,-0.24,0.92,1.11,0,0,39.7,0.69,0.01,0,0.73
1697353936.29,-0.29,0.85,1.11,-1.4,0,40.9,0.69,0.01,0,0.73
1697353936.3,-0.35,1.09,1.39,-1.3,-0.1,42.1,0.69,0.01,0,0.73
1697353936.31,-0.35,1.09,1.39,1.5,-0.6,43.4,0.68,0.01,0,0.73
1697353936.32,-0.27,0.88,1.01,3.8,-0.9,44.5,0.68,0.01,0,0.73
1697353936.33,-0.31,0.72,1.33,3.8,-0.9,44.5,0.68,0.01,0,0.74
1697353936.34,-0.18,0.63,0.84,2.4,-1.3,44.5,0.67,0.01,0,0.74
1697353936.35,-0.16,0.67,0.87,2.4,-1.3,44.5,0.67,0.01,0,0.74
1697353936.36,-0.19,0.87,1.04,-3.6,-1.3,43.6,0.67,0.01,0,0.74
1697353936.37,-0.2,0.99,0.74,-3.6,-1.3,43.6,0.67,0.01,0,0.75
1697353936.38,-0.15,1.23,0.78,-3.3,-0.8,43.8,0.66,0.01,-0,0.75
1697353936.39,-0.23,1.13,0.88,0.1,-0.5,44.1,0.66,0.01,-0,0.75
1697353936.4,-0.29,0.82,1.2,3.3,-0.1,44.9,0.66,0.01,0,0.75
1697353936.41,-0.34,0.8,0.84,2.1,0.3,45.8,0.65,0.01,0,0.76
1697353936.42,-0.26,0.92,1.04,-1.6,0.8,46.5,0.65,0.01,0,0.76
1697353936.43,-0.12,0.97,0.82,-2.9,1.2,47.4,0.65,0.01,0,0.76
1697353936.44,-0.18,1.06,1.2,-2.1,0.8,48,0.64,0.01,0,0.76
1697353936.45,-0.15,1.06,0.75,0,0.3,49.1,0.64,0.01,0,0.77
1697353936.46,-0.19,0.91,1.47,2,-0.2,49.6,0.64,0.01,0,0.77
1697353936.47,-0.01,0.84,1.01,1.3,-1.4,49.5,0.63,0.01,0,0.77
1697353936.48,-0.01,0.67,0.97,1.3,-1.4,49.5,0.63,0.01,-0,0.78
1697353936.49,-0.26,0.55,1.38,-3.2,-3,47,0.63,0.01,-0,0.78
1697353936.5,-0.25,0.66,1.24,-3.2,-3,47,0.62,0.01,-0,0.78
1697353936.51,-0.07,0.7,0.78,-5.4,-3.1,45.5,0.62,0.01,-0,0.78
1697353936.52,-0.15,0.66,1.03,-4.4,-1.9,43.6,0.62,0.01,-0,0.79
1697353936.53,-0.05,0.65,0.69,-2.1,-0.4,41,0.61,0.01,-0,0.79
1697353936.54,-0.17,0.63,1.42,-1.1,-0.2,38.3,0.61,0.01,-0,0.79
1697353936.55,0,0.54,1.13,-0.3,-0.7,36.3,0.61,0.01,-0,0.79
1697353936.56,0,0.54,1.13,-1.3,-1,34.8,0.61,0.01,-0,0.79
1697353936.57,-0.1,0.56,0.8,-2.5,-1.6,33.4,0.6,0.01,-0,0.8
1697353936.58,-0.1,0.56,0.8,-2.5,-1.6,33.4,0.6,0.01,-0,0.8
1697353936.59,-0.1,0.56,0.8,-2.5,-1.6,33.4,0.6,0.01,-0,0.8
1697353936.6,-0.1,0.56,0.8,-2.5,-1.6,33.4,0.6,0.01,-0,0.8
1697353936.61,-0.1,0.56,0.8,-2.5,-1.6,33.4,0.6,0.01,-0,0.8
1697353936.62,-0.1,0.56,0.8,-2.5,-1.6,33.4,0.6,0.01,-0,0.8
1697353936.63,-0.1,0.56,0.8,-2.5,-1.6,33.4,0.6,0.01,-0,0.8
1697353936.64,-0.1,0.56,0.8,-2.5,-1.6,33.4,0.6,0.01,-0,0.8
1697353936.65,-0.1,0.56,0.8,-2.5,-1.6,33.4,0.6,0.01,-0,0.8
1697353936.66,-0.1,0.56,0.8,-2.5,-1.6,33.4,0.6,0.01,-0,0.8
1697353936.67,-0.1,0.56,0.8,-2.5,-1.6,33.4,0.6,0.01,-0,0.8
1697353936.68,-0.1,0.56,0.8,-2.5,-1.6,33.4,0.6,0.01,-0,0.8
1697353936.69,-0.1,0.56,0.8,-2.5,-1.6,33.4,0.6,0.01,-0,0.8
1697353936.7,0.08,0.02,0.52,-6.7,0.7,8.8,0.58,0.01,-0.01,0.81
1697353936.71,-0.22,-0.13,1.73,-5.3,0.3,6.6,0.58,0.01,-0.01,0.81
1697353936.72,0,-0.19,0.56,-3.7,-0.2,3.7,0.58,0.01,-0.01,0.81
1697353936.73,-0.01,-0.29,1.22,-3.7,-0.2,3.7,0.58,0.01,-0.01,0.81
1697353936.74,-0.14,-0.48,1.07,-1.6,-1.1,-1.4,0.58,0.01,-0.01,0.81
1697353936.75,-0.01,-0.45,0.79,-1.6,-1.1,-1.4,0.58,0.01,-0.01,0.81
1697353936.76,-0.18,-0.5,0.81,-2.6,-2.1,-4.6,0.58,0.01,-0.01,0.81
1697353936.77,-0.05,-0.67,1.22,-4.8,-2.3,-7.4,0.58,0.01,-0.01,0.81
1697353936.78,0.08,-0.57,0.42,-6,-1.9,-9.6,0.59,0.01,-0.01,0.81
1697353936.79,-0.01,-0.56,1.41,-6,-2.5,-11.9,0.59,0.01,-0.01,0.81
1697353936.8,0.05,-0.63,0.89,-6.9,-2.6,-13.6,0.59,0.01,-0.01,0.81
1697353936.81,-0.02,-0.53,1.29,-7.2,-2.6,-16.2,0.59,0.01,-0.01,0.81
1697353936.82,0.02,-0.7,0.96,-6.9,-2.5,-18.2,0.59,0.01,-0.01,0.81
1697353936.83,0.02,-0.79,0.9,-5.5,-2.3,-19.4,0.59,0.01,-0.01,0.81
1697353936.84,-0.01,-0.89,1.06,-4.4,-1.6,-22.1,0.59,0.01,-0.01,0.81
1697353936.85,-0.2,-0.79,1.11,-5.6,-0.7,-24.7,0.59,0.01,-0.01,0.8
1697353936.86,-0.05,-0.86,1,-6.2,0.4,-27.4,0.6,0.01,-0.01,0.8
1697353936.87,-0.01,-0.67,0.74,-6.3,1.2,-30.2,0.6,0.01,-0.01,0.8
1697353936.88,-0.05,-0.83,1.2,-5,1.5,-32.6,0.6,0.01,-0.01,0.8
1697353936.89,0.08,-0.85,0.74,-2.2,1.6,-34.7,0.6,0.01,-0.01,0.8
1697353936.9,-0.14,-0.73,1.27,-0.6,1.6,-36.5,0.61,0.01,-0.01,0.79
1697353936.91,0.04,-0.8,1.04,-0.4,0.5,-37.7,0.61,0.01,-0.01,0.79
1697353936.92,0.03,-0.88,0.92,-0.4,-0.3,-38,0.61,0.01,-0.01,0.79
1697353936.93,0.03,-0.88,0.92,0,-0.9,-38.1,0.61,0.01,-0.01,0.79
1697353936.94,-0.03,-0.87,0.9,-0.3,-1.7,-38.2,0.62,0.01,-0.01,0.79
1697353936.95,-0.03,-0.66,0.83,-1.9,-1.9,-37.5,0.62,0.01,-0.01,0.78
1697353936.96,0.07,-0.76,0.85,-4,-1.7,-37,0.62,0.01,-0.01,0.78
1697353936.97,-0.17,-0.76,1,-4.1,-1.1,-36.8,0.62,0.01,-0.01,0.78
1697353936.98,-0.17,-0.76,1,-4.1,-1.1,-36.8,0.62,0.01,-0.01,0.78
1697353936.99,-0.02,-0.87,0.9,-2.5,1.1,-37.3,0.63,0.01,-0.01,0.78
1697353937,-0.02,-0.87,0.9,-1.9,1.5,-38,0.63,0.01,-0.01,0.78
1697353937.01,-0.1,-0.87,1.17,-0.8,1.5,-39.2,0.63,0.01,-0.01,0.77
1697353937.02,-0.1,-1.09,0.98,-0.5,2,-40.8,0.64,0.01,-0.01,0.77
1697353937.03,-0.07,-1.03,0.98,-2.2,2,-43.4,0.64,0.01,-0.01,0.77
1697353937.04,0.14,-0.95,0.67,-3.8,1.6,-45.1,0.64,0,-0.01,0.77
1697353937.05,-0.01,-0.95,1.29,-3.7,0.9,-46.7,0.64,0,-0.01,0.76
1697353937.06,-0.09,-0.76,1.11,-2.1,0.9,-47.9,0.65,0,-0.01,0.76
1697353937.07,0.03,-0.86,1.04,0.8,1,-48.4,0.65,0,-0.01,0.76
1697353937.08,0.03,-0.86,1.04,0.8,1,-48.4,0.65,0,-0.01,0.76
1697353937.09,0.03,-0.86,1.04,0.8,1,-48.4,0.65,0,-0.01,0.76
1697353937.1,0.03,-0.86,1.04,0.8,1,-48.4,0.65,0,-0.01,0.76
1697353937.11,0.03,-0.86,1.04,0.8,1,-48.4,0.65,0,-0.01,0.76
1697353937.12,0.03,-0.86,1.04,0.8,1,-48.4,0.65,0,-0.01,0.76
1697353937.13,0.03,-0.86,1.04,0.8,1,-48.4,0.65,0,-0.01,0.76
1697353937.14,0.03,-0.86,1.04,0.8,1,-48.4,0.65,0,-0.01,0.76
1697353937.15,0.03,-0.86,1.04,0.8,1,-48.4,0.65,0,-0.01,0.76
1697353937.16,0.03,-0.86,1.04,0.8,1,-48.4,0.65,0,-0.01,0.76
1697353937.17,0.03,-0.86,1.04,0.8,1,-48.4,0.65,0,-0.01,0.76
1697353937.18,0.03,-0.86,1.04,0.8,1,-48.4,0.65,0,-0.01,0.76
1697353937.19,0.03,-0.86,1.04,0.8,1,-48.4,0.65,0,-0.01,0.76
1697353937.2,0.03,-0.86,1.04,-3.1,2.6,-45.2,0.65,0,-0.01,0.76
1697353937.21,-0.01,-0.85,0.88,-1.5,2.5,-45.1,0.69,0,-0.01,0.72
1697353937.22,0.17,-0.96,0.77,-0.3,2,-45,0.7,0,-0.01,0.72
1697353937.23,0.07,-0.78,0.96,0.9,1.6,-45.3,0.7,0,-0.01,0.71
1697353937.24,-0.11,-0.96,1.24,0.1,1.2,-45.9,0.7,0,-0.01,0.71
1697353937.25,0.16,-0.92,0.74,0.6,0,-45.7,0.71,0,-0.01,0.71
1697353937.26,0.01,-0.8,0.77,1.2,-0.9,-46.6,0.71,0,-0.01,0.7
1697353937.27,-0.22,-0.92,1.38,-0.1,-0.8,-46.9,0.71,0,-0.01,0.7
1697353937.28,-0.06,-0.73,0.95,-1.5,-0.6,-46.8,0.72,0,-0.01,0.7
1697353937.29,-0.13,-0.69,1.15,-2.4,0.3,-46.9,0.72,0,-0.01,0.7
1697353937.3,-0.07,-0.92,1,-1.1,1.1,-46.6,0.72,0,-0.01,0.69
1697353937.31,0.14,-0.9,0.81,-0.1,2.1,-46.4,0.72,0,-0.01,0.69
1697353937.32,0.05,-0.85,0.96,-1.1,2.9,-46.6,0.73,0,-0.01,0.69
1697353937.33,-0.05,-0.9,1.12,-1.9,3.1,-46.6,0.73,0,-0.01,0.68
1697353937.34,0.17,-0.84,0.91,-1.1,2.9,-46.2,0.73,0,-0.01,0.68
1697353937.35,0,-1.11,1,1.8,2.3,-46.5,0.73,0,-0.01,0.68
1697353937.36,0.16,-1.02,0.87,2,1.5,-46.1,0.74,0,-0.01,0.67
1697353937.37,0.14,-0.9,0.54,0.4,0.3,-46.3,0.74,0,-0.01,0.67
1697353937.38,0.14,-0.9,0.54,0.4,0.3,-46.3,0.74,0,-0.01,0.67
1697353937.39,-0.14,-0.88,1.12,-2.4,0.2,-46.9,0.74,0,-0.01,0.67
1697353937.4,-0.14,-0.88,1.12,-0.5,0,-46.6,0.75,0,-0.01,0.66
1697353937.41,-0.17,-0.85,1.11,0.9,0.1,-46.6,0.75,0,-0.01,0.66
1697353937.42,-0.03,-0.92,0.69,1.6,0.5,-46.2,0.75,0,-0.01,0.66
1697353937.43,0.01,-0.93,0.88,1.6,0.5,-46.2,0.76,0,-0.01,0.65
1697353937.44,-0.15,-0.96,1.17,1.2,0.9,-46.3,0.76,0,-0.01,0.65
1697353937.45,-0.13,-0.83,1.37,-0.8,1.1,-46.6,0.76,0,-0.01,0.65
1697353937.46,0.09,-1,0.78,-0.8,1.1,-46.6,0.76,0,-0.01,0.65
1697353937.47,0.03,-0.85,1.02,-1,0.5,-47,0.77,0,-0.01,0.64
1697353937.48,-0.05,-0.72,0.9,-1,0.5,-47,0.77,0,-0.01,0.64
1697353937.49,-0.01,-0.83,0.91,0.7,0.6,-46.8,0.77,0,-0.01,0.64
1697353937.5,-0.18,-1.05,1.08,2.3,0.9,-46.3,0.77,0,-0.01,0.63
1697353937.51,-0.09,-1.01,0.69,3.3,1.5,-46.6,0.78,0,-0.01,0.63
1697353937.52,-0.09,-0.9,1.14,2.5,2.2,-47.1,0.78,0,-0.01,0.63
1697353937.53,-0.01,-0.83,0.85,0.1,2.7,-47.1,0.78,0,-0.01,0.62
1697353937.54,-0.18,-1.16,1.01,0.6,3.3,-47,0.78,0,-0.01,0.62
1697353937.55,-0.12,-1.07,0.81,2.3,4,-47.3,0.78,0,-0.01,0.62
1697353937.56,0.03,-0.92,0.85,0.5,3.3,-48.6,0.79,0,-0.01,0.61
1697353937.57,0.03,-0.92,0.85,-1.7,2.5,-48.7,0.79,0,-0.01,0.61
1697353937.58,-0.16,-0.82,0.92,-1.6,2.1,-49.1,0.79,0,-0.01,0.61
1697353937.59,-0.02,-0.9,0.83,-0.6,1.7,-49.2,0.79,0,-0.01,0.61
1697353937.6,-0.02,-0.9,0.83,-0.6,1.7,-49.2,0.79,0,-0.01,0.61
1697353937.61,-0.02,-0.9,0.83,-0.6,1.7,-49.2,0.79,0,-0.01,0.61
1697353937.62,-0.02,-0.9,0.83,-0.6,1.7,-49.2,0.79,0,-0.01,0.61
1697353937.63,-0.02,-0.9,0.83,-0.6,1.7,-49.2,0.79,0,-0.01,0.61
1697353937.64,-0.02,-0.9,0.83,-0.6,1.7,-49.2,0.79,0,-0.01,0.61
1697353937.65,-0.02,-0.9,0.83,-0.6,1.7,-49.2,0.79,0,-0.01,0.61
1697353937.66,-0.02,-0.9,0.83,-0.6,1.7,-49.2,0.79,0,-0.01,0.61
1697353937.67,-0.02,-0.9,0.83,-0.6,1.7,-49.2,0.79,0,-0.01,0.61
1697353937.68,-0.02,-0.9,0.83,-0.6,1.7,-49.2,0.79,0,-0.01,0.61
1697353937.69,-0.02,-0.9,0.83,-0.6,1.7,-49.2,0.79,0,-0.01,0.61
1697353937.7,-0.02,-0.9,0.83,-0.6,1.7,-49.2,0.79,0,-0.01,0.61
1697353937.71,-0.02,-0.9,0.83,-0.6,1.7,-49.2,0.79,0,-0.01,0.61
1697353937.72,-0.02,-0.9,0.83,-0.6,1.7,-49.2,0.79,0,-0.01,0.61
1697353937.73,-0.06,-0.69,0.87,1.6,0.3,-46.5,0.83,0,-0.01,0.56
1697353937.74,-0.11,-0.71,1.16,3.4,-0.6,-45.6,0.83,0,-0.01,0.55
1697353937.75,-0.12,-0.58,0.94,3.8,-1.3,-44.4,0.83,0,-0.01,0.55
1697353937.76,-0.12,-0.58,0.94,2.7,-1.6,-43,0.84,0,-0.01,0.55
1697353937.77,-0.36,-0.61,1.3,0.8,-1,-41,0.84,0,-0.01,0.55
1697353937.78,-0.26,-0.33,1.19,0.8,-1,-41,0.84,0,-0.01,0.54
1697353937.79,-0.23,-0.31,1.14,0.5,1.2,-35,0.84,0,-0.01,0.54
1697353937.8,-0.19,-0.24,1.05,4,3,-31.6,0.84,0,-0.01,0.54
1697353937.81,-0.14,-0.23,0.94,6.1,4.5,-28.7,0.85,0,-0.01,0.53
1697353937.82,-0.1,-0.39,1.16,6.9,5.3,-26.4,0.85,0,-0,0.53
1697353937.83,0.04,-0.34,0.89,6.9,5.3,-26.4,0.85,0,-0,0.53
1697353937.84,0.05,-0.13,0.82,5.9,4.9,-22.2,0.85,0,-0,0.53
1697353937.85,-0.06,-0.08,1.05,5.4,3.1,-19.5,0.85,0,-0,0.53
1697353937.86,-0.24,0.17,1.3,5.4,3.1,-19.5,0.85,0,-0,0.53
1697353937.87,0.15,0.35,0.75,5.2,1,-16.6,0.85,0,-0,0.52
1697353937.88,-0.04,0.3,1.44,4.6,-0.8,-12.4,0.85,0.01,-0,0.52
1697353937.89,0.06,0.48,0.6,6.8,-3.9,-4.2,0.85,0.01,-0,0.52
1697353937.9,-0.14,0.4,1.12,7.4,-4.1,-0.1,0.85,0.01,-0,0.52
1697353937.91,-0.18,0.4,0.81,7.5,-3.8,3.1,0.85,0.01,-0,0.52
1697353937.92,-0,0.59,0.89,7.5,-3.8,3.1,0.85,0.01,-0,0.52
1697353937.93,-0.14,0.49,1,7,-2.7,6.8,0.85,0.01,-0,0.52
1697353937.94,-0.12,0.59,1.32,7.2,-2.2,9.7,0.85,0.01,-0,0.52
1697353937.95,-0.23,0.55,1,7,-1.5,11.6,0.85,0.01,-0,0.53
1697353937.96,0.06,0.56,0.55,7,-1.1,13.8,0.85,0.01,-0,0.53
1697353937.97,-0.18,0.51,1.23,7.5,-1.2,15.5,0.85,0.01,-0,0.53
1697353937.98,-0.3,0.53,0.88,5.9,-0.7,16.9,0.85,0.01,-0,0.53
1697353937.99,-0.31,0.66,1.05,4,-0.4,17.5,0.85,0.01,-0,0.53
1697353938,-0.2,0.56,0.95,2.3,-0.3,18.6,0.85,0.01,-0,0.53
1697353938.01,-0.23,0.77,1.14,1.2,0.2,19.6,0.85,0.01,-0,0.53
1697353938.02,-0.13,1.08,1.17,-1.1,1.2,21.2,0.84,0.01,-0,0.54
1697353938.03,-0.2,0.89,1.12,-0.9,1.6,24,0.84,0.01,-0,0.54
1697353938.04,-0.12,0.77,1.07,0.4,1.6,27.5,0.84,0.01,0,0.54
1697353938.05,-0.01,0.76,0.95,2.4,1.4,29.9,0.84,0.01,0,0.54
1697353938.06,-0.09,0.69,0.91,2.4,1,32,0.84,0.01,0,0.54
1697353938.07,-0.18,0.86,1.3,0.1,0.2,34.7,0.84,0.01,0,0.54
1697353938.08,-0.06,0.81,0.81,-0.1,0.1,36,0.84,0.01,0,0.55
1697353938.09,-0.05,0.84,0.92,1.3,0,37,0.83,0.01,0,0.55
1697353938.1,-0.17,0.82,1.13,3.2,-0.6,38.2,0.83,0.01,0,0.56
1697353938.11,-0.13,0.81,0.98,5.1,-1,38.9,0.83,0.01,0,0.56
1697353938.12,-0.13,0.81,0.98,5.1,-1,38.9,0.83,0.01,0,0.56
1697353938.13,-0.13,0.81,0.98,5.1,-1,38.9,0.83,0.01,0,0.56
1697353938.14,-0.13,0.81,0.98,5.1,-1,38.9,0.83,0.01,0,0.56
1697353938.15,-0.13,0.81,0.98,5.1,-1,38.9,0.83,0.01,0,0.56
1697353938.16,-0.13,0.81,0.98,5.1,-1,38.9,0.83,0.01,0,0.56
1697353938.17,-0.13,0.81,0.98,5.1,-1,38.9,0.83,0.01,0,0.56
1697353938.18,-0.13,0.81,0.98,5.1,-1,38.9,0.83,0.01,0,0.56
1697353938.19,-0.13,0.81,0.98,5.1,-1,38.9,0.83,0.01,0,0.56
1697353938.2,-0.13,0.81,0.98,5.1,-1,38.9,0.83,0.01,0,0.56
1697353938.21,-0.13,0.81,0.98,5.1,-1,38.9,0.83,0.01,0,0.56
1697353938.22,-0.13,0.81,0.98,5.1,-1,38.9,0.83,0.01,0,0.56
1697353938.23,-0.13,0.81,0.98,5.1,-1,38.9,0.83,0.01,0,0.56
1697353938.24,-0.17,1.04,0.83,-0.3,-0.2,50.4,0.8,0.01,-0,0.6
1697353938.25,-0.32,0.97,1.3,2.8,1.5,52.5,0.8,0.01,-0,0.6
1697353938.26,-0.07,0.99,0.89,2.8,1.5,52.5,0.8,0.01,-0,0.6
1697353938.27,-0.04,0.85,1.14,4.3,2.5,52.8,0.79,0.01,0,0.61
1697353938.28,-0.04,0.85,1.14,4.6,2.8,52.9,0.79,0.01,0,0.61
1697353938.29,-0.16,0.73,1.08,3.3,3,52.7,0.79,0.01,0,0.62
1697353938.3,0.26,0.81,0.68,-0.1,3,51.8,0.79,0.01,0,0.62
1697353938.31,0.26,0.99,0.51,-3,2.1,50.4,0.78,0.01,0,0.62
1697353938.32,0.26,0.99,0.51,-3,2.1,50.4,0.78,0.01,0,0.63
1697353938.33,0.02,1.14,1.01,-2.7,1.4,50,0.78,0.01,0,0.63
1697353938.34,-0.23,1.05,1.1,1.2,1.3,50.3,0.77,0.01,0,0.63
1697353938.35,-0.11,1.02,0.61,2.3,1.5,50.7,0.77,0.01,0,0.63
1697353938.36,-0.26,0.87,1.03,1.9,1.5,51,0.77,0.01,0,0.64
1697353938.37,-0.01,0.85,0.96,0,0.9,51.1,0.77,0.01,0,0.64
1697353938.38,-0.08,0.94,0.93,-2.1,0.5,51.7,0.77,0.01,0,0.64
1697353938.39,-0.09,0.92,0.75,-2,0.1,51.8,0.76,0.01,0,0.65
1697353938.4,-0.18,0.99,0.89,-0.5,-0.1,51.7,0.76,0.01,0,0.65
1697353938.41,-0.1,0.88,0.92,0.5,0.4,51.8,0.76,0.01,0,0.65
1697353938.42,0,0.99,0.65,1.7,1.1,51.7,0.75,0.01,0,0.66
1697353938.43,-0.15,0.81,1.07,2.3,1.1,51.8,0.75,0.01,0,0.66
1697353938.44,-0.13,0.84,0.97,2.1,1.3,51.7,0.75,0.01,0,0.67
1697353938.45,-0.15,0.77,1.12,0,1,51.6,0.74,0.01,0,0.67
1697353938.46,-0.05,0.92,1.13,-3.3,1.4,51.7,0.74,0.01,0,0.67
1697353938.47,-0.12,1.15,1.26,-3,1.5,52.1,0.74,0.01,0,0.68
1697353938.48,-0.14,0.98,0.84,0.2,1.3,53,0.73,0.01,0,0.68
1697353938.49,-0.13,0.94,1.09,1.7,1.3,53.1,0.73,0.01,0,0.68
1697353938.5,-0.21,0.81,1.23,1.3,1,53.1,0.73,0.01,0,0.69
1697353938.51,-0.1,0.97,0.65,-1.8,1.9,53.8,0.72,0.01,0,0.69
1697353938.52,-0.07,1.12,1.12,-2.9,2.2,53.8,0.72,0.01,0,0.69
1697353938.53,-0.08,1.21,1.04,-2.9,2.2,53.8,0.72,0.01,0,0.7
1697353938.54,-0.14,1.05,1.59,3.1,2.1,54.8,0.71,0.01,0,0.7
1697353938.55,-0.02,0.86,0.59,4.8,1.3,55.4,0.71,0.01,0,0.7
1697353938.56,-0.18,0.77,1.38,3.5,0.9,55.3,0.71,0.01,0,0.71
1697353938.57,-0.09,0.93,0.76,-0.4,0.2,55,0.7,0.01,0,0.71
1697353938.58,-0.09,0.93,0.76,-1.3,0.4,55,0.7,0.01,0,0.71
1697353938.59,-0.02,1.13,0.63,-2.8,0,55.2,0.7,0.01,0,0.72
1697353938.6,-0.02,1.13,0.63,-3.6,-0.2,55.6,0.7,0.01,0,0.72
1697353938.61,-0.24,1.08,0.68,-2.1,0,56,0.69,0.01,0,0.72
1697353938.62,-0.24,1.08,0.68,1,0.2,56.7,0.69,0.01,0,0.72
1697353938.63,-0.24,1.08,0.68,1,0.2,56.7,0.69,0.01,0,0.72
1697353938.64,-0.24,1.08,0.68,1,0.2,56.7,0.69,0.01,0,0.72
1697353938.65,-0.24,1.08,0.68,1,0.2,56.7,0.69,0.01,0,0.72
1697353938.66,-0.24,1.08,0.68,1,0.2,56.7,0.69,0.01,0,0.72
1697353938.67,-0.24,1.08,0.68,1,0.2,56.7,0.69,0.01,0,0.72
1697353938.68,-0.24,1.08,0.68,1,0.2,56.7,0.69,0.01,0,0.72
1697353938.69,-0.24,1.08,0.68,1,0.2,56.7,0.69,0.01,0,0.72
1697353938.7,-0.24,1.08,0.68,1,0.2,56.7,0.69,0.01,0,0.72
1697353938.71,-0.24,1.08,0.68,1,0.2,56.7,0.69,0.01,0,0.72
1697353938.72,-0.24,1.08,0.68,1,0.2,56.7,0.69,0.01,0,0.72
1697353938.73,-0.24,1.08,0.68,1,0.2,56.7,0.69,0.01,0,0.72
1697353938.74,-0.24,1.08,0.68,1,0.2,56.7,0.69,0.01,0,0.72
1697353938.75,-0.24,1.08,0.68,1,0.2,56.7,0.69,0.01,0,0.72
1697353938.76,-0.24,1.08,0.68,1,0.2,56.7,0.69,0.01,0,0.72
1697353938.77,-0.24,1.08,0.68,1,0.2,56.7,0.69,0.01,0,0.72
1697353938.78,-0.24,1.08,0.68,1,0.2,56.7,0.69,0.01,0,0.72
1697353938.79,-0.24,1.08,0.68,1,0.2,56.7,0.69,0.01,0,0.72
1697353938.8,-0.24,1.08,0.68,1,0.2,56.7,0.69,0.01,0,0.72
1697353938.81,-0.24,1.08,0.68,1,0.2,56.7,0.69,0.01,0,0.72
1697353938.82,-0.24,1.08,0.68,1,0.2,56.7,0.69,0.01,0,0.72
1697353938.83,-0.24,1.08,0.68,1,0.2,56.7,0.69,0.01,0,0.72
1697353938.84,0.1,-0.11,0.48,-7.8,3.1,13,0.62,0.01,-0,0.79
1697353938.85,0.1,-0.11,0.48,-7.8,3.1,13,0.62,0.01,-0,0.79
1697353938.86,-0.18,-0.42,1.3,-8.6,2.6,3.8,0.62,0.01,-0,0.79
1697353938.87,0.06,-0.39,0.82,-9.4,2,0.6,0.62,0.01,-0,0.79
1697353938.88,0.06,-0.39,0.82,-9.4,2,0.6,0.62,0.01,-0,0.79
1697353938.89,-0.04,-0.46,1.28,-8.6,0.8,-1.9,0.62,0,-0,0.79
1697353938.9,0.19,-0.3,0.36,-6.9,0.1,-3.8,0.62,0,-0,0.79
1697353938.91,-0.15,-0.52,1.37,-6.3,-0.6,-5.6,0.62,0,-0.01,0.79
1697353938.92,-0.27,-0.7,1.26,-6.4,-0.9,-6,0.62,0,-0.01,0.79
1697353938.93,-0.13,-0.6,1.15,-6.8,-1.9,-10,0.62,0,-0.01,0.79
1697353938.94,-0.01,-0.59,1,-6.6,-2,-11.9,0.62,0,-0.01,0.79
1697353938.95,-0.03,-0.67,0.87,-6.1,-1.6,-14,0.62,0,-0.01,0.78
1697353938.96,-0.14,-0.75,0.86,-5.5,-1.4,-17,0.62,0,-0.01,0.78
1697353938.97,-0.12,-0.72,0.97,-5.7,-1.1,-19.7,0.62,0,-0.01,0.78
1697353938.98,-0.21,-0.87,1.09,-5.3,-0.7,-22.4,0.62,0,-0.01,0.78
1697353938.99,-0.25,-0.75,0.86,-4.6,0.1,-25.2,0.63,0,-0.01,0.78
1697353939,-0.24,-0.72,1.01,-3.8,0.4,-27.7,0.63,0,-0.01,0.78
1697353939.01,-0.03,-0.7,0.47,-1.9,1.1,-30.8,0.63,0,-0.01,0.78
1697353939.02,-0.03,-0.85,0.94,-2,0.8,-33.6,0.63,0,-0.01,0.77
1697353939.03,-0.21,-0.87,1.23,-2,0.8,-33.6,0.63,0,-0.01,0.77
1697353939.04,-0.08,-0.89,1.07,-2.6,0.8,-36.2,0.63,0,-0.01,0.77
1697353939.05,-0.13,-0.88,0.89,-3.4,0.5,-38.5,0.64,0,-0.01,0.77
1697353939.06,-0.21,-0.81,1.23,-4.2,0.9,-40.6,0.64,0,-0.01,0.77
1697353939.07,0.01,-0.84,0.72,-3.6,0.7,-42.4,0.65,0,-0.01,0.76
1697353939.08,0.01,-0.84,0.72,-3.6,0.7,-42.4,0.65,0,-0.01,0.76
1697353939.09,-0.13,-0.96,1.47,-2.3,-0.3,-45.4,0.65,0,-0.01,0.76
1697353939.1,0.03,-1,0.53,-2.1,-0.7,-46.6,0.65,0,-0.01,0.76
1697353939.11,-0.15,-0.95,1.19,-2.2,-1.1,-47.3,0.66,0,-0.01,0.75
1697353939.12,-0.08,-0.99,0.81,-1.5,-1.7,-47.9,0.66,0,-0.01,0.75
1697353939.13,-0.08,-0.99,0.81,-1.5,-1.7,-47.9,0.66,0,-0.01,0.75
1697353939.14,-0.22,-0.9,1.11,-2.6,-1.1,-49,0.67,0,-0.01,0.74
1697353939.15,-0.17,-0.94,0.96,-2.4,-0.6,-49.4,0.67,0,-0.01,0.74
1697353939.16,-0.33,-1,1.41,-2,-0.2,-50.1,0.67,0,-0.01,0.74
1697353939.17,-0.14,-0.84,0.9,-2,0.3,-51.2,0.68,0,-0.01,0.74
1697353939.18,-0.14,-0.84,0.9,-2,0.3,-51.2,0.68,0,-0.01,0.74
1697353939.19,-0.33,-1.06,1.31,1,1.9,-52.7,0.69,0,-0.01,0.73
1697353939.2,-0.33,-1.06,1.31,1,1.9,-52.7,0.69,0,-0.01,0.73
1697353939.21,-0.14,-0.99,1.17,-0.8,1,-54.7,0.69,0,-0.01,0.72
1697353939.22,-0.25,-0.96,1.13,-0.8,1,-54.7,0.69,0,-0.01,0.72
1697353939.23,-0.25,-0.96,1.13,-1,0.9,-55.1,0.7,-0,-0.01,0.72
1697353939.24,-0.25,-0.96,1.13,-1,0.9,-55.1,0.7,-0,-0.01,0.72
1697353939.25,-0.25,-0.96,1.13,-1,0.9,-55.1,0.7,-0,-0.01,0.72
1697353939.26,-0.25,-0.96,1.13,-1,0.9,-55.1,0.7,-0,-0.01,0.72
1697353939.27,-0.25,-0.96,1.13,-1,0.9,-55.1,0.7,-0,-0.01,0.72
1697353939.28,-0.25,-0.96,1.13,-1,0.9,-55.1,0.7,-0,-0.01,0.72
1697353939.29,-0.25,-0.96,1.13,-1,0.9,-55.1,0.7,-0,-0.01,0.72
1697353939.3,-0.25,-0.96,1.13,-1,0.9,-55.1,0.7,-0,-0.01,0.72
1697353939.31,-0.25,-0.96,1.13,-1,0.9,-55.1,0.7,-0,-0.01,0.72
1697353939.32,-0.25,-0.96,1.13,-1,0.9,-55.1,0.7,-0,-0.01,0.72
1697353939.33,-0.25,-0.96,1.13,-1,0.9,-55.1,0.7,-0,-0.01,0.72
1697353939.34,-0.25,-0.96,1.13,-1,0.9,-55.1,0.7,-0,-0.01,0.72
1697353939.35,-0.25,-0.96,1.13,-1,0.9,-55.1,0.7,-0,-0.01,0.72
1697353939.36,-0.15,-0.9,0.98,1.6,1.2,-55.4,0.74,0,-0.01,0.67
1697353939.37,-0.22,-0.97,0.95,1.3,0.7,-56,0.74,0,-0.01,0.67
1697353939.38,-0.08,-0.96,1.09,-0.1,0.7,-56,0.75,0,-0.01,0.66
1697353939.39,-0.28,-1,1,-1.9,0.4,-56.3,0.75,0,-0.01,0.66
1697353939.4,-0.15,-0.86,0.95,-2.1,0.6,-56,0.75,0,-0.01,0.66
1697353939.41,-0.13,-0.77,0.65,-0.2,0.7,-55.3,0.76,-0,-0.01,0.65
1697353939.42,-0.21,-0.83,0.95,2.2,1.5,-54.7,0.76,0,-0.01,0.65
1697353939.43,-0.14,-0.86,0.93,2.8,2.4,-54.2,0.76,0,-0.01,0.65
1697353939.44,-0.1,-1.1,0.96,0.6,2.6,-54.3,0.77,0,-0.01,0.64
1697353939.45,-0.15,-1.01,0.67,-2.2,2,-54.4,0.77,0,-0.01,0.64
1697353939.46,-0.2,-0.97,1.18,-2.8,1.5,-54.5,0.77,-0,-0.01,0.63
1697353939.47,-0.15,-0.72,0.68,-0.7,0.9,-54.6,0.78,-0,-0.01,0.63
1697353939.48,-0.15,-0.72,0.68,-0.7,0.9,-54.6,0.78,-0,-0.01,0.63
1697353939.49,-0.2,-0.88,1.1,3.1,0,-54,0.78,-0,-0.01,0.62
1697353939.5,-0.2,-0.88,1.1,3.1,0,-54,0.78,-0,-0.01,0.62
1697353939.51,-0.21,-0.94,1,1.6,0.1,-54.3,0.79,0,-0.01,0.62
1697353939.52,-0.21,-0.94,1,1.6,0.1,-54.3,0.79,0,-0.01,0.62
1697353939.53,-0.14,-0.99,0.94,0.7,0.8,-54.5,0.79,0,-0.01,0.61
1697353939.54,-0.26,-0.84,1.03,0.1,1.5,-54.5,0.79,0,-0.01,0.61
1697353939.55,-0.26,-0.87,1.23,0.9,2.4,-54.4,0.8,0,-0.01,0.6
1697353939.56,-0.24,-0.82,0.99,1.7,2.7,-54.3,0.8,0,-0.01,0.6
1697353939.57,-0.14,-0.87,0.98,1.7,2.8,-54,0.8,0,-0.01,0.6
1697353939.58,-0.14,-0.99,0.97,1.5,2.8,-54,0.81,0,-0.01,0.59
1697353939.59,-0.14,-0.85,0.9,-0.2,2.7,-54.3,0.81,0,-0.01,0.59
1697353939.6,0.06,-0.67,0.8,-0.9,2,-54.1,0.81,0,-0.01,0.58
1697353939.61,-0.16,-0.75,0.86,1.2,0.3,-53.3,0.81,0,-0.01,0.58
1697353939.62,-0.13,-0.59,1.03,1.2,0.3,-53.3,0.81,0,-0.01,0.58
1697353939.63,0,-0.75,0.81,3.2,-0.3,-51.2,0.82,0,-0.01,0.57
1697353939.64,-0.19,-0.72,1.06,2.7,-0.9,-50.3,0.82,0,-0.01,0.57
1697353939.65,0.01,-0.68,0.97,1.9,-1,-48.8,0.82,0,-0.01,0.57
1697353939.66,0.12,-0.46,0.88,1.6,-1.8,-46.1,0.83,0,-0.01,0.56
1697353939.67,0.23,-0.37,1.13,3.6,-2.8,-43.2,0.83,0,-0.01,0.56
1697353939.68,0.27,-0.29,1.19,5.1,-4.1,-38.2,0.83,0,-0.01,0.56
1697353939.69,0.25,-0.41,1.19,5.3,-4.6,-35.5,0.83,0,-0.01,0.55
1697353939.7,0.23,-0.3,0.96,5.3,-4.6,-35.5,0.83,0,-0.01,0.55
1697353939.71,-0.07,-0.21,0.86,4.6,-4.2,-32.7,0.84,0,-0.01,0.55
1697353939.72,-0.05,-0.09,0.91,4.7,-3,-30,0.84,0,-0.01,0.55
1697353939.73,-0.13,0.02,0.97,7.8,0,-25.7,0.84,0.01,-0.01,0.54
1697353939.74,0.01,0.2,1.02,9.3,1,-22.6,0.84,0.01,-0.01,0.54
1697353939.75,-0.15,0.04,1.28,9.3,1,-22.6,0.84,0.01,-0.01,0.54
1697353939.76,-0.15,0.04,1.28,9.3,1,-22.6,0.84,0.01,-0.01,0.54
1697353939.77,-0.15,0.04,1.28,9.3,1,-22.6,0.84,0.01,-0.01,0.54
1697353939.78,-0.15,0.04,1.28,9.3,1,-22.6,0.84,0.01,-0.01,0.54
1697353939.79,-0.15,0.04,1.28,9.3,1,-22.6,0.84,0.01,-0.01,0.54
1697353939.8,-0.15,0.04,1.28,9.3,1,-22.6,0.84,0.01,-0.01,0.54
1697353939.81,-0.15,0.04,1.28,9.3,1,-22.6,0.84,0.01,-0.01,0.54
1697353939.82,-0.15,0.04,1.28,9.3,1,-22.6,0.84,0.01,-0.01,0.54
1697353939.83,-0.15,0.04,1.28,9.3,1,-22.6,0.84,0.01,-0.01,0.54
1697353939.84,-0.15,0.04,1.28,9.3,1,-22.6,0.84,0.01,-0.01,0.54
1697353939.85,-0.15,0.04,1.28,9.3,1,-22.6,0.84,0.01,-0.01,0.54
1697353939.86,-0.15,0.04,1.28,9.3,1,-22.6,0.84,0.01,-0.01,0.54
1697353939.87,-0.15,0.04,1.28,9.3,1,-22.6,0.84,0.01,-0.01,0.54
1697353939.88,-0.15,0.04,1.28,1.4,-0.3,17.5,0.84,0.01,-0.01,0.54
1697353939.89,0.21,0.35,0.76,-0.2,-0.3,16.9,0.84,0.01,-0,0.55
1697353939.9,0.19,0.44,1.21,-1,-0.5,16.3,0.84,0.01,-0,0.55
1697353939.91,0.2,0.58,1.04,0.9,-0.5,16.4,0.84,0.01,-0,0.55
1697353939.92,0.28,0.52,0.89,3.5,-0.9,16.5,0.83,0.01,-0,0.55
1697353939.93,0.14,0.36,1.11,3.6,-1.1,16.6,0.83,0.01,-0,0.55
1697353939.94,0.03,0.46,0.83,2.2,-1.1,17,0.83,0.01,-0,0.55
1697353939.95,0.02,0.19,0.85,-1.1,-0.7,18.5,0.83,0.01,-0.01,0.55
1697353939.96,0.07,0.59,0.94,-3.3,-0.5,19.2,0.83,0.01,-0.01,0.56
1697353939.97,0.12,0.57,1.01,-5.5,0.2,21.8,0.83,0.01,-0.01,0.56
1697353939.98,0.06,0.67,1.2,-3.1,0.9,23.7,0.83,0.01,-0.01,0.56
1697353939.99,0.18,0.62,1.22,-0.1,0.8,25.7,0.83,0.01,-0.01,0.56
1697353940,0.28,0.41,0.93,1.4,-0.4,27.4,0.83,0.01,-0.01,0.56
1697353940.01,0.26,0.43,1.07,2,-1.3,27.9,0.82,0.01,-0.01,0.57
1697353940.02,0.33,0.52,0.85,0.6,-1.9,27.9,0.82,0.01,-0.01,0.57
1697353940.03,0.25,0.42,0.93,-0.9,-2.5,28,0.82,0.01,-0.01,0.57
1697353940.04,0.07,0.62,1.07,-0.9,-2.9,27.6,0.82,0.01,-0.01,0.57
1697353940.05,0.12,0.51,0.89,-1.7,-2.6,28.6,0.82,0.01,-0.01,0.57
1697353940.06,0.05,0.61,0.89,0,-2,28.7,0.82,0.01,-0.01,0.58
1697353940.07,0.05,0.61,0.89,0,-2,28.7,0.82,0.01,-0.01,0.58
1697353940.08,0.01,0.53,1.14,0.8,-0.2,30.1,0.81,0.01,-0.01,0.58
1697353940.09,0.2,0.53,0.85,1.9,0.4,30.1,0.81,0.01,-0.01,0.58
1697353940.1,0.19,0.43,1.12,1.4,1.1,30.7,0.81,0.01,-0.01,0.59
1697353940.11,0.25,0.46,1.06,1.3,1.3,30.6,0.81,0.01,-0.01,0.59
1697353940.12,0.22,0.45,1.21,1.1,1.2,30.2,0.81,0.01,-0.01,0.59
1697353940.13,0.22,0.45,1.21,1.1,1.2,30.2,0.81,0.01,-0.01,0.59
1697353940.14,0.18,0.57,1.04,-0.9,0.7,30.2,0.8,0.01,-0.01,0.59
1697353940.15,0.18,0.57,1.04,-0.9,0.7,30.2,0.8,0.01,-0.01,0.59
1697353940.16,0.16,0.58,0.93,-0.6,0.3,30.1,0.8,0.01,-0.01,0.6
1697353940.17,0.16,0.58,0.93,-0.6,0.3,30.1,0.8,0.01,-0.01,0.6
1697353940.18,0.08,0.48,1.05,0.8,-0.1,30.3,0.8,0.01,-0.01,0.6
1697353940.19,0.08,0.48,1.05,1.8,-0.8,30.5,0.8,0.01,-0.01,0.6
1697353940.2,0.21,0.43,1.14,1,-1.4,30.8,0.8,0.01,-0.01,0.6
1697353940.21,0.13,0.45,0.84,-2.8,-2.4,28.8,0.79,0.01,-0.01,0.61
1697353940.22,0.23,0.56,1.07,-2.8,-2.4,28.8,0.79,0.01,-0.01,0.61
1697353940.23,0.23,0.56,1.07,-1.3,-2.2,28,0.79,0.01,-0.01,0.61
1697353940.24,0.18,0.4,0.94,-0.5,-1,27.1,0.79,0.01,-0.01,0.61
1697353940.25,0.17,0.28,1.01,-0.6,0,25.8,0.79,0.01,-0.01,0.61
1697353940.26,0.17,0.28,1.01,-1.4,0.8,24.9,0.79,0.01,-0.01,0.62
1697353940.27,0.17,0.28,1.01,-1.4,0.8,24.9,0.79,0.01,-0.01,0.62
1697353940.28,0.17,0.28,1.01,-1.4,0.8,24.9,0.79,0.01,-0.01,0.62
1697353940.29,0.17,0.28,1.01,-1.4,0.8,24.9,0.79,0.01,-0.01,0.62
1697353940.3,0.17,0.28,1.01,-1.4,0.8,24.9,0.79,0.01,-0.01,0.62
1697353940.31,0.17,0.28,1.01,-1.4,0.8,24.9,0.79,0.01,-0.01,0.62
1697353940.32,0.17,0.28,1.01,-1.4,0.8,24.9,0.79,0.01,-0.01,0.62
1697353940.33,0.17,0.28,1.01,-1.4,0.8,24.9,0.79,0.01,-0.01,0.62
1697353940.34,0.17,0.28,1.01,-1.4,0.8,24.9,0.79,0.01,-0.01,0.62
1697353940.35,0.17,0.28,1.01,-1.4,0.8,24.9,0.79,0.01,-0.01,0.62
1697353940.36,0.17,0.28,1.01,-1.4,0.8,24.9,0.79,0.01,-0.01,0.62
1697353940.37,0.17,0.28,1.01,-1.4,0.8,24.9,0.79,0.01,-0.01,0.62
1697353940.38,0.17,0.28,1.01,-1.4,0.8,24.9,0.79,0.01,-0.01,0.62
1697353940.39,0.13,0.17,1.05,0.7,-0.3,14.7,0.77,0.01,-0.01,0.63
1697353940.4,0.14,0.03,0.92,-0.6,-0.2,14.2,0.77,0.01,-0.01,0.63
1697353940.41,0.29,0.07,0.63,-1.8,-0.2,13.5,0.77,0.01,-0.01,0.63
1697353940.42,0.15,0.21,1.12,-1.6,0,13.2,0.77,0.01,-0.01,0.64
1697353940.43,0.24,0.1,0.93,-0.1,0.4,11.4,0.77,0.01,-0.01,0.64
1697353940.44,0.23,0.11,1.01,1.3,0.4,10,0.77,0.01,-0.01,0.64
1697353940.45,0.19,0.08,1.01,0.8,0.3,9,0.77,0.01,-0.01,0.64
1697353940.46,0.17,0.04,0.99,0.4,0.2,9,0.77,0.01,-0.01,0.64
1697353940.47,0.16,0.2,0.87,-2.3,0,8.7,0.77,0.01,-0.01,0.64
1697353940.48,0.14,0.24,0.94,-3.1,-0.1,9.5,0.77,0.01,-0.01,0.64
1697353940.49,0.19,0.22,1.06,-1.2,0,9.3,0.77,0.01,-0.01,0.64
1697353940.5,0.15,0.29,0.82,-0.7,0.2,9.5,0.77,0.01,-0.01,0.64
1697353940.51,0.13,0.15,1.01,-0.7,0.2,9.5,0.77,0.01,-0.01,0.64
1697353940.52,0.29,0.15,0.84,-0.6,0.2,9.6,0.77,0.01,-0.01,0.64
1697353940.53,0.29,0.15,0.84,0.2,0.5,9.7,0.77,0.01,-0.01,0.64
1697353940.54,0.16,0.19,0.92,0.8,0.8,9.1,0.77,0.02,-0.01,0.64
1697353940.55,0.26,0.01,0.92,1.3,1.3,9,0.77,0.02,-0.01,0.64
1697353940.56,0.1,0.1,1.04,1.5,1.9,8.6,0.76,0.02,-0.01,0.64
1697353940.57,0.17,-0.01,1.23,-0.5,2.1,9.2,0.76,0.02,-0.01,0.64
1697353940.58,0.23,0.33,0.96,-0.5,2.5,9.6,0.76,0.02,-0.01,0.65
1697353940.59,0.21,0.04,0.95,0.3,2.3,10,0.76,0.02,-0.01,0.65
1697353940.6,0.2,0.05,1.11,2.3,1.5,9.7,0.76,0.02,-0.01,0.65
1697353940.61,0.02,-0.13,1.08,2.8,1.1,8.6,0.76,0.02,-0.01,0.65
1697353940.62,0.22,-0.18,0.73,0.4,0.6,7.3,0.76,0.02,-0.01,0.65
1697353940.63,0.19,0.14,0.81,-2.7,0.5,4.5,0.76,0.02,-0.01,0.65
1697353940.64,0.11,0.02,1.11,-0.9,0.1,3.4,0.76,0.02,-0.01,0.65
1697353940.65,0.25,0.15,1.01,0.5,-0.3,2.8,0.76,0.02,-0.01,0.65
1697353940.66,0.18,0.14,1.11,0.9,-0.9,2.6,0.76,0.02,-0.01,0.65
1697353940.67,0.14,0.05,1.03,-0.8,-0.8,2.6,0.76,0.02,-0.01,0.65
1697353940.68,0.13,0.1,1.02,-1.7,-0.5,2.6,0.76,0.02,-0.01,0.65
1697353940.69,0.12,0.12,0.92,-0.6,-0.3,2.6,0.76,0.02,-0.01,0.65
1697353940.7,0.12,-0.04,1.05,-0.6,0,3,0.76,0.02,-0.01,0.65
1697353940.71,0.26,-0.05,0.66,-0.6,0,3,0.76,0.02,-0.01,0.65
1697353940.72,0.13,0.08,1.17,-0.6,0,3,0.76,0.02,-0.01,0.65
1697353940.73,0.03,0.06,1.16,0.4,1.8,3.7,0.76,0.02,-0.01,0.65
1697353940.74,0.18,0.04,1.08,2.6,2.4,3.7,0.76,0.02,-0.01,0.65
1697353940.75,0.22,-0.04,0.97,4,2.6,3.3,0.76,0.02,-0.01,0.65
1697353940.76,0.17,-0.29,1.13,1.4,2.3,2.5,0.76,0.02,-0.01,0.65
1697353940.77,0.2,-0.07,1.06,-1,1.7,1.8,0.76,0.02,-0.01,0.65
1697353940.78,0.2,-0.07,1.06,-1,1.7,1.8,0.76,0.02,-0.01,0.65
1697353940.79,0.2,-0.07,1.06,-1,1.7,1.8,0.76,0.02,-0.01,0.65
1697353940.8,0.2,-0.07,1.06,-1,1.7,1.8,0.76,0.02,-0.01,0.65
1697353940.81,0.2,-0.07,1.06,-1,1.7,1.8,0.76,0.02,-0.01,0.65
1697353940.82,0.2,-0.07,1.06,-1,1.7,1.8,0.76,0.02,-0.01,0.65
1697353940.83,0.2,-0.07,1.06,-1,1.7,1.8,0.76,0.02,-0.01,0.65
1697353940.84,0.2,-0.07,1.06,-1,1.7,1.8,0.76,0.02,-0.01,0.65
1697353940.85,0.2,-0.07,1.06,-1,1.7,1.8,0.76,0.02,-0.01,0.65
1697353940.86,0.2,-0.07,1.06,-1,1.7,1.8,0.76,0.02,-0.01,0.65
1697353940.87,0.2,-0.07,1.06,-1,1.7,1.8,0.76,0.02,-0.01,0.65
1697353940.88,0.2,-0.07,1.06,-1,1.7,1.8,0.76,0.02,-0.01,0.65
1697353940.89,0.2,-0.07,1.06,-1,1.7,1.8,0.76,0.02,-0.01,0.65
1697353940.9,0.2,-0.07,1.06,-1,1.7,1.8,0.76,0.02,-0.01,0.65
1697353940.91,0.2,-0.07,1.06,-1,1.7,1.8,0.76,0.02,-0.01,0.65
1697353940.92,0.12,0.23,1.02,-1,1.7,1.8,0.76,0.02,-0.01,0.65
1697353940.93,0.05,0.19,1.11,0.4,-0.4,6.6,0.76,0.02,-0.01,0.65
1697353940.94,0.16,0.18,0.89,1.4,-0.5,6.6,0.76,0.02,-0.01,0.66
1697353940.95,0.08,0.26,0.95,2,-1.1,7.2,0.75,0.02,-0.01,0.66
1697353940.96,0.02,0.17,0.98,0.9,-1.2,8.1,0.75,0.02,-0.01,0.66
1697353940.97,-0.01,0.09,0.98,0,-0.9,8,0.75,0.02,-0.01,0.66
1697353940.98,0.04,0.34,0.8,-0.3,-0.2,8.9,0.75,0.02,-0.01,0.66
1697353940.99,0.07,0.27,0.93,1.1,0.4,9.6,0.75,0.02,-0.01,0.66
1697353941,0.06,0.38,1.04,1.6,0.5,10.8,0.75,0.02,-0.01,0.66
1697353941.01,-0.06,0.35,1.12,2.4,0.5,11.8,0.75,0.02,-0.01,0.66
1697353941.02,-0.07,0.23,1.24,2.2,0.3,12.7,0.75,0.02,-0.01,0.66
1697353941.03,0.07,0.24,0.71,2.2,0.3,12.7,0.75,0.02,-0.01,0.66
1697353941.04,0.1,0.24,0.84,0.5,0.5,13.4,0.75,0.02,-0.01,0.66
1697353941.05,0.02,0.18,1.03,-0.1,0.4,13.8,0.75,0.02,-0.01,0.66
1697353941.06,-0.02,0.35,1.23,-1.3,0.4,14,0.75,0.02,-0.01,0.66
1697353941.07,0.13,0.32,0.83,-0.2,0.4,13.9,0.75,0.02,-0.01,0.66
1697353941.08,-0.12,0.24,1.15,1,0,14.2,0.75,0.02,-0.01,0.66
1697353941.09,0.03,0.35,1.13,0.8,-0.6,13.9,0.74,0.02,-0.01,0.67
1697353941.1,0.09,0.41,0.68,0.6,-0.9,14.2,0.74,0.02,-0.01,0.67
1697353941.11,0.02,0.4,1.16,1.2,-1.6,14.9,0.74,0.02,-0.01,0.67
1697353941.12,0.03,0.44,0.87,1.7,-2.3,15.8,0.74,0.02,-0.01,0.67
1697353941.13,0.17,0.48,0.86,1.7,-2.3,15.8,0.74,0.02,-0.01,0.67
1697353941.14,0.17,0.48,0.86,1.9,-2.7,16.8,0.74,0.02,-0.01,0.67
1697353941.15,-0.05,0.59,1.01,0.3,-1.8,19.9,0.74,0.03,-0.01,0.67
1697353941.16,-0.12,0.62,0.84,1.4,-0.6,21.9,0.74,0.03,-0.01,0.67
1697353941.17,-0.16,0.68,1.2,1.7,0.3,24.4,0.74,0.03,-0.01,0.67
1697353941.18,-0.16,0.68,1.2,1.7,0.3,24.4,0.74,0.03,-0.01,0.68
1697353941.19,-0.19,0.4,0.87,2.4,1.5,26.5,0.73,0.03,-0.01,0.68
1697353941.2,-0.19,0.4,0.87,0.5,1.7,28,0.73,0.03,-0.01,0.68
1697353941.21,0.02,0.71,1.3,-0.3,1.8,29.4,0.73,0.03,-0.01,0.68
1697353941.22,-0.12,0.77,0.93,1.2,1.5,30.4,0.73,0.03,-0.01,0.68
1697353941.23,-0.1,0.73,0.95,2.6,0.9,30.9,0.73,0.03,-0.01,0.69
1697353941.24,0.11,0.66,0.95,3.4,-0.1,31.2,0.73,0.03,-0.01,0.69
1697353941.25,-0.04,0.64,0.84,2.6,-1.1,31.3,0.72,0.03,-0.01,0.69
1697353941.26,-0.07,0.65,1.05,0.9,-1.6,31.5,0.72,0.03,-0.01,0.69
1697353941.27,-0.14,0.8,0.91,0.7,-1.6,31.5,0.72,0.03,-0.01,0.69
1697353941.28,-0.06,0.83,0.86,1.4,-1,32.1,0.72,0.03,-0.01,0.7
1697353941.29,-0.18,0.83,0.88,2.8,-1,33.4,0.72,0.03,-0.01,0.7
1697353941.3,-0.29,0.84,1.24,2.7,0,34.4,0.71,0.03,-0.01,0.7
1697353941.31,-0.29,0.84,1.24,2.7,0,34.4,0.71,0.03,-0.01,0.7
1697353941.32,-0.29,0.84,1.24,2.7,0,34.4,0.71,0.03,-0.01,0.7
1697353941.33,-0.29,0.84,1.24,2.7,0,34.4,0.71,0.03,-0.01,0.7
1697353941.34,-0.29,0.84,1.24,2.7,0,34.4,0.71,0.03,-0.01,0.7
1697353941.35,-0.29,0.84,1.24,2.7,0,34.4,0.71,0.03,-0.01,0.7
1697353941.36,-0.29,0.84,1.24,2.7,0,34.4,0.71,0.03,-0.01,0.7
1697353941.37,-0.29,0.84,1.24,2.7,0,34.4,0.71,0.03,-0.01,0.7
1697353941.38,-0.29,0.84,1.24,2.7,0,34.4,0.71,0.03,-0.01,0.7
1697353941.39,-0.29,0.84,1.24,2.7,0,34.4,0.71,0.03,-0.01,0.7
1697353941.4,-0.29,0.84,1.24,2.7,0,34.4,0.71,0.03,-0.01,0.7
1697353941.41,-0.29,0.84,1.24,2.7,0,34.4,0.71,0.03,-0.01,0.7
1697353941.42,-0.29,0.84,1.24,2.7,0,34.4,0.71,0.03,-0.01,0.7
1697353941.43,-0.29,0.84,1.24,2.7,0,34.4,0.71,0.03,-0.01,0.7
1697353941.44,-0.29,0.84,1.24,2.7,0,34.4,0.71,0.03,-0.01,0.7
1697353941.45,-0.29,0.84,1.24,2.7,0,34.4,0.71,0.03,-0.01,0.7
1697353941.46,-0.29,0.84,1.24,2.7,0,34.4,0.71,0.03,-0.01,0.7
1697353941.47,-0.29,0.84,1.24,2.7,0,34.4,0.71,0.03,-0.01,0.7
1697353941.48,-0.29,0.84,1.24,2.7,0,34.4,0.71,0.03,-0.01,0.7
1697353941.49,-0.29,0.84,1.24,2.7,0,34.4,0.71,0.03,-0.01,0.7
1697353941.5,-0.29,0.84,1.24,2.7,0,34.4,0.71,0.03,-0.01,0.7
1697353941.51,-0.29,0.84,1.24,2.7,0,34.4,0.71,0.03,-0.01,0.7
1697353941.52,-0.29,0.84,1.24,2.7,0,34.4,0.71,0.03,-0.01,0.7
1697353941.53,-0.29,0.84,1.24,2.7,0,34.4,0.71,0.03,-0.01,0.7
1697353941.54,-0.29,0.84,1.24,2.7,0,34.4,0.71,0.03,-0.01,0.7
1697353941.55,-0.29,0.84,1.24,2.7,0,34.4,0.71,0.03,-0.01,0.7
1697353941.56,-0.29,0.84,1.24,2.7,0,34.4,0.71,0.03,-0.01,0.7
1697353941.57,-0.29,0.84,1.24,2.7,0,34.4,0.71,0.03,-0.01,0.7
1697353941.58,-0.29,0.84,1.24,2.7,0,34.4,0.71,0.03,-0.01,0.7
1697353941.59,-0.29,0.84,1.24,2.7,0,34.4,0.71,0.03,-0.01,0.7
1697353941.6,-0.29,0.84,1.24,2.7,0,34.4,0.71,0.03,-0.01,0.7
1697353941.61,-0.29,0.84,1.24,2.7,0,34.4,0.71,0.03,-0.01,0.7
1697353941.62,-0.29,0.84,1.24,2.7,0,34.4,0.71,0.03,-0.01,0.7
1697353941.63,-0.29,0.84,1.24,2.7,0,34.4,0.71,0.03,-0.01,0.7
1697353941.64,-0.29,0.84,1.24,2.7,0,34.4,0.71,0.03,-0.01,0.7
1697353941.65,-0.29,0.84,1.24,2.7,0,34.4,0.71,0.03,-0.01,0.7
1697353941.66,-0.17,0.68,1.09,0,2.9,38.9,0.62,0.02,-0.01,0.78
1697353941.67,-0.14,0.78,0.78,-0.8,2.7,39.2,0.62,0.02,-0.01,0.79
1697353941.68,-0.18,0.75,0.98,-0.8,2.7,39.2,0.62,0.02,-0.01,0.79
1697353941.69,-0.12,0.73,1.08,-0.5,3.1,39.5,0.61,0.02,-0.01,0.79
1697353941.7,-0.14,0.67,1.05,-0.2,3.4,39.5,0.61,0.02,-0.01,0.79
1697353941.71,-0.12,0.69,1.09,0.2,3.2,39.2,0.61,0.02,-0.01,0.79
1697353941.72,-0.1,0.69,0.61,-0.3,3,39.2,0.6,0.02,-0.01,0.8
1697353941.73,-0.06,0.75,1.32,-0.7,2.8,39,0.6,0.02,-0.01,0.8
1697353941.74,-0.05,0.88,1.02,-0.9,2.6,38.8,0.6,0.02,-0.01,0.8
1697353941.75,-0.21,0.68,1.49,-0.2,2.1,38.7,0.6,0.02,-0.01,0.8
1697353941.76,0.1,0.77,0.3,0.1,1.5,38.5,0.59,0.02,-0.01,0.8
1697353941.77,-0.06,0.73,1.2,0.1,1.5,38.5,0.59,0.02,-0.01,0.81
1697353941.78,-0.22,0.68,1,1.6,1.3,38.8,0.59,0.02,-0.01,0.81
1697353941.79,-0.07,0.66,1.25,1.6,1.3,38.8,0.59,0.02,-0.01,0.81
1697353941.8,-0.08,0.66,0.99,0.3,1,38.4,0.58,0.02,-0.01,0.81
1697353941.81,-0.11,0.65,0.89,0.3,1,38.4,0.58,0.02,-0.01,0.81
1697353941.82,-0.06,0.73,0.71,-2.4,1.5,38.8,0.58,0.02,-0.01,0.82
1697353941.83,-0.06,0.73,0.71,-2.4,1.5,38.8,0.58,0.02,-0.01,0.82
1697353941.84,-0.1,0.74,1.05,-1,4.8,37.5,0.57,0.02,-0.01,0.82
1697353941.85,-0.1,0.74,1.05,-1,4.8,37.5,0.57,0.02,-0.01,0.82
1697353941.86,-0.13,0.82,1.24,-0.6,5.8,37.6,0.57,0.02,-0.01,0.82
1697353941.87,-0.01,0.7,1.06,-0.3,6.1,37.4,0.56,0.02,-0.01,0.83
1697353941.88,-0.22,0.65,1.25,0,5.8,37.6,0.56,0.02,-0.01,0.83
1697353941.89,-0.04,0.63,1.28,-0.1,5.2,37.9,0.56,0.02,-0.01,0.83
1697353941.9,-0.04,0.63,1.28,-0.6,4,37.9,0.56,0.02,-0.01,0.83
1697353941.91,-0.04,0.63,1.28,-0.6,4,37.9,0.56,0.02,-0.01,0.83
1697353941.92,-0.04,0.63,1.28,-0.6,4,37.9,0.56,0.02,-0.01,0.83
1697353941.93,-0.04,0.63,1.28,-0.6,4,37.9,0.56,0.02,-0.01,0.83
1697353941.94,-0.04,0.63,1.28,-0.6,4,37.9,0.56,0.02,-0.01,0.83
1697353941.95,-0.04,0.63,1.28,-0.6,4,37.9,0.56,0.02,-0.01,0.83
1697353941.96,-0.04,0.63,1.28,-0.6,4,37.9,0.56,0.02,-0.01,0.83
1697353941.97,-0.04,0.63,1.28,-0.6,4,37.9,0.56,0.02,-0.01,0.83
1697353941.98,-0.04,0.63,1.28,-0.6,4,37.9,0.56,0.02,-0.01,0.83
1697353941.99,-0.04,0.63,1.28,-0.6,4,37.9,0.56,0.02,-0.01,0.83
1697353942,-0.04,0.63,1.28,-0.6,4,37.9,0.56,0.02,-0.01,0.83
1697353942.01,-0.04,0.63,1.28,-0.6,4,37.9,0.56,0.02,-0.01,0.83
1697353942.02,-0.06,0.82,0.99,-1.7,-0.9,36.2,0.52,0.01,-0.01,0.85
1697353942.03,0.03,0.81,1.05,2.2,-1.1,36.1,0.52,0.01,-0.01,0.85
1697353942.04,0.08,0.66,0.78,5.3,-0.9,36,0.52,0.01,-0.01,0.86
1697353942.05,-0.12,0.53,1.39,4.6,-0.7,36.1,0.51,0.01,-0.01,0.86
1697353942.06,-0.05,0.45,0.95,0.9,-0.7,36.2,0.51,0.01,-0.01,0.86
1697353942.07,0.07,0.63,0.84,-3.6,-1.1,36.4,0.51,0.01,-0.01,0.86
1697353942.08,-0.06,0.88,0.87,-5.5,-2.1,36.8,0.51,0.01,-0.01,0.86
1697353942.09,0.01,0.87,1.17,-2.4,-3,37.5,0.5,0.01,-0.01,0.86
1697353942.1,-0.16,0.79,1.12,2.1,-3.6,37.8,0.5,0.01,-0.01,0.87
1697353942.11,0,0.63,1.12,5.2,-4,37.4,0.5,0.02,-0.01,0.87
1697353942.12,0.13,0.61,0.87,6.5,-4,36.5,0.49,0.02,-0.01,0.87
1697353942.13,0,0.59,1.28,6,-4.3,35.7,0.49,0.02,-0.01,0.87
1697353942.14,0.03,0.37,0.96,2.7,-4.7,35.2,0.49,0.02,-0.01,0.87
1697353942.15,-0.01,0.49,1.02,2.7,-4.7,35.2,0.49,0.02,-0.01,0.87
1697353942.16,0.02,0.77,0.97,-4,-2.1,34.8,0.48,0.02,-0.01,0.88
1697353942.17,-0.1,0.93,1.12,-4,-2.1,34.8,0.48,0.02,-0.01,0.88
1697353942.18,-0.24,0.93,1.25,3.6,0.4,36.2,0.48,0.02,-0.01,0.88
1697353942.19,-0.09,0.65,0.73,3.6,0.4,36.2,0.48,0.02,-0.01,0.88
1697353942.2,0.06,0.52,1.05,6.4,1.3,37.2,0.47,0.02,-0.01,0.88
1697353942.21,0.23,0.58,0.58,2,1.6,37.9,0.47,0.02,-0.01,0.88
1697353942.22,0.01,0.74,1.3,2,1.6,37.9,0.47,0.02,-0.01,0.88
1697353942.23,0.08,0.92,0.63,-1.1,0.6,37.8,0.46,0.02,-0.01,0.89
1697353942.24,0.15,0.87,1.1,-0.2,-0.7,37.9,0.46,0.02,-0.01,0.89
1697353942.25,0.16,0.66,0.92,3.7,-1.9,38.1,0.46,0.02,-0.01,0.89
1697353942.26,0.04,0.5,1.22,4.3,-5,37.8,0.45,0.02,-0.01,0.89
1697353942.27,-0.1,0.67,0.95,4.3,-5,37.8,0.45,0.02,-0.01,0.89
1697353942.28,-0.09,0.66,0.97,1.3,-5.8,36.6,0.45,0.02,-0.01,0.89
1697353942.29,0.09,0.81,0.6,0.2,-4.6,36.8,0.45,0.02,-0.01,0.9
1697353942.3,-0.27,0.75,1.23,1.6,-2.4,36.4,0.44,0.02,-0.01,0.9
1697353942.31,-0.06,0.61,1.03,2.2,-0.4,36.2,0.44,0.02,-0.01,0.9
1697353942.32,0.03,0.92,0.7,1.3,1.7,36,0.44,0.02,-0.01,0.9
1697353942.33,0.04,0.7,0.96,0.3,3.3,36.6,0.43,0.02,-0.01,0.9
1697353942.34,0.04,0.7,0.77,0.2,3,37.3,0.43,0.02,-0.01,0.9
1697353942.35,-0,0.82,1.03,-2,2.8,36.8,0.43,0.02,-0.01,0.9
1697353942.36,0.12,0.98,0.87,-4.4,2.8,37.4,0.42,0.02,-0.01,0.9
1697353942.37,0.04,1,0.84,-4.3,2.2,38.8,0.42,0.02,-0.01,0.91
1697353942.38,0.06,0.91,0.99,-0.9,1.1,39.4,0.42,0.02,-0.01,0.91
1697353942.39,-0.12,0.64,1.14,1.6,0.2,40.2,0.41,0.02,-0.01,0.91
1697353942.4,-0.12,0.64,1.14,1,0,41.2,0.41,0.02,-0.01,0.91
1697353942.41,-0.06,0.78,1.06,-0.9,0.5,41.7,0.41,0.02,-0.01,0.91
1697353942.42,-0.06,0.78,1.06,-0.9,0.5,41.7,0.41,0.02,-0.01,0.91
1697353942.43,-0.06,0.78,1.06,-0.9,0.5,41.7,0.41,0.02,-0.01,0.91
1697353942.44,-0.06,0.78,1.06,-0.9,0.5,41.7,0.41,0.02,-0.01,0.91
1697353942.45,-0.06,0.78,1.06,-0.9,0.5,41.7,0.41,0.02,-0.01,0.91
1697353942.46,-0.06,0.78,1.06,-0.9,0.5,41.7,0.41,0.02,-0.01,0.91
1697353942.47,-0.06,0.78,1.06,-0.9,0.5,41.7,0.41,0.02,-0.01,0.91
1697353942.48,-0.06,0.78,1.06,-0.9,0.5,41.7,0.41,0.02,-0.01,0.91
1697353942.49,-0.06,0.78,1.06,-0.9,0.5,41.7,0.41,0.02,-0.01,0.91
1697353942.5,-0.06,0.78,1.06,-0.9,0.5,41.7,0.41,0.02,-0.01,0.91
1697353942.51,-0.06,0.78,1.06,-0.9,0.5,41.7,0.41,0.02,-0.01,0.91
1697353942.52,-0.06,0.78,1.06,-0.9,0.5,41.7,0.41,0.02,-0.01,0.91
1697353942.53,-0.06,0.78,1.06,-0.9,0.5,41.7,0.41,0.02,-0.01,0.91
1697353942.54,-0.06,0.78,1.06,-0.9,0.5,41.7,0.41,0.02,-0.01,0.91
1697353942.55,-0.17,0.79,0.9,-0.9,0.5,41.7,0.36,0.02,-0.01,0.93
1697353942.56,-0.03,0.76,0.98,-1.7,4,41.5,0.36,0.01,-0.01,0.93
1697353942.57,0,0.81,1.15,-2.8,4.4,41.6,0.35,0.01,-0.01,0.94
1697353942.58,0.04,1.07,0.96,-0.6,4.3,41.6,0.35,0.01,-0.01,0.94
1697353942.59,-0.03,0.97,0.86,3,4.5,42.4,0.35,0.01,-0.01,0.94
1697353942.6,0.01,0.8,0.99,5.5,5.2,42.6,0.34,0.01,-0.01,0.94
1697353942.61,0.1,0.65,1.05,5.5,5.2,42.6,0.34,0.01,-0.01,0.94
1697353942.62,0.1,0.65,1.05,5.5,5.1,42.6,0.34,0.01,-0.01,0.94
1697353942.63,0.1,0.65,1.05,5.5,5.1,42.6,0.34,0.01,-0.01,0.94
1697353942.64,0.02,0.61,1.08,-2.7,4,43,0.34,0.01,-0.01,0.94
1697353942.65,0.02,0.61,1.08,-2.7,4,43,0.34,0.01,-0.01,0.94
1697353942.66,-0.01,0.97,1.04,-0.2,0.6,44.6,0.32,0.01,-0.01,0.95
1697353942.67,0.16,0.91,0.8,-0.2,0.6,44.6,0.32,0.01,-0.01,0.95
1697353942.68,0.13,0.86,0.94,0.2,-0.4,44.8,0.32,0.01,-0.01,0.95
1697353942.69,0.13,0.86,0.94,-0.7,-1.7,44.7,0.32,0.01,-0.01,0.95
1697353942.7,0.05,0.79,0.9,-2.3,-2.7,44.6,0.31,0.01,-0.01,0.95
1697353942.71,0,0.83,0.93,-2.8,-3,44,0.31,0.01,-0.01,0.95
1697353942.72,0.01,0.98,1.17,-2.8,-2.6,43.4,0.3,0.01,-0.01,0.95
1697353942.73,0.01,0.98,1.17,-1.1,-1.9,42.7,0.3,0.01,-0.01,0.95
1697353942.74,0,0.87,1.04,3.3,-0.5,42.3,0.3,0.01,-0.01,0.95
1697353942.75,0,0.87,1.04,4.7,0.2,42,0.29,0.01,-0.01,0.96
1697353942.76,-0,0.72,1.01,5.1,0.9,41.5,0.29,0.01,-0.01,0.96
1697353942.77,0.01,0.58,1.19,3.6,1.2,41.5,0.28,0.01,-0.01,0.96
1697353942.78,0.04,0.61,0.78,0.7,1.3,41.2,0.28,0.01,-0.01,0.96
1697353942.79,-0.01,0.68,1.03,-1.3,2.5,41.3,0.28,0.01,-0.01,0.96
1697353942.8,0.09,0.99,0.74,1.1,2,41.7,0.27,0.01,-0.01,0.96
1697353942.81,-0.03,0.61,0.82,2.4,2.8,40.6,0.27,0.01,-0.01,0.96
1697353942.82,0.06,0.78,0.51,1,3.8,40.4,0.27,0.01,-0.01,0.96
1697353942.83,0.07,0.9,0.81,0,3.9,40.9,0.26,0.01,-0.01,0.96
1697353942.84,0.05,0.9,0.78,0.5,4.5,40.4,0.26,0.01,-0.01,0.97
1697353942.85,0.2,0.97,0.9,1.5,3.3,40.2,0.25,0.01,-0.01,0.97
1697353942.86,-0.02,0.68,1.5,0.5,3.6,41.2,0.25,0.01,-0.01,0.97
1697353942.87,0,0.81,0.9,-0.7,3.4,41,0.25,0.01,-0.01,0.97
1697353942.88,0.08,0.95,0.85,-2.1,2.6,41.3,0.25,0.01,-0.01,0.97
1697353942.89,0.01,0.87,1.25,-1.4,1.7,42.1,0.24,0.01,-0.01,0.97
1697353942.9,0.05,0.82,1.13,0.2,0.5,42.2,0.24,0.01,-0.01,0.97
1697353942.91,0.13,0.72,1.06,0.8,-0.2,41.7,0.24,0.01,-0.01,0.97
1697353942.92,0.15,0.63,0.78,0,-0.8,41.2,0.23,0.01,-0.01,0.97
1697353942.93,-0.04,0.75,1.1,-2,-1.4,40.6,0.23,0.01,-0.01,0.97
1697353942.94,0.07,0.82,1.01,-0.1,-1.9,39.8,0.23,0.01,-0.01,0.97
1697353942.95,0.07,0.82,1.01,-0.1,-1.9,39.8,0.23,0.01,-0.01,0.97
1697353942.96,0.07,0.82,1.01,-0.1,-1.9,39.8,0.23,0.01,-0.01,0.97
1697353942.97,0.07,0.82,1.01,-0.1,-1.9,39.8,0.23,0.01,-0.01,0.97
1697353942.98,0.07,0.82,1.01,-0.1,-1.9,39.8,0.23,0.01,-0.01,0.97
1697353942.99,0.07,0.82,1.01,-0.1,-1.9,39.8,0.23,0.01,-0.01,0.97
1697353943,0.07,0.82,1.01,-0.1,-1.9,39.8,0.23,0.01,-0.01,0.97
1697353943.01,0.07,0.82,1.01,-0.1,-1.9,39.8,0.23,0.01,-0.01,0.97
1697353943.02,0.07,0.82,1.01,-0.1,-1.9,39.8,0.23,0.01,-0.01,0.97
1697353943.03,0.07,0.82,1.01,-0.1,-1.9,39.8,0.23,0.01,-0.01,0.97
1697353943.04,0.07,0.82,1.01,-0.1,-1.9,39.8,0.23,0.01,-0.01,0.97
1697353943.05,0.07,0.82,1.01,-0.1,-1.9,39.8,0.23,0.01,-0.01,0.97
1697353943.06,0.07,0.82,1.01,-0.1,-1.9,39.8,0.23,0.01,-0.01,0.97
1697353943.07,0.07,0.82,1.01,-0.1,-1.9,39.8,0.23,0.01,-0.01,0.97
1697353943.08,0.05,0.74,0.98,1.4,5.2,41.2,0.18,0.01,-0.01,0.98
1697353943.09,0.05,0.74,0.98,0.4,4.7,41.6,0.18,0.01,-0.01,0.98
1697353943.1,-0.02,0.88,0.99,-0.3,3.2,41.9,0.17,0.01,-0.01,0.99
1697353943.11,0.11,0.85,0.88,-0.9,1.8,42.1,0.17,0.01,-0.01,0.99
1697353943.12,0.05,0.82,0.7,-1.5,0.5,41.6,0.16,0.01,-0.01,0.99
1697353943.13,0.07,0.82,0.92,-2.6,-0.1,41,0.16,0.01,-0.01,0.99
1697353943.14,0.02,0.91,0.96,-3.9,-0.6,40.4,0.16,0.01,-0.01,0.99
1697353943.15,0.03,0.96,0.91,-3.9,-0.6,40.4,0.15,0.01,-0.01,0.99
1697353943.16,0.03,0.89,0.88,-1.1,-0.3,39.4,0.15,0.01,-0.01,0.99
1697353943.17,0.13,0.86,0.7,-0.4,0.3,38.9,0.15,0.01,-0.01,0.99
1697353943.18,0.03,0.79,1.11,0.2,1,38.8,0.14,0.01,-0.01,0.99
1697353943.19,0.04,0.75,0.85,-0.5,1.6,38.7,0.14,0.01,-0.01,0.99
1697353943.2,-0.1,0.83,1.14,-0.5,1.6,38.7,0.14,0.01,-0.01,0.99
1697353943.21,0.05,0.88,0.88,-0.3,1.9,39.7,0.13,0.01,-0.01,0.99
1697353943.22,0.01,0.83,0.88,-0.3,1.9,39.7,0.13,0,-0.01,0.99
1697353943.23,-0.06,0.83,1.25,0.8,2.1,40.4,0.13,0,-0.01,0.99
1697353943.24,0.11,0.75,0.72,1.6,1.9,40.8,0.12,0,-0.01,0.99
1697353943.25,-0.04,0.73,1.17,1.4,1.7,41.3,0.12,0,-0.01,0.99
1697353943.26,0.04,0.79,1.18,0.4,1.2,41.1,0.12,0,-0.01,0.99
1697353943.27,0.12,0.84,0.98,-1.2,1,41.2,0.11,0,-0.01,0.99
1697353943.28,0.13,1.01,0.81,-2.3,0.3,41.4,0.11,0,-0.01,0.99
1697353943.29,0.02,0.96,1.1,-2.1,-0.6,41.3,0.1,0,-0.01,0.99
1697353943.3,0.1,0.87,0.92,-0.4,-1.3,41.5,0.1,0,-0.01,0.99
1697353943.31,-0.01,0.74,1.01,0.7,-1.3,41.9,0.1,0,-0.01,1
1697353943.32,-0.14,1.12,1.9,0.6,-1.4,41.7,0.09,0,-0.01,1
1697353943.33,0.27,0.45,0.51,0,-1.5,42,0.09,0,-0.01,1
1697353943.34,-0.09,0.76,1.26,-1,-2.8,41.5,0.08,0,-0.01,1
1697353943.35,-0.01,0.99,0.83,-3.2,-2.2,40.9,0.08,0,-0.01,1
1697353943.36,0.06,0.86,0.48,-1.1,-0.8,41,0.08,0,-0.01,1
1697353943.37,-0.08,0.86,1.11,2.3,-0.2,40.7,0.07,0,-0.01,1
1697353943.38,0.07,0.75,0.75,3.8,0.7,40.4,0.07,0,-0.01,1
1697353943.39,0.07,0.75,0.75,3.3,1.7,40.3,0.07,0,-0.01,1
1697353943.4,0.05,0.72,1.08,1.6,2,40.2,0.07,0,-0.01,1
1697353943.41,-0.01,0.86,0.78,-1.1,3,39.8,0.06,0,-0.01,1
1697353943.42,0.01,1.12,0.89,-2.6,4.6,40.2,0.06,0,-0.01,1
1697353943.43,0.01,1.12,0.89,-1.2,6.2,41.6,0.06,0,-0.01,1
1697353943.44,-0.09,1.12,1.12,1.2,7.3,43.2,0.05,0,-0.01,1
1697353943.45,-0.01,0.97,1,3.1,7,44.7,0.05,0,-0.01,1
1697353943.46,-0.01,0.97,1,3.1,7,44.7,0.05,0,-0.01,1
1697353943.47,-0.01,0.97,1,3.1,7,44.7,0.05,0,-0.01,1
1697353943.48,-0.01,0.97,1,3.1,7,44.7,0.05,0,-0.01,1
1697353943.49,-0.01,0.97,1,3.1,7,44.7,0.05,0,-0.01,1
1697353943.5,-0.01,0.97,1,3.1,7,44.7,0.05,0,-0.01,1
1697353943.51,-0.01,0.97,1,3.1,7,44.7,0.05,0,-0.01,1
1697353943.52,-0.01,0.97,1,3.1,7,44.7,0.05,0,-0.01,1
1697353943.53,-0.01,0.97,1,3.1,7,44.7,0.05,0,-0.01,1
1697353943.54,-0.01,0.97,1,3.1,7,44.7,0.05,0,-0.01,1
1697353943.55,-0.01,0.97,1,3.1,7,44.7,0.05,0,-0.01,1
1697353943.56,-0.01,0.97,1,3.1,7,44.7,0.05,0,-0.01,1
1697353943.57,-0.01,0.97,1,3.1,7,44.7,0.05,0,-0.01,1
1697353943.58,-0.01,0.97,1,3.1,7,44.7,0.05,0,-0.01,1
1697353943.59,-0.14,0.93,0.93,2.6,4.4,44.4,0.01,0,0.01,-1
1697353943.6,-0.02,1.04,0.61,3.2,6.4,43.5,0.02,0,0.01,-1
1697353943.61,0.03,0.83,1.16,3.7,7.3,43.3,0.02,0,0.01,-1
1697353943.62,-0.07,1.51,1.12,-2.2,7.1,45.3,0.02,0,0.01,-1
1697353943.63,-0.04,1.28,1.23,-4.9,5.7,46.4,0.03,0.01,0.01,-1
1697353943.64,0.11,1.27,0.66,-3.8,5.2,48.7,0.03,0.01,0.01,-1
1697353943.65,-0.15,1.22,1.37,-1,3.9,51.4,0.04,0.01,0.01,-1
1697353943.66,-0.02,1.05,0.95,0,3,53.5,0.04,0.01,0.01,-1
1697353943.67,0.01,0.89,1.16,1,2.2,54.5,0.05,0.01,0.01,-1
1697353943.68,0.1,0.82,0.84,1.1,0.6,54.4,0.05,0.01,0.01,-1
1697353943.69,-0.04,0.95,1.08,0,-0.9,54.3,0.06,0.01,0.01,-1
1697353943.7,-0.04,0.95,1.08,0,-0.9,54.3,0.06,0.01,0.01,-1
1697353943.71,-0.1,0.71,0.97,-1,-4.4,52,0.07,0.01,0.01,-1
1697353943.72,-0.1,0.71,0.97,-1,-4.4,52,0.07,0.01,0.01,-1
1697353943.73,0,0.91,1.07,1.4,-7.4,48.6,0.07,0.01,0.01,-1
1697353943.74,-0.1,0.75,1.02,1.4,-7.4,48.6,0.08,0,0.01,-1
1697353943.75,-0.2,0.94,1.18,0.2,-7.5,47,0.08,0,0.01,-1
1697353943.76,-0.13,0.86,1.29,-0.1,-6.4,43,0.08,0,0.01,-1
1697353943.77,-0.17,0.82,1.14,-0.1,-6.4,43,0.09,0,0.01,-1
1697353943.78,-0.1,0.88,0.93,-1.5,-2.4,40.5,0.09,0,0.01,-1
1697353943.79,-0.1,0.88,0.93,-1.5,-2.4,40.5,0.09,0,0.01,-1
1697353943.8,0,0.97,0.95,-3,-0.2,39.1,0.1,0,0.01,-1
1697353943.81,0.01,1.05,0.96,-4.8,2.2,38.5,0.1,0,0.01,-0.99
1697353943.82,-0.07,0.96,1.01,-4.3,3.9,38.7,0.11,0,0.01,-0.99
1697353943.83,-0.01,0.94,0.89,-2.2,4.7,39.4,0.11,0,0.01,-0.99
1697353943.84,0,0.79,1.03,0,5.6,40.3,0.11,0,0.01,-0.99
1697353943.85,-0.01,0.77,0.85,1.6,5.9,41.4,0.12,0.01,0.01,-0.99
1697353943.86,-0.07,0.74,1.34,1.8,5.7,42.2,0.12,0.01,0.01,-0.99
1697353943.87,-0.1,0.9,1.15,0.3,5.1,42.8,0.12,0.01,0.01,-0.99
1697353943.88,0,0.83,0.93,-2.3,3.3,43.3,0.13,0.01,0.01,-0.99
1697353943.89,0,0.83,0.93,-1.6,3.2,43.7,0.13,0.01,0.01,-0.99
1697353943.9,0.15,0.92,0.6,0.2,3.6,42.9,0.14,0.01,0.01,-0.99
1697353943.91,-0.06,0.93,0.98,1.9,4.6,42.3,0.14,0.01,0.01,-0.99
1697353943.92,-0.05,0.77,0.76,3.1,5.2,42.2,0.14,0.01,0.01,-0.99
1697353943.93,-0.04,0.76,0.66,2.8,5.5,41.5,0.15,0.01,0.01,-0.99
1697353943.94,-0.13,0.76,1.03,0.7,6.6,40,0.15,0.01,0.01,-0.99
1697353943.95,-0.02,1.02,0.66,-0.3,7.7,39.8,0.15,0.01,0.01,-0.99
1697353943.96,-0.07,1.14,1.04,-1.2,8.6,40.2,0.16,0.01,0.01,-0.99
1697353943.97,-0.07,1.11,1.16,2.3,8.5,40.8,0.16,0.01,0.01,-0.99
1697353943.98,-0.07,1.11,1.16,2.3,8.5,40.8,0.16,0.01,0.01,-0.99
1697353943.99,-0.07,1.11,1.16,2.3,8.5,40.8,0.16,0.01,0.01,-0.99
1697353944,-0.07,1.11,1.16,2.3,8.5,40.8,0.16,0.01,0.01,-0.99
1697353944.01,-0.07,1.11,1.16,2.3,8.5,40.8,0.16,0.01,0.01,-0.99
1697353944.02,-0.07,1.11,1.16,2.3,8.5,40.8,0.16,0.01,0.01,-0.99
1697353944.03,-0.07,1.11,1.16,2.3,8.5,40.8,0.16,0.01,0.01,-0.99
