time,accel_x,accel_y,accel_z,gyro_x,gyro_y,gyro_z,quat_w,quat_x,quat_y,quat_z
1697352617.35,-0.35,1.09,1.08,3.5,12.1,91.6,1,0.02,-0,0.09
1697352617.36,-0.35,1.09,1.08,3.5,12.1,91.6,1,0.02,-0,0.09
1697352617.37,-0.35,1.09,1.08,3.5,12.1,91.6,1,0.02,-0,0.09
1697352617.38,-0.35,1.09,1.08,3.5,12.1,91.6,1,0.02,-0,0.09
1697352617.39,-0.35,1.09,1.08,3.5,12.1,91.6,1,0.02,-0,0.09
1697352617.4,-0.35,1.09,1.08,3.5,12.1,91.6,1,0.02,-0,0.09
1697352617.41,-0.35,1.09,1.08,3.5,12.1,91.6,1,0.02,-0,0.09
1697352617.42,-0.35,1.09,1.08,3.5,12.1,91.6,1,0.02,-0,0.09
1697352617.43,-0.35,1.09,1.08,3.5,12.1,91.6,1,0.02,-0,0.09
1697352617.44,-0.35,1.09,1.08,3.5,12.1,91.6,1,0.02,-0,0.09
1697352617.45,-0.45,1.29,1.06,5.7,3.9,95.2,0.98,0.02,0,0.22
1697352617.46,-0.47,1.24,0.93,3.5,6.2,92.9,0.97,0.02,0,0.23
1697352617.47,-0.45,1.2,1.14,-1.2,8.8,90.9,0.97,0.02,0,0.25
1697352617.48,-0.45,1.2,1.14,-1.2,8.8,90.9,0.97,0.02,0,0.25
1697352617.49,-0.33,1.23,0.77,-3.3,9.3,90.6,0.96,0.02,0,0.26
1697352617.5,-0.33,1.23,0.77,-3.5,9.2,90.9,0.96,0.02,0,0.26
1697352617.51,-0.51,1.15,0.85,-3,8.8,91.2,0.96,0.02,0.01,0.27
1697352617.52,-0.67,1.15,0.77,-2,7.6,91,0.96,0.02,0.01,0.28
1697352617.53,-0.55,0.62,0.89,-3.2,6.4,91.7,0.96,0.02,0.01,0.29
1697352617.54,-0.36,0.82,0.4,-5.6,4.7,92.1,0.96,0.02,0.01,0.29
1697352617.55,-0.08,1,0.67,-7.9,2.6,93.7,0.95,0.02,0.01,0.3
1697352617.56,-0.07,1,0.66,-7.5,-0.1,96.1,0.95,0.02,0.01,0.31
1697352617.57,-0.22,1.16,1.22,-3.2,-3.3,96.1,0.95,0.02,0.01,0.32
1697352617.58,-0.28,0.82,0.54,-0.6,-5.8,96.6,0.95,0.02,0.01,0.33
1697352617.59,0.64,1.02,1.05,2.3,-7.9,95.1,0.94,0.02,0.01,0.33
1697352617.6,0.58,0.74,1.06,1.4,-8.6,93.3,0.94,0.02,0,0.34
1697352617.61,0.58,0.74,1.06,1.4,-8.6,93.3,0.94,0.02,0,0.34
1697352617.62,0.34,1.01,0.53,-2,-7.6,92.7,0.93,0.02,0,0.36
1697352617.63,0.34,1.01,0.53,-1.3,-4.7,92.8,0.93,0.02,0,0.36
1697352617.64,0.15,0.95,0.9,0.8,-2.3,91.6,0.93,0.02,0,0.37
1697352617.65,-0.58,1.43,1.17,2.1,0.3,92,0.92,0.02,0,0.39
1697352617.66,-0.07,0.75,1.28,5.3,2.5,89.1,0.92,0.02,0,0.4
1697352617.67,-0.16,1.25,0.78,1.8,3.6,89,0.92,0.02,0,0.4
1697352617.68,-0.23,0.84,0.99,0.9,4.2,89.1,0.91,0.02,0,0.4
1697352617.69,-0.15,1.07,0.78,-2.8,5.5,87.9,0.91,0.02,0,0.42
1697352617.7,-0.22,0.97,1.17,-3.2,5.6,88.6,0.9,0.02,0,0.43
1697352617.71,-0.22,0.97,1.17,-3.2,5.6,88.6,0.9,0.02,0,0.43
1697352617.72,-0.07,1.18,1.37,-1.5,4.6,91.9,0.9,0.02,0,0.44
1697352617.73,0,1,1.25,-0.6,3.1,93.4,0.89,0.02,0,0.45
1697352617.74,0.03,1.03,0.71,-1.3,1.1,95.5,0.89,0.02,0,0.45
1697352617.75,0.03,1.03,0.71,-1.3,1.1,95.5,0.89,0.02,0,0.45
1697352617.76,0.01,0.91,1.48,-1.4,-1.2,97.9,0.88,0.02,0,0.47
1697352617.77,0.07,0.9,0.67,-1.4,-1.2,97.9,0.88,0.02,0,0.47
1697352617.78,-0.07,1.05,1.51,-0.9,-0.8,97.9,0.88,0.02,0,0.48
1697352617.79,0.07,1.01,0.89,-0.8,-0.3,96.8,0.87,0.02,0,0.49
1697352617.8,-0.12,1.21,1.17,0.3,0.1,95,0.87,0.02,0,0.49
1697352617.81,-0.04,1.13,1.11,1.8,1.1,92.5,0.87,0.02,0,0.5
1697352617.82,-0.13,1.06,0.96,3.9,2.1,90.4,0.86,0.02,0,0.51
1697352617.83,-0.1,1,0.86,3.6,5.1,86.5,0.86,0.02,0,0.51
1697352617.84,-0.1,1,0.86,3.6,5.1,86.5,0.86,0.02,0,0.51
1697352617.85,-0.1,1,0.86,3.6,5.1,86.5,0.86,0.02,0,0.51
1697352617.86,-0.1,1,0.86,3.6,5.1,86.5,0.86,0.02,0,0.51
1697352617.87,-0.1,1,0.86,3.6,5.1,86.5,0.86,0.02,0,0.51
1697352617.88,-0.1,1,0.86,3.6,5.1,86.5,0.86,0.02,0,0.51
1697352617.89,-0.1,1,0.86,3.6,5.1,86.5,0.86,0.02,0,0.51
1697352617.9,-0.1,1,0.86,3.6,5.1,86.5,0.86,0.02,0,0.51
1697352617.91,-0.1,1,0.86,3.6,5.1,86.5,0.86,0.02,0,0.51
1697352617.92,-0.1,1,0.86,3.6,5.1,86.5,0.86,0.02,0,0.51
1697352617.93,-0.1,1,0.86,3.6,5.1,86.5,0.86,0.02,0,0.51
1697352617.94,-0.1,1,0.86,3.6,5.1,86.5,0.86,0.02,0,0.51
1697352617.95,-0.1,1,0.86,3.6,5.1,86.5,0.86,0.02,0,0.51
1697352617.96,-0.1,1,0.86,3.6,5.1,86.5,0.86,0.02,0,0.51
1697352617.97,0.35,0.8,1.09,1.6,-3,83.6,0.8,0.01,0,0.61
1697352617.98,0.14,0.77,1.64,3.4,-2.4,80.1,0.79,0.01,0,0.61
1697352617.99,0.15,0.66,0.77,3.3,-0.7,76.3,0.79,0.01,0,0.62
1697352618,0.01,0.77,0.88,1.8,1.2,73.6,0.78,0.01,0,0.62
1697352618.01,-0.15,0.71,0.98,-0.5,3.8,71.7,0.78,0.01,0,0.63
1697352618.02,-0.27,1.01,0.89,-1,5.9,71,0.77,0.01,0,0.63
1697352618.03,0.05,0.98,0.53,-1,5.9,71,0.77,0.01,0,0.63
1697352618.04,-0.12,0.82,1.54,1.3,6.1,70.8,0.77,0.01,0,0.64
1697352618.05,0.01,0.9,0.88,-0.4,5.8,70.9,0.76,0.01,0,0.65
1697352618.06,-0.03,0.69,1.2,-2.1,4.9,71.4,0.76,0.01,0,0.65
1697352618.07,0.15,0.7,0.64,-3.8,3.4,71.3,0.75,0.01,0,0.66
1697352618.08,-0.02,0.68,1.05,-3.8,2.1,71,0.75,0.01,0,0.66
1697352618.09,0.16,0.63,0.97,-2.8,0.9,69.7,0.75,0.01,0,0.67
1697352618.1,0.12,0.6,1.52,-2.1,-0.1,67.7,0.74,0.01,0,0.67
1697352618.11,0.31,0.47,0.81,-1.5,-1.6,65.3,0.74,0.01,0,0.67
1697352618.12,0.3,0.43,0.95,-1.1,-3,61.9,0.73,0.01,0,0.68
1697352618.13,0.3,0.43,0.95,-1.1,-3,61.9,0.73,0.01,0,0.68
1697352618.14,0.3,0.41,0.74,-0.8,-3.7,54.6,0.73,0.01,0,0.69
1697352618.15,0.3,0.41,0.74,-0.8,-3.7,54.6,0.73,0.01,0,0.69
1697352618.16,0.2,0.39,1.03,-1.4,-2.3,51.7,0.72,0.01,-0,0.69
1697352618.17,-0.09,0.46,0.86,-2.8,-0.7,51.1,0.72,0.01,-0,0.69
1697352618.18,-0,0.4,0.78,-3.6,3.2,48.9,0.72,0.01,-0,0.7
1697352618.19,-0,0.4,0.78,-3.6,3.2,48.9,0.71,0.01,-0,0.7
1697352618.2,0.09,0.3,1.09,-4.2,4,47.8,0.71,0.01,-0,0.7
1697352618.21,0.12,0.26,0.79,-4.3,4.4,46.1,0.71,0.01,-0,0.71
1697352618.22,0.19,0.29,0.69,-4,3.6,44.6,0.71,0.01,-0,0.71
1697352618.23,0.29,0.24,1.41,-1.5,2.1,41.3,0.7,0.01,-0,0.71
1697352618.24,0.4,0.13,0.81,-0.7,0.7,38.7,0.7,0.01,-0,0.71
1697352618.25,0.23,0.17,0.9,-0.4,-0.5,36.3,0.7,0.01,-0,0.72
1697352618.26,0.22,0.16,1.13,-0.4,-1.2,34.2,0.7,0.01,-0,0.72
1697352618.27,-0.01,0.16,1.49,-2.2,-1.2,32.6,0.69,0.01,-0,0.72
1697352618.28,0.25,0.09,0.99,-5.4,-0.8,31.8,0.69,0.01,-0,0.72
1697352618.29,0.15,0.29,0.96,-3.8,-1.5,30.8,0.69,0.01,-0,0.72
1697352618.3,0.12,0.49,1.1,-0.4,-1.9,30.1,0.69,0.01,-0,0.73
1697352618.31,0.13,0.18,0.96,0,-2.3,29.9,0.69,0.01,-0,0.73
1697352618.32,0.24,0.04,0.65,-0.6,-2.6,27.1,0.68,0.01,-0,0.73
1697352618.33,0.28,0.1,0.81,-3.6,-2.7,25.4,0.68,0.01,-0,0.73
1697352618.34,0.2,0.18,1.32,-3.6,-2.7,25.4,0.68,0.01,-0,0.73
1697352618.35,0.24,0.39,1.1,-2.1,-1.7,22.8,0.68,0.01,-0,0.73
1697352618.36,0.24,0.39,1.1,-2.1,-1.7,22.8,0.68,0.01,-0,0.73
1697352618.37,0.24,0.39,1.1,-2.1,-1.7,22.8,0.68,0.01,-0,0.73
1697352618.38,0.24,0.39,1.1,-2.1,-1.7,22.8,0.68,0.01,-0,0.73
1697352618.39,0.24,0.39,1.1,-2.1,-1.7,22.8,0.68,0.01,-0,0.73
1697352618.4,0.24,0.39,1.1,-2.1,-1.7,22.8,0.68,0.01,-0,0.73
1697352618.41,0.24,0.39,1.1,-2.1,-1.7,22.8,0.68,0.01,-0,0.73
1697352618.42,0.24,0.39,1.1,-2.1,-1.7,22.8,0.68,0.01,-0,0.73
1697352618.43,0.24,0.39,1.1,-2.1,-1.7,22.8,0.68,0.01,-0,0.73
1697352618.44,0.24,0.39,1.1,-2.1,-1.7,22.8,0.68,0.01,-0,0.73
1697352618.45,0.24,0.39,1.1,-2.1,-1.7,22.8,0.68,0.01,-0,0.73
1697352618.46,0.24,0.39,1.1,-2.1,-1.7,22.8,0.68,0.01,-0,0.73
1697352618.47,0.24,0.39,1.1,-2.1,-1.7,22.8,0.68,0.01,-0,0.73
1697352618.48,0.24,0.39,1.1,-2.1,-1.7,22.8,0.68,0.01,-0,0.73
1697352618.49,0.24,0.39,1.1,-2.1,-1.7,22.8,0.68,0.01,-0,0.73
1697352618.5,0.24,0.39,1.1,-2.1,-1.7,22.8,0.68,0.01,-0,0.73
1697352618.51,0.24,0.39,1.1,-2.1,-1.7,22.8,0.68,0.01,-0,0.73
1697352618.52,0.24,0.39,1.1,-2.1,-1.7,22.8,0.68,0.01,-0,0.73
1697352618.53,0.21,-0.16,0.82,1.7,3.8,15.7,0.65,0.01,-0,0.76
1697352618.54,0.15,-0.11,1.34,-0.2,2.8,14.5,0.65,0.01,-0,0.76
1697352618.55,0.3,-0.03,1.27,-3.7,1.4,13,0.65,0.01,-0,0.76
1697352618.56,0.34,0.07,0.72,-6,0.3,11.5,0.65,0.01,-0,0.76
1697352618.57,0.19,-0.06,0.94,-6.2,-1.1,9.8,0.65,0.01,-0,0.76
1697352618.58,0.14,-0.34,1.17,-3.4,-2.1,8.1,0.65,0.01,-0,0.76
1697352618.59,0.22,-0.33,0.93,-0.7,-2.7,6.7,0.65,0.01,-0,0.76
1697352618.6,0.12,-0.44,0.61,-0.7,-2.7,4.1,0.65,0.01,-0.01,0.76
1697352618.61,0.09,-0.34,1.36,-3,-2.2,2.1,0.65,0.01,-0.01,0.76
1697352618.62,0.14,-0.8,0.64,-0.1,-1.7,-1.7,0.65,0.01,-0.01,0.76
1697352618.63,0.18,-0.56,1,-2.3,-1.4,-3.3,0.65,0.01,-0.01,0.76
1697352618.64,0.21,-0.74,1.2,-3.6,-1,-7.2,0.65,0.01,-0.01,0.76
1697352618.65,0.2,-0.76,0.62,-5.5,-0.8,-10.4,0.65,0.01,-0.01,0.76
1697352618.66,0.18,-0.59,0.93,-7.9,-0.2,-13.2,0.65,0.01,-0.01,0.76
1697352618.67,0.17,-0.57,0.86,-7.5,-0.2,-17.6,0.65,0.01,-0.01,0.76
1697352618.68,0.25,-0.64,1.08,-6.1,-0.7,-20.1,0.66,0.01,-0.01,0.75
1697352618.69,-0.01,-0.73,1.21,-3.7,-1.1,-22.8,0.66,0.01,-0.01,0.75
1697352618.7,0.03,-0.91,0.65,-2.4,-1.5,-25.1,0.66,0.01,-0.01,0.75
1697352618.71,0.01,-0.72,1.15,-2.4,-1.5,-25.1,0.66,0.01,-0.01,0.75
1697352618.72,0.13,-0.5,0.73,-2.5,-0.8,-28.5,0.66,0.01,-0.01,0.75
1697352618.73,0.04,-0.59,0.58,-3.5,-1.8,-29.7,0.66,0.01,-0.01,0.75
1697352618.74,0.18,-0.73,1.03,-2.5,0,-30,0.67,0.01,-0.01,0.74
1697352618.75,0.18,-0.73,1.03,-2.5,0,-30,0.67,0.01,-0.01,0.74
1697352618.76,0.09,-0.5,1.06,-1.9,1.5,-30.4,0.67,0,-0.01,0.74
1697352618.77,0.21,-0.57,0.92,-1.5,2.8,-31.7,0.67,0,-0.01,0.74
1697352618.78,0.14,-0.77,0.96,-1.5,2.8,-31.7,0.67,0,-0.01,0.74
1697352618.79,0.04,-0.7,1.05,0.3,1.9,-33.1,0.68,0,-0.01,0.74
1697352618.8,0.11,-0.75,0.94,0.3,1.9,-33.1,0.68,0,-0.01,0.73
1697352618.81,0.12,-0.85,1.05,0.6,1.3,-34.2,0.68,0,-0.01,0.73
1697352618.82,0.08,-0.71,0.99,0.1,0.2,-34.8,0.68,0,-0.01,0.73
1697352618.83,0.14,-0.73,1.04,-0.2,-0.7,-35.9,0.69,0,-0.01,0.73
1697352618.84,0.07,-0.54,0.85,-0.6,-1.6,-37.1,0.69,0,-0.01,0.73
1697352618.85,0.07,-0.54,0.85,-1.4,-2.1,-37.9,0.69,0,-0.01,0.72
1697352618.86,0.19,-0.58,1.01,0.4,-2.4,-38.9,0.69,0,-0.01,0.72
1697352618.87,-0.02,-0.59,1.17,1.4,-1.6,-39.3,0.7,0.01,-0.01,0.72
1697352618.88,0.12,-0.66,1.1,1.3,-0.8,-39.9,0.7,0.01,-0.01,0.72
1697352618.89,0.15,-0.76,1.02,0,0.2,-40.6,0.7,0.01,-0.01,0.71
1697352618.9,-0.15,-0.61,1.3,-1.2,1.1,-41.5,0.7,0.01,-0.01,0.71
1697352618.91,0.03,-0.85,1.09,-2.5,2.4,-42.7,0.71,0.01,-0.01,0.71
1697352618.92,-0.04,-0.69,0.81,-6.5,2.4,-43,0.71,0,-0.01,0.71
1697352618.93,-0.04,-0.69,0.81,-6.5,2.4,-43,0.71,0,-0.01,0.71
1697352618.94,-0.04,-0.69,0.81,-6.5,2.4,-43,0.71,0,-0.01,0.71
1697352618.95,-0.04,-0.69,0.81,-6.5,2.4,-43,0.71,0,-0.01,0.71
1697352618.96,-0.04,-0.69,0.81,-6.5,2.4,-43,0.71,0,-0.01,0.71
1697352618.97,-0.04,-0.69,0.81,-6.5,2.4,-43,0.71,0,-0.01,0.71
1697352618.98,-0.04,-0.69,0.81,-6.5,2.4,-43,0.71,0,-0.01,0.71
1697352618.99,-0.04,-0.69,0.81,-6.5,2.4,-43,0.71,0,-0.01,0.71
1697352619,-0.04,-0.69,0.81,-6.5,2.4,-43,0.71,0,-0.01,0.71
1697352619.01,-0.04,-0.69,0.81,-6.5,2.4,-43,0.71,0,-0.01,0.71
1697352619.02,-0.04,-0.69,0.81,-6.5,2.4,-43,0.71,0,-0.01,0.71
1697352619.03,-0.04,-0.69,0.81,-6.5,2.4,-43,0.71,0,-0.01,0.71
1697352619.04,-0.04,-0.69,0.81,-6.5,2.4,-43,0.71,0,-0.01,0.71
1697352619.05,-0.09,-0.83,1.3,-1.9,1.7,-44.8,0.74,0,-0.01,0.67
1697352619.06,0.01,-0.71,1.13,-1.4,2.3,-45.4,0.74,0,-0.01,0.67
1697352619.07,-0.04,-0.75,1.09,1.7,2.8,-47.2,0.75,0,-0.01,0.66
1697352619.08,-0.07,-0.82,1.24,-0.2,2.8,-48.2,0.75,0,-0.01,0.66
1697352619.09,0.05,-0.93,0.97,-2.4,2.3,-48.9,0.75,0,-0.01,0.66
1697352619.1,0.05,-0.93,0.97,-2.4,2.3,-48.9,0.75,0,-0.01,0.66
1697352619.11,0.15,-0.83,0.85,-3.8,2,-49.5,0.76,0,-0.01,0.65
1697352619.12,0.19,-0.76,0.76,-4,1.4,-49.7,0.76,0,-0.01,0.65
1697352619.13,0.19,-0.76,0.76,-3.1,0.1,-49.8,0.76,0,-0.01,0.65
1697352619.14,0.04,-0.7,1.16,-1.8,-1,-49.7,0.77,0,-0.01,0.64
1697352619.15,-0.05,-0.66,0.85,0.2,-1.7,-49.2,0.77,0,-0.01,0.64
1697352619.16,0.08,-0.78,0.89,1.1,-2.3,-48.6,0.77,0,-0.01,0.64
1697352619.17,-0.14,-0.74,1.26,2.1,-2.2,-48.2,0.77,0,-0.01,0.63
1697352619.18,-0.07,-0.85,1.18,2,-1.2,-47.8,0.78,0,-0.01,0.63
1697352619.19,-0.17,-0.85,0.81,0.6,0.5,-47.5,0.78,0,-0.01,0.63
1697352619.2,0.11,-0.93,1.11,-0.8,2.2,-47.5,0.78,0,-0.01,0.62
1697352619.21,-0.12,-0.72,0.96,-2.1,3.1,-46.9,0.79,0,-0.01,0.62
1697352619.22,0.1,-0.77,0.96,-0.1,4.5,-47.2,0.79,0,-0.01,0.62
1697352619.23,-0.09,-0.61,1.01,2.2,5.3,-47,0.79,0,-0.01,0.61
1697352619.24,-0.05,-0.75,1.02,3.1,5.5,-47,0.79,0,-0.01,0.61
1697352619.25,0.15,-1,0.9,2.1,5.1,-47.7,0.8,0,-0.01,0.61
1697352619.26,-0.09,-0.74,1.44,-1.6,3.6,-48.6,0.8,0,-0.01,0.6
1697352619.27,-0.09,-0.74,1.44,-2.2,1.9,-49,0.8,0,-0.01,0.6
1697352619.28,0.06,-0.78,0.76,-1,0.5,-49.6,0.8,0,-0.01,0.59
1697352619.29,0.15,-0.65,0.85,0.8,-0.3,-49.7,0.81,0,-0.01,0.59
1697352619.3,-0.13,-0.53,1.14,3,-1.2,-49.2,0.81,0,-0.01,0.59
1697352619.31,0.15,-0.73,0.83,4.6,-1.5,-48.8,0.81,0,-0.01,0.58
1697352619.32,0.04,-0.92,0.95,2.9,-1.5,-48.7,0.81,0,-0.01,0.58
1697352619.33,0.04,-1.08,0.99,2,-1.5,-48.8,0.81,0,-0.01,0.58
1697352619.34,-0.17,-0.66,1.08,-3.8,0.6,-48.4,0.82,0,-0.01,0.57
1697352619.35,0.14,-0.75,1.22,-2.4,1.5,-48.2,0.82,0,-0.01,0.57
1697352619.36,-0.11,-0.58,1.14,1,2,-48.1,0.82,0,-0.01,0.57
1697352619.37,0.02,-0.77,1.15,3,2.3,-47.9,0.83,0,-0.01,0.56
1697352619.38,0.01,-0.85,0.96,2.6,2.5,-48.4,0.83,0,-0.01,0.56
1697352619.39,-0.03,-0.82,1.17,2.6,2.5,-48.4,0.83,0,-0.01,0.56
1697352619.4,0.1,-0.92,0.84,-2.4,2.9,-48.2,0.83,0,-0.01,0.55
1697352619.41,0.1,-0.92,0.84,-2.4,2.9,-48.2,0.83,0,-0.01,0.55
1697352619.42,0.14,-0.76,0.92,-3.2,1.4,-48.3,0.84,0,-0.01,0.55
1697352619.43,0.14,-0.76,0.92,-3.2,1.4,-48.3,0.84,0,-0.01,0.55
1697352619.44,0.14,-0.76,0.92,-3.2,1.4,-48.3,0.84,0,-0.01,0.55
1697352619.45,0.14,-0.76,0.92,-3.2,1.4,-48.3,0.84,0,-0.01,0.55
1697352619.46,0.14,-0.76,0.92,-3.2,1.4,-48.3,0.84,0,-0.01,0.55
1697352619.47,0.14,-0.76,0.92,-3.2,1.4,-48.3,0.84,0,-0.01,0.55
1697352619.48,0.14,-0.76,0.92,-3.2,1.4,-48.3,0.84,0,-0.01,0.55
1697352619.49,0.14,-0.76,0.92,-3.2,1.4,-48.3,0.84,0,-0.01,0.55
1697352619.5,0.14,-0.76,0.92,-3.2,1.4,-48.3,0.84,0,-0.01,0.55
1697352619.51,0.14,-0.76,0.92,-3.2,1.4,-48.3,0.84,0,-0.01,0.55
1697352619.52,0.14,-0.76,0.92,-3.2,1.4,-48.3,0.84,0,-0.01,0.55
1697352619.53,0.14,-0.76,0.92,-3.2,1.4,-48.3,0.84,0,-0.01,0.55
1697352619.54,0.14,-0.76,0.92,-3.2,1.4,-48.3,0.84,0,-0.01,0.55
1697352619.55,0.14,-0.76,0.92,-3.2,1.4,-48.3,0.84,0,-0.01,0.55
1697352619.56,0.14,-0.76,0.92,-2.1,1.6,-49.2,0.84,0,-0.01,0.55
1697352619.57,0.1,-0.63,0.8,-2.1,1.9,-49.2,0.87,0,-0.01,0.49
1697352619.58,0.16,-0.67,1.05,-0.5,1.7,-49,0.87,0,-0.01,0.49
1697352619.59,0.17,-0.74,0.97,1.8,1.4,-48.8,0.87,0,-0.01,0.49
1697352619.6,0.25,-0.97,0.96,3.9,0,-47.9,0.87,0,-0.01,0.49
1697352619.61,0.04,-0.85,0.76,4.5,-2,-47.6,0.88,0,-0.01,0.48
1697352619.62,0.24,-0.89,0.84,3.9,-3.7,-48.3,0.88,0,-0.01,0.47
1697352619.63,0.06,-0.77,0.68,0.9,-4.5,-48.4,0.88,0,-0.01,0.47
1697352619.64,0.15,-0.59,0.83,-2.3,-4.5,-47.9,0.89,0,-0.01,0.47
1697352619.65,-0.04,-0.5,1.35,-3.3,-4,-47.2,0.89,0,-0.01,0.46
1697352619.66,0.06,-0.61,0.32,-1.8,-2.8,-46.5,0.89,0,-0.01,0.46
1697352619.67,-0.14,-0.73,1.73,1.3,-1.2,-45.7,0.89,0,-0.01,0.45
1697352619.68,0.06,-0.98,0.35,4.5,0.8,-44.8,0.89,0,-0.01,0.45
1697352619.69,-0.18,-0.94,1.25,4.9,3,-44.7,0.89,0,-0.01,0.45
1697352619.7,0.23,-0.98,0.62,2.7,5.7,-45.4,0.9,0,-0.01,0.44
1697352619.71,0.23,-0.98,0.62,2.7,5.7,-45.4,0.9,0,-0.01,0.44
1697352619.72,-0.04,-0.68,1.2,-3.6,8.6,-47.8,0.9,0,-0,0.44
1697352619.73,-0.04,-0.68,1.2,-1.7,8.5,-48.5,0.9,0,-0,0.44
1697352619.74,0.19,-0.69,1.02,1.3,7.4,-49.8,0.9,0,-0,0.43
1697352619.75,-0.09,-0.76,1.1,1.3,7.4,-49.8,0.9,0,-0,0.43
1697352619.76,0.17,-1.01,1.07,6.2,6.5,-50.1,0.91,0,-0,0.42
1697352619.77,0.04,-1.27,0.78,6.2,6.5,-50.1,0.91,0,-0,0.42
1697352619.78,0.09,-1.2,0.88,11.6,5.4,-50.9,0.91,0.01,0,0.42
1697352619.79,0.01,-1.03,0.69,5.5,4.7,-51.2,0.91,0.01,0,0.41
1697352619.8,0.01,-1.03,0.69,-1.2,3.9,-51.7,0.91,0.01,0,0.41
1697352619.81,0.1,-0.77,1.09,-4.4,1.4,-51.4,0.91,0,0,0.4
1697352619.82,-0.03,-0.56,1.03,0.5,-0.1,-50.9,0.92,0,0,0.4
1697352619.83,0.03,-0.65,0.82,4.3,-1.1,-50.5,0.92,0,0,0.39
1697352619.84,0.19,-0.77,0.8,5,-1.9,-50.2,0.92,0,0,0.39
1697352619.85,-0.03,-0.96,0.76,2.6,-2.4,-50.1,0.92,0.01,0,0.39
1697352619.86,0.16,-0.92,1.35,-0.5,-2.7,-49.6,0.92,0.01,0,0.38
1697352619.87,0.3,-0.86,0.42,-2.7,-2.3,-49.1,0.93,0.01,0,0.38
1697352619.88,0.07,-0.77,1.4,-2.8,-2.1,-48.2,0.93,0,-0,0.37
1697352619.89,0.25,-0.67,0.85,-0.5,-1.2,-47.7,0.93,0,-0,0.37
1697352619.9,0.03,-0.79,1.15,0.9,0.3,-47.6,0.93,0,-0,0.37
1697352619.91,0.06,-0.78,1.21,1.9,2.2,-48.1,0.93,0.01,0,0.36
1697352619.92,-0.11,-0.88,1.02,1.3,3.5,-49.6,0.93,0.01,0,0.36
1697352619.93,0.16,-0.96,0.91,1.3,3.5,-49.6,0.93,0.01,0,0.36
1697352619.94,-0.27,-0.77,1.15,0,4,-51.3,0.94,0,0,0.35
1697352619.95,0.22,-0.88,0.63,-1.2,4.3,-52.2,0.94,0,0,0.35
1697352619.96,0.22,-0.88,0.63,-1.2,4.3,-52.2,0.94,0,0,0.35
1697352619.97,0.22,-0.88,0.63,-1.2,4.3,-52.2,0.94,0,0,0.35
1697352619.98,0.22,-0.88,0.63,-1.2,4.3,-52.2,0.94,0,0,0.35
1697352619.99,0.22,-0.88,0.63,-1.2,4.3,-52.2,0.94,0,0,0.35
1697352620,0.22,-0.88,0.63,-1.2,4.3,-52.2,0.94,0,0,0.35
1697352620.01,0.22,-0.88,0.63,-1.2,4.3,-52.2,0.94,0,0,0.35
1697352620.02,0.22,-0.88,0.63,-1.2,4.3,-52.2,0.94,0,0,0.35
1697352620.03,0.22,-0.88,0.63,-1.2,4.3,-52.2,0.94,0,0,0.35
1697352620.04,0.22,-0.88,0.63,-1.2,4.3,-52.2,0.94,0,0,0.35
1697352620.05,0.22,-0.88,0.63,-1.2,4.3,-52.2,0.94,0,0,0.35
1697352620.06,0.22,-0.88,0.63,-1.2,4.3,-52.2,0.94,0,0,0.35
1697352620.07,0.22,-0.88,0.63,-1.2,4.3,-52.2,0.94,0,0,0.35
1697352620.08,0.22,-0.88,0.63,-1.2,4.3,-52.2,0.95,0,0,0.3
1697352620.09,-0.01,-0.83,1.23,0.4,8.3,-43.5,0.96,0,0,0.29
1697352620.1,0.05,-0.8,0.66,-0.8,8.5,-44.3,0.96,0,0,0.29
1697352620.11,0.04,-0.84,1.32,-1.4,8.2,-45.1,0.96,0,0,0.29
1697352620.12,0.15,-0.74,0.63,-0.8,6.6,-46,0.96,0,0,0.28
1697352620.13,0.14,-0.62,1.11,0.3,4.8,-46.7,0.96,0,0,0.28
1697352620.14,0.16,-0.67,0.39,1.3,2.8,-46.4,0.96,0,0.01,0.27
1697352620.15,0.09,-0.62,1.34,1.8,1.2,-46.1,0.96,0,0.01,0.27
1697352620.16,0.25,-0.41,0.65,5,-1,-42.8,0.96,0,0.01,0.27
1697352620.17,0.18,-0.66,0.6,5.3,-1.2,-42.4,0.97,0,0.01,0.26
1697352620.18,0.05,-0.71,1.25,5.2,-0.3,-41.7,0.97,0,0.01,0.26
1697352620.19,0.09,-0.81,0.91,3.8,0.1,-40.5,0.97,0,0.01,0.25
1697352620.2,-0.04,-0.7,1.2,0.8,1.4,-39.5,0.97,0,0.01,0.25
1697352620.21,0.08,-0.64,1.2,-0.4,2.4,-38.9,0.97,0,0.01,0.25
1697352620.22,0.05,-0.66,0.9,0.7,2.7,-38.8,0.97,0,0.01,0.24
1697352620.23,0.06,-0.71,1.11,0.2,4.3,-39.1,0.97,0,0.01,0.24
1697352620.24,0.06,-0.67,0.59,-1.4,5.6,-39.2,0.97,0,0.01,0.24
1697352620.25,-0,-0.59,1.47,-2.8,6.1,-39.8,0.97,0,0.01,0.23
1697352620.26,0.09,-0.57,1.31,-2.6,5.8,-40.8,0.97,0,0.01,0.23
1697352620.27,0.16,-0.48,0.69,0,5.4,-41.5,0.97,0,0.01,0.23
1697352620.28,0.12,-0.72,1.31,1,4.6,-41.3,0.97,0,0.01,0.22
1697352620.29,0.25,-0.63,0.62,0,3,-41.3,0.98,0,0.01,0.22
1697352620.3,0.07,-0.6,1.19,-0.4,1.2,-41.2,0.98,0,0.01,0.22
1697352620.31,0.23,-0.57,0.95,-0.7,-0.2,-40.2,0.98,0,0.01,0.21
1697352620.32,0.21,-0.23,0.66,-1,-1.1,-38.6,0.98,0,0.01,0.21
1697352620.33,0.1,-0.29,0.64,3.9,-2.2,-35.6,0.98,0,0.01,0.21
1697352620.34,0,-0.59,1.35,7,-1.8,-31.1,0.98,0,0.01,0.2
1697352620.35,0.13,-0.44,0.7,5.5,-0.3,-29,0.98,0,0.01,0.2
1697352620.36,0.04,-0.68,1.19,3,1.2,-27.9,0.98,0,0.01,0.2
1697352620.37,0.09,-0.46,0.69,-1.3,2.2,-26.4,0.98,0,0.01,0.2
1697352620.38,0.09,-0.46,0.69,-1.3,2.2,-26.4,0.98,0,0.01,0.2
1697352620.39,0.17,-0.18,1.23,2,1,-25.1,0.98,0,0.01,0.19
1697352620.4,0.27,-0.23,0.78,2,1,-25.1,0.98,0,0.01,0.19
1697352620.41,0.09,-0.21,1.48,4.2,-0.3,-24.2,0.98,0.01,0.01,0.19
1697352620.42,0.25,-0.25,0.9,2.7,-2.6,-22.4,0.98,0.01,0.01,0.19
1697352620.43,0.27,-0.21,0.84,1.7,-3.8,-20.9,0.98,0.01,0.01,0.19
1697352620.44,0.02,-0.16,1.04,1.7,-3.8,-20.9,0.98,0.01,0.01,0.18
1697352620.45,0.17,-0.1,1.11,-0.1,-4.1,-19.5,0.98,0.01,0.01,0.18
1697352620.46,0.17,-0.1,1.11,-0.6,-3.4,-18.3,0.98,0.01,0.01,0.18
1697352620.47,0.17,-0.1,1.11,-0.6,-3.4,-18.3,0.98,0.01,0.01,0.18
1697352620.48,0.17,-0.1,1.11,-0.6,-3.4,-18.3,0.98,0.01,0.01,0.18
1697352620.49,0.17,-0.1,1.11,-0.6,-3.4,-18.3,0.98,0.01,0.01,0.18
1697352620.5,0.17,-0.1,1.11,-0.6,-3.4,-18.3,0.98,0.01,0.01,0.18
1697352620.51,0.17,-0.1,1.11,-0.6,-3.4,-18.3,0.98,0.01,0.01,0.18
1697352620.52,0.17,-0.1,1.11,-0.6,-3.4,-18.3,0.98,0.01,0.01,0.18
1697352620.53,0.17,-0.1,1.11,-0.6,-3.4,-18.3,0.98,0.01,0.01,0.18
1697352620.54,0.17,-0.1,1.11,-0.6,-3.4,-18.3,0.98,0.01,0.01,0.18
1697352620.55,0.17,-0.1,1.11,-0.6,-3.4,-18.3,0.98,0.01,0.01,0.18
1697352620.56,0.17,-0.1,1.11,-0.6,-3.4,-18.3,0.98,0.01,0.01,0.18
1697352620.57,0.17,-0.1,1.11,-0.6,-3.4,-18.3,0.98,0.01,0.01,0.18
1697352620.58,0.17,-0.1,1.11,-0.6,-3.4,-18.3,0.98,0.01,0.01,0.18
1697352620.59,0.16,-0.25,0.83,-1.7,0.3,-10.3,0.99,0.01,0.01,0.16
1697352620.6,0.05,-0.03,1.4,-2.1,-0.5,-8.7,0.99,0.01,0.01,0.16
1697352620.61,0.24,0.05,0.92,-2.1,-0.5,-8.7,0.99,0.01,0.01,0.16
1697352620.62,0.29,0.09,0.73,5.2,-1.1,-6.1,0.99,0.01,0.01,0.16
1697352620.63,0.29,0.09,0.73,5.2,-1.1,-6.1,0.99,0.01,0.01,0.16
1697352620.64,0.2,-0.29,0.7,6.2,-2.4,-5.4,0.99,0.01,0.01,0.16
1697352620.65,0.2,-0.29,0.7,6.2,-2.4,-5.4,0.99,0.01,0.01,0.16
1697352620.66,0.13,-0.11,0.49,-5,-3.6,-6.3,0.99,0.01,0.01,0.16
1697352620.67,-0.05,0.2,1.27,-5,-3.6,-6.3,0.99,0.01,0.01,0.16
1697352620.68,0.02,0.26,1.13,-0.6,-1.2,-5.7,0.99,0.01,0.01,0.16
1697352620.69,0.02,0.26,1.13,-0.6,-1.2,-5.7,0.99,0.01,0.01,0.16
1697352620.7,-0.09,0.02,1.4,1.8,2.2,-4.7,0.99,0.01,0.01,0.16
1697352620.71,0.08,-0.17,1.02,1.8,2.2,-4.7,0.99,0.01,0.01,0.16
1697352620.72,0.25,-0.07,0.83,-2.1,3.7,-3.8,0.99,0.01,0.01,0.16
1697352620.73,0.35,-0.18,0.76,-2.8,3.3,-3,0.99,0.01,0.01,0.16
1697352620.74,-0.11,0.21,1.39,-0.9,2.5,-1.9,0.99,0.01,0.01,0.16
1697352620.75,0.17,0.3,1.01,2.6,2.1,0,0.99,0.01,0.01,0.16
1697352620.76,0.26,0.26,0.58,7,1.7,1,0.99,0.01,0.01,0.16
1697352620.77,0.06,0.04,1.39,8,0.5,1.8,0.99,0.01,0.01,0.16
1697352620.78,0.13,-0.02,0.91,8,0.5,1.8,0.99,0.01,0.01,0.16
1697352620.79,0.21,0.21,0.62,7.3,0.4,2,0.99,0.01,0.01,0.16
1697352620.8,0.21,0.21,0.62,-0.4,-0.5,5.9,0.99,0.01,0.01,0.16
1697352620.81,-0.03,0.53,1.47,-0.4,-1,8.4,0.99,0.01,0.01,0.16
1697352620.82,-0.01,0.62,1.13,2.6,-1,10.5,0.99,0.01,0.01,0.16
1697352620.83,-0.01,0.62,1.13,4.8,-0.6,13.2,0.99,0.01,0.01,0.16
1697352620.84,0.35,0.54,0.23,5.8,-0.9,15.6,0.99,0.01,0.01,0.16
1697352620.85,-0.02,0.55,1.37,4.7,-0.1,17.2,0.99,0.01,0.01,0.16
1697352620.86,0.13,0.46,0.63,2.3,0.1,18.9,0.99,0.01,0.01,0.16
1697352620.87,0.17,0.58,0.73,1.1,0.3,20.1,0.99,0.01,0.01,0.17
1697352620.88,0.16,0.64,0.62,1.7,0.9,21.4,0.99,0.01,0.01,0.17
1697352620.89,0.06,0.56,0.98,2.1,1.7,22.5,0.99,0.01,0.01,0.17
1697352620.9,-0.06,0.63,1.13,2.6,2.3,23.4,0.99,0.01,0.01,0.17
1697352620.91,0.06,0.62,1.09,5.4,1.4,23.7,0.98,0.01,0.01,0.17
1697352620.92,0.06,0.46,1.15,3.3,1.2,25.6,0.98,0.01,0.01,0.18
1697352620.93,0.11,0.49,0.83,3.9,1.2,25.7,0.98,0.01,0.01,0.18
1697352620.94,-0.07,0.53,1.32,-0.5,1.1,26.5,0.98,0.01,0.01,0.18
1697352620.95,0.14,0.83,0.97,-1.8,0.4,27.3,0.98,0.01,0.01,0.18
1697352620.96,-0.08,1.02,1.4,0.2,0.5,29.5,0.98,0.01,0.01,0.18
1697352620.97,-0.08,1.02,1.4,0.2,0.5,29.5,0.98,0.01,0.01,0.18
1697352620.98,-0.08,1.02,1.4,0.2,0.5,29.5,0.98,0.01,0.01,0.18
1697352620.99,-0.08,1.02,1.4,0.2,0.5,29.5,0.98,0.01,0.01,0.18
1697352621,-0.08,1.02,1.4,0.2,0.5,29.5,0.98,0.01,0.01,0.18
1697352621.01,-0.08,1.02,1.4,0.2,0.5,29.5,0.98,0.01,0.01,0.18
1697352621.02,-0.08,1.02,1.4,0.2,0.5,29.5,0.98,0.01,0.01,0.18
1697352621.03,-0.08,1.02,1.4,0.2,0.5,29.5,0.98,0.01,0.01,0.18
1697352621.04,-0.08,1.02,1.4,0.2,0.5,29.5,0.98,0.01,0.01,0.18
1697352621.05,-0.08,1.02,1.4,0.2,0.5,29.5,0.98,0.01,0.01,0.18
1697352621.06,-0.08,1.02,1.4,0.2,0.5,29.5,0.98,0.01,0.01,0.18
1697352621.07,-0.08,1.02,1.4,0.2,0.5,29.5,0.98,0.01,0.01,0.18
1697352621.08,-0.08,1.02,1.4,0.2,0.5,29.5,0.98,0.01,0.01,0.18
1697352621.09,-0.08,1.02,1.4,0.2,0.5,29.5,0.98,0.01,0.01,0.18
1697352621.1,-0.08,1.02,1.4,-1.5,-5.9,38.9,0.98,0.01,0.01,0.18
1697352621.11,-0.13,0.74,1.11,-1.2,-5.5,37.9,0.97,0.02,0.01,0.23
1697352621.12,-0.43,0.46,1.3,-1.5,-3.6,35.5,0.97,0.02,0,0.24
1697352621.13,-0.43,0.46,1.3,-1.5,-3.6,35.5,0.97,0.02,0,0.24
1697352621.14,-0.43,0.49,1.28,-3.5,-0.8,32.9,0.97,0.01,0,0.24
1697352621.15,-0.43,0.49,1.28,-5.2,2.3,30.3,0.97,0.01,0,0.24
1697352621.16,0.09,0.48,1,-5.2,5.3,26.7,0.97,0.01,0,0.25
1697352621.17,0.09,0.48,1,-4.1,5.4,25.7,0.97,0.01,0.01,0.25
1697352621.18,0,0.28,1,-3.3,5.4,24.6,0.97,0.01,0.01,0.25
1697352621.19,0.11,0.34,1.09,-3.1,4.5,24,0.97,0.01,0.01,0.25
1697352621.2,-0.1,0.19,1.21,-3,3.3,23.1,0.97,0.01,0.01,0.26
1697352621.21,-0.05,0.25,0.91,-3.2,2.6,22.9,0.97,0.01,0.01,0.26
1697352621.22,0.12,0.29,0.95,-2.3,1.3,22.7,0.97,0.01,0.01,0.26
1697352621.23,0.26,0.27,0.88,-1.3,0,22.6,0.97,0.01,0.01,0.26
1697352621.24,0.49,0.29,1.21,0.6,-1.4,22.3,0.96,0.01,0.01,0.26
1697352621.25,0.34,0.3,0.84,1.8,-3.1,22.4,0.96,0.01,0.01,0.26
1697352621.26,-0.19,0.41,1.22,2.8,-4.4,22.1,0.96,0.01,0.01,0.27
1697352621.27,-0.22,0.36,0.94,1.7,-4.5,23.1,0.96,0.01,0,0.27
1697352621.28,-0.16,0.47,1.08,1.3,-3.2,24.8,0.96,0.01,0,0.27
1697352621.29,-0.03,0.57,0.98,2.4,-1.9,25.3,0.96,0.01,0,0.27
1697352621.3,-0.29,0.27,0.81,2,-0.2,27.3,0.96,0.01,0,0.27
1697352621.31,-0.53,0.5,0.43,1,1.3,27.7,0.96,0.01,0,0.28
1697352621.32,-0.52,0.72,0.52,0.1,2.7,28.4,0.96,0.01,0,0.28
1697352621.33,-0.62,0.54,1.02,1.6,4.2,28.7,0.96,0.01,0.01,0.28
1697352621.34,-0.42,0.55,0.69,3.4,4.9,28.5,0.96,0.01,0.01,0.28
1697352621.35,-0.22,0.65,1.06,4.8,4,28.5,0.96,0.01,0.01,0.29
1697352621.36,0.12,0.46,0.89,3.9,2,30.3,0.96,0.01,0.01,0.29
1697352621.37,-0.05,0.71,1.06,2.6,-0.1,31,0.96,0.01,0.01,0.29
1697352621.38,-0.16,0.79,1.12,1.3,-1.3,32.3,0.96,0.01,0.01,0.29
1697352621.39,-0.06,0.61,0.84,0.4,-1.9,33.9,0.95,0.01,0.01,0.3
1697352621.4,-0.04,0.69,1.09,1.4,-2.7,34.1,0.95,0.01,0.01,0.3
1697352621.41,-0.01,0.73,0.81,-0.9,-1.4,35.2,0.95,0.01,0.01,0.3
1697352621.42,-0.21,0.8,1.2,-0.9,-0.2,35.9,0.95,0.02,0.01,0.3
1697352621.43,-0.16,0.98,0.98,-0.3,1.2,36.5,0.95,0.02,0.01,0.31
1697352621.44,-0.09,0.92,1.12,0.2,1.9,37,0.95,0.01,0.01,0.31
1697352621.45,-0.14,0.96,1.11,2,4.1,39.8,0.95,0.01,0.01,0.31
1697352621.46,-0.19,0.89,1.23,0.3,5.5,42.4,0.95,0.02,0.01,0.32
1697352621.47,-0.22,0.89,0.97,-2.6,6.2,44.7,0.95,0.01,0.01,0.32
1697352621.48,-0.16,1.2,0.34,-2.3,6.3,46.9,0.95,0.01,0.01,0.32
1697352621.49,-0.07,1.17,1.02,-2.3,6.3,46.9,0.94,0.01,0.01,0.33
1697352621.5,-0.07,1.17,1.02,-2.3,6.3,46.9,0.94,0.01,0.01,0.33
1697352621.51,-0.07,1.17,1.02,-2.3,6.3,46.9,0.94,0.01,0.01,0.33
1697352621.52,-0.07,1.17,1.02,-2.3,6.3,46.9,0.94,0.01,0.01,0.33
1697352621.53,-0.07,1.17,1.02,-2.3,6.3,46.9,0.94,0.01,0.01,0.33
1697352621.54,-0.07,1.17,1.02,-2.3,6.3,46.9,0.94,0.01,0.01,0.33
1697352621.55,-0.07,1.17,1.02,-2.3,6.3,46.9,0.94,0.01,0.01,0.33
1697352621.56,-0.07,1.17,1.02,-2.3,6.3,46.9,0.94,0.01,0.01,0.33
1697352621.57,-0.07,1.17,1.02,-2.3,6.3,46.9,0.94,0.01,0.01,0.33
1697352621.58,-0.07,1.17,1.02,-2.3,6.3,46.9,0.94,0.01,0.01,0.33
1697352621.59,-0.07,1.17,1.02,-2.3,6.3,46.9,0.94,0.01,0.01,0.33
1697352621.6,-0.07,1.17,1.02,-2.3,6.3,46.9,0.94,0.01,0.01,0.33
1697352621.61,-0.07,1.17,1.02,-2.3,6.3,46.9,0.94,0.01,0.01,0.33
1697352621.62,-0.04,0.88,0.75,-3,-0.4,49.7,0.92,0.02,0.01,0.38
1697352621.63,-0.1,0.9,1.02,-3.3,0,50,0.92,0.02,0.01,0.39
1697352621.64,-0.19,1.01,0.97,-2,0.7,50.1,0.92,0.02,0.01,0.39
1697352621.65,0.04,0.9,0.72,0,1.8,50.1,0.92,0.02,0.01,0.39
1697352621.66,-0.29,0.98,1.44,1.2,3.3,49.8,0.92,0.02,0.01,0.4
1697352621.67,-0.18,0.99,1.12,2.9,3.8,50,0.91,0.02,0.01,0.4
1697352621.68,-0.04,0.96,0.67,3.6,3.9,50.7,0.91,0.02,0.01,0.4
1697352621.69,-0.19,1.01,0.79,3.7,4.1,51.7,0.91,0.02,0.01,0.41
1697352621.7,-0.32,0.84,1.32,1.8,3.4,53.2,0.91,0.02,0.01,0.41
1697352621.71,-0.1,1.04,0.89,-0.4,3,54.4,0.91,0.02,0.01,0.42
1697352621.72,-0.27,1.22,1.12,-1.4,2.8,56,0.91,0.02,0.01,0.42
1697352621.73,-0.16,1.18,0.78,1.5,2.2,58.1,0.91,0.02,0.01,0.42
1697352621.74,-0.26,1.07,0.85,5.2,1.8,59.6,0.9,0.02,0.01,0.43
1697352621.75,-0.16,0.95,1.02,7,1.8,60.7,0.9,0.02,0.01,0.43
1697352621.76,-0.26,0.92,1.09,5.3,1.1,61.8,0.9,0.02,0.01,0.44
1697352621.77,-0.19,1.15,0.84,2.9,1,62.4,0.9,0.02,0.01,0.44
1697352621.78,-0.21,1.09,1.17,2,1.2,63.3,0.89,0.02,0.01,0.45
1697352621.79,-0.26,1.17,1.05,2.9,1.3,64.2,0.89,0.02,0.01,0.45
1697352621.8,-0.37,1.25,1.56,4.8,1.2,64.4,0.89,0.02,0.01,0.46
1697352621.81,-0.49,1.02,0.9,5.7,1.9,64.7,0.89,0.02,0.01,0.46
1697352621.82,-0.48,1.03,1.1,3.9,2.6,64.5,0.88,0.02,0.01,0.47
1697352621.83,-0.49,1.09,1.31,1.3,3,64.3,0.88,0.02,0.01,0.47
1697352621.84,-0.28,1.24,0.97,0.7,3.3,64.2,0.88,0.02,0.01,0.48
1697352621.85,-0.26,1.25,0.98,1.6,3.5,64.5,0.87,0.02,0.01,0.48
1697352621.86,-0.32,1.06,1.39,3.3,3.5,65.4,0.87,0.02,0.01,0.49
1697352621.87,0.01,1.11,0.59,3.4,3.1,65.8,0.87,0.02,0.01,0.49
1697352621.88,-0.22,1.02,0.97,2.2,2.3,66.4,0.87,0.02,0.02,0.5
1697352621.89,-0.14,1.05,1.18,0.3,1.4,66.8,0.86,0.02,0.02,0.5
1697352621.9,0.08,1.17,0.54,-1,0.5,67,0.86,0.02,0.02,0.51
1697352621.91,-0.28,1.1,1.27,-1,0.5,67,0.86,0.02,0.02,0.52
1697352621.92,-0.28,1.1,1.27,-1.1,-0.1,67.4,0.85,0.02,0.01,0.52
1697352621.93,-0.02,1.22,0.56,-0.3,-1,67,0.85,0.02,0.01,0.53
1697352621.94,-0.12,1.1,0.8,2.5,-1.7,66.7,0.85,0.02,0.01,0.53
1697352621.95,-0.12,1.1,0.8,2.5,-1.7,66.7,0.84,0.02,0.01,0.54
1697352621.96,-0.28,1.09,1.39,1.8,-1.7,66.3,0.84,0.02,0.01,0.54
1697352621.97,-0.28,1.09,1.39,1.8,-1.7,66.3,0.84,0.02,0.01,0.55
1697352621.98,-0.24,1.22,0.71,0.8,-1.3,66.1,0.83,0.02,0.01,0.55
1697352621.99,-0.2,1.2,1.31,0.3,-0.5,65.8,0.83,0.02,0.01,0.55
1697352622,-0.17,1.01,0.77,0.7,1.6,65.4,0.83,0.02,0.01,0.56
1697352622.01,-0.17,1.01,0.77,0.7,1.6,65.4,0.83,0.02,0.01,0.56
1697352622.02,-0.17,1.01,0.77,0.7,1.6,65.4,0.83,0.02,0.01,0.56
1697352622.03,-0.17,1.01,0.77,0.7,1.6,65.4,0.83,0.02,0.01,0.56
1697352622.04,-0.17,1.01,0.77,0.7,1.6,65.4,0.83,0.02,0.01,0.56
1697352622.05,-0.17,1.01,0.77,0.7,1.6,65.4,0.83,0.02,0.01,0.56
1697352622.06,-0.17,1.01,0.77,0.7,1.6,65.4,0.83,0.02,0.01,0.56
1697352622.07,-0.17,1.01,0.77,0.7,1.6,65.4,0.83,0.02,0.01,0.56
1697352622.08,-0.17,1.01,0.77,0.7,1.6,65.4,0.83,0.02,0.01,0.56
1697352622.09,-0.17,1.01,0.77,0.7,1.6,65.4,0.83,0.02,0.01,0.56
1697352622.1,-0.17,1.01,0.77,0.7,1.6,65.4,0.83,0.02,0.01,0.56
1697352622.11,-0.17,1.01,0.77,0.7,1.6,65.4,0.83,0.02,0.01,0.56
1697352622.12,-0.17,1.01,0.77,0.7,1.6,65.4,0.83,0.02,0.01,0.56
1697352622.13,-0.17,1.01,0.77,0.7,1.6,65.4,0.83,0.02,0.01,0.56
1697352622.14,-0.05,0.99,0.46,1.7,-2.7,65.6,0.78,0.02,0.01,0.62
1697352622.15,-0.38,0.91,1.38,2,-2.3,65.5,0.78,0.02,0.01,0.62
1697352622.16,0.03,0.95,0.46,1.1,-1.8,64.9,0.78,0.02,0.01,0.63
1697352622.17,-0.39,0.99,1.26,-0.3,-0.6,64.6,0.77,0.02,0.01,0.63
1697352622.18,-0.07,1.02,0.65,-0.6,0.6,63.8,0.77,0.02,0.01,0.64
1697352622.19,0.06,0.93,0.92,-0.2,2.3,63.3,0.77,0.02,0.01,0.64
1697352622.2,0.06,0.93,0.92,-0.2,2.3,63.3,0.76,0.02,0.01,0.65
1697352622.21,0.11,1.02,1.14,-0.3,2.6,62.5,0.75,0.02,0.01,0.66
1697352622.22,0.07,0.93,0.94,0,2.4,62.1,0.75,0.02,0.01,0.66
1697352622.23,-0.09,0.85,1.43,-0.5,2.1,62,0.75,0.02,0.01,0.66
1697352622.24,0.05,0.93,0.54,-1,1.9,61.9,0.74,0.02,0.01,0.67
1697352622.25,0.19,1,0.76,-1.3,2.5,62.1,0.74,0.02,0.01,0.67
1697352622.26,-0.42,1.21,0.53,-0.3,3.1,62.2,0.74,0.02,0.01,0.68
1697352622.27,-0.11,0.87,1.2,0.2,2.9,63.7,0.73,0.02,0.01,0.68
1697352622.28,-0.13,1.09,0.54,1.2,3.2,63.6,0.73,0.02,0.01,0.68
1697352622.29,-0.22,0.98,1.19,-0.5,2.6,64.9,0.72,0.02,0.01,0.69
1697352622.3,0.09,1.06,0.76,-0.5,1.6,64.9,0.72,0.02,0.01,0.69
1697352622.31,0.09,1.12,0.88,-1.1,1.1,64.8,0.72,0.02,0.01,0.7
1697352622.32,0.06,1.04,0.91,-0.8,-0.2,64.9,0.71,0.02,0.01,0.7
1697352622.33,0.06,1.04,0.91,-0.8,-0.2,64.9,0.71,0.02,0.01,0.7
1697352622.34,-0.06,1.11,0.57,0.3,-1.5,64.9,0.7,0.02,0.01,0.71
1697352622.35,-0.06,1.11,0.57,0.3,-1.5,64.9,0.7,0.02,0.01,0.71
1697352622.36,-0.29,1.1,1.32,1.7,1.2,64.6,0.7,0.02,0.01,0.72
1697352622.37,-0.14,1.01,0.85,1.7,1.2,64.6,0.7,0.02,0.01,0.72
1697352622.38,-0.12,1.08,1.5,0.8,2.2,64.3,0.69,0.02,0.01,0.72
1697352622.39,-0.12,1.08,1.5,-0.1,3.1,64.2,0.69,0.02,0.01,0.73
1697352622.4,-0.11,1.05,1.35,0.5,4.3,63.5,0.68,0.02,0.01,0.73
1697352622.41,-0.12,1.07,0.69,0.5,4.3,63.5,0.68,0.02,0.01,0.73
1697352622.42,0.01,1.04,1.11,-0.2,4.2,63.1,0.67,0.02,0.01,0.74
1697352622.43,0,0.97,0.88,-0.2,4.2,63.1,0.67,0.02,0.01,0.74
1697352622.44,0.01,1.01,0.82,-0.8,2.9,63.3,0.67,0.02,0.01,0.74
1697352622.45,0.01,1.01,0.82,-0.8,2.9,63.3,0.66,0.02,0.01,0.75
1697352622.46,-0.09,1.02,0.89,-0.5,1.8,63.7,0.66,0.02,0.01,0.75
1697352622.47,-0.17,1.07,1.32,-0.6,1.2,64.1,0.65,0.02,0.01,0.76
1697352622.48,-0.04,1.11,0.5,-0.1,0.7,64.5,0.65,0.02,0.01,0.76
1697352622.49,-0.14,1.13,1.25,0.3,0.9,64.9,0.64,0.02,0.01,0.76
1697352622.5,-0.21,1.09,0.76,1,0.8,64.8,0.64,0.02,0.01,0.77
1697352622.51,-0.19,0.91,1.51,1,0.8,64.5,0.64,0.02,0.01,0.77
1697352622.52,-0.13,1.02,0.74,0.2,1.1,64.6,0.63,0.02,0.01,0.77
1697352622.53,-0.27,1.1,1.17,0.1,1,64.6,0.63,0.02,0.01,0.78
1697352622.54,-0.27,1.1,1.17,0.1,1,64.6,0.63,0.02,0.01,0.78
1697352622.55,-0.27,1.1,1.17,0.1,1,64.6,0.63,0.02,0.01,0.78
1697352622.56,-0.27,1.1,1.17,0.1,1,64.6,0.63,0.02,0.01,0.78
1697352622.57,-0.27,1.1,1.17,0.1,1,64.6,0.63,0.02,0.01,0.78
1697352622.58,-0.27,1.1,1.17,0.1,1,64.6,0.63,0.02,0.01,0.78
1697352622.59,-0.27,1.1,1.17,0.1,1,64.6,0.63,0.02,0.01,0.78
1697352622.6,-0.27,1.1,1.17,0.1,1,64.6,0.63,0.02,0.01,0.78
1697352622.61,-0.27,1.1,1.17,0.1,1,64.6,0.63,0.02,0.01,0.78
1697352622.62,-0.27,1.1,1.17,0.1,1,64.6,0.63,0.02,0.01,0.78
1697352622.63,-0.27,1.1,1.17,0.1,1,64.6,0.63,0.02,0.01,0.78
1697352622.64,-0.27,1.1,1.17,0.1,1,64.6,0.63,0.02,0.01,0.78
1697352622.65,-0.27,1.1,1.17,0.1,1,64.6,0.63,0.02,0.01,0.78
1697352622.66,-0.13,0.76,1.31,-1.6,0.2,54.9,0.57,0.02,0.01,0.82
1697352622.67,-0.13,0.76,1.31,-1.3,-0.3,54,0.57,0.02,0.01,0.82
1697352622.68,-0.05,0.78,1.11,-1.3,-0.3,54,0.57,0.02,0.01,0.82
1697352622.69,-0.02,0.72,0.72,-0.5,0.5,52,0.56,0.02,0.01,0.83
1697352622.7,-0,0.69,1.2,-0.2,0.8,51.2,0.56,0.02,0.01,0.83
1697352622.71,-0.02,0.58,0.8,-0.8,0.7,50.2,0.55,0.02,0.01,0.83
1697352622.72,-0.02,0.58,1.22,-1.9,0.4,49.1,0.55,0.02,0.01,0.84
1697352622.73,-0.02,0.58,1.22,-1.9,0.4,49.1,0.55,0.02,0.01,0.84
1697352622.74,0.1,0.54,1.13,-3.1,0.9,47.9,0.54,0.02,0.01,0.84
1697352622.75,0.1,0.54,1.13,-3.7,1.1,46.2,0.54,0.02,0.01,0.84
1697352622.76,0.1,0.48,0.95,-3.8,1.4,44.6,0.54,0.02,0.01,0.84
1697352622.77,0.1,0.48,0.95,-3.5,1,42.8,0.53,0.02,0.01,0.84
1697352622.78,0.09,0.46,0.93,-2.7,0.8,40,0.53,0.02,0.01,0.85
1697352622.79,0.07,0.39,1.34,-2.6,0.6,38.2,0.53,0.02,0.01,0.85
1697352622.8,0.13,0.42,0.52,-2.5,-0.3,36.2,0.53,0.02,0.01,0.85
1697352622.81,-0.1,0.46,1.48,-2.9,-1.7,33.3,0.52,0.02,0.01,0.85
1697352622.82,0.12,0.42,0.49,-2.8,-1.4,32.5,0.52,0.02,0.01,0.85
1697352622.83,-0.02,0.42,1.26,-2.2,-1.2,31.8,0.52,0.02,0.01,0.86
1697352622.84,0.12,0.48,0.34,-0.8,-0.7,31.2,0.52,0.02,0.01,0.86
1697352622.85,-0,0.48,1.23,0.4,-0.5,31,0.51,0.02,0.01,0.86
1697352622.86,0.1,0.33,0.56,0.3,-0.4,30.7,0.51,0.02,0.01,0.86
1697352622.87,0.04,0.32,1.35,-1.5,0.1,30.7,0.51,0.02,0.01,0.86
1697352622.88,0,0.34,1.27,-2.5,0.4,29.8,0.51,0.02,0.01,0.86
1697352622.89,-0,0.32,1.06,-2.5,0.4,29.8,0.5,0.02,0.01,0.86
1697352622.9,0.09,0.2,1.35,-2.3,0.4,28.9,0.5,0.02,0.01,0.86
1697352622.91,-0,0.16,0.83,-2.7,0.5,27.6,0.5,0.02,0.01,0.87
1697352622.92,0.09,0.17,1.14,-3.5,0.3,26.1,0.5,0.02,0.01,0.87
1697352622.93,0,0.07,1.11,-3.4,0.6,24.2,0.5,0.02,0.01,0.87
1697352622.94,0.04,-0.01,0.95,-2.5,0.9,20.9,0.49,0.02,0.01,0.87
1697352622.95,0.03,-0.13,1.09,-6.4,1.7,14.4,0.49,0.02,0.01,0.87
1697352622.96,-0.04,-0.15,1.25,-6.4,1.7,14.4,0.49,0.02,0.01,0.87
1697352622.97,0.24,-0.1,0.71,-6.8,2.1,7.2,0.49,0.02,0,0.87
1697352622.98,0.24,-0.1,0.71,-6.8,2.1,7.2,0.49,0.02,0,0.87
1697352622.99,0.1,-0.11,1.24,-3.2,1.3,3.5,0.49,0.01,0,0.87
1697352623,0.1,-0.11,1.24,-3.2,1.3,3.5,0.49,0.01,0,0.87
1697352623.01,0.02,-0.21,1.05,-2.9,-0.3,-0.1,0.49,0.01,0,0.87
1697352623.02,0.02,-0.21,1.05,-2.9,-0.3,-0.1,0.49,0.01,0,0.87
1697352623.03,0.1,-0.24,1.1,-4.3,-1.3,-0.9,0.49,0.01,0,0.87
1697352623.04,0.1,-0.24,1.1,-5.6,-1.7,-1.4,0.49,0.01,0,0.87
1697352623.05,0.1,-0.24,1.1,-5.6,-1.7,-1.4,0.49,0.01,0,0.87
1697352623.06,0.1,-0.24,1.1,-5.6,-1.7,-1.4,0.49,0.01,0,0.87
1697352623.07,0.1,-0.24,1.1,-5.6,-1.7,-1.4,0.49,0.01,0,0.87
1697352623.08,0.1,-0.24,1.1,-5.6,-1.7,-1.4,0.49,0.01,0,0.87
1697352623.09,0.1,-0.24,1.1,-5.6,-1.7,-1.4,0.49,0.01,0,0.87
1697352623.1,0.1,-0.24,1.1,-5.6,-1.7,-1.4,0.49,0.01,0,0.87
1697352623.11,0.1,-0.24,1.1,-5.6,-1.7,-1.4,0.49,0.01,0,0.87
1697352623.12,0.1,-0.24,1.1,-5.6,-1.7,-1.4,0.49,0.01,0,0.87
1697352623.13,0.1,-0.24,1.1,-5.6,-1.7,-1.4,0.49,0.01,0,0.87
1697352623.14,0.1,-0.24,1.1,-5.6,-1.7,-1.4,0.49,0.01,0,0.87
1697352623.15,0.1,-0.24,1.1,-5.6,-1.7,-1.4,0.49,0.01,0,0.87
1697352623.16,0.1,-0.24,1.1,-5.6,-1.7,-1.4,0.49,0.01,0,0.87
1697352623.17,0.1,-0.24,1.1,-5.6,-1.7,-1.4,0.49,0.01,0,0.87
1697352623.18,0.01,-1.02,1.17,-3.1,0.6,-43,0.52,0.01,-0.01,0.86
1697352623.19,-0.28,-1.01,1.11,-2.4,1.3,-45.3,0.52,0.01,-0.01,0.85
1697352623.2,-0.1,-0.96,1.05,-3.9,1.2,-47.1,0.52,0.01,-0.01,0.85
1697352623.21,-0.03,-0.77,0.67,-2.7,0.9,-48.1,0.53,0.01,-0.01,0.85
1697352623.22,-0.11,-0.79,1.06,0.6,1,-48,0.53,0.01,-0.01,0.85
1697352623.23,-0.15,-0.73,0.94,3.6,0.6,-47.3,0.54,0.01,-0.01,0.84
1697352623.24,-0.04,-0.81,0.93,4.8,0.6,-46,0.54,0.01,-0.01,0.84
1697352623.25,-0.05,-0.83,0.96,3.7,0.3,-44.6,0.54,0.01,-0,0.84
1697352623.26,0.01,-0.81,0.84,1.4,0,-43.6,0.55,0.01,-0,0.84
1697352623.27,0.03,-0.66,1.28,-0.3,0,-41.9,0.55,0.01,-0,0.84
1697352623.28,-0.01,-0.65,0.64,-0.6,0.3,-39.7,0.55,0.01,-0,0.83
1697352623.29,0.05,-0.56,0.99,2,0.1,-38.3,0.56,0.01,-0,0.83
1697352623.3,0.07,-0.61,1,3.3,0.1,-37.5,0.56,0.01,-0,0.83
1697352623.31,-0.01,-0.71,0.99,2.4,0,-37.5,0.56,0.01,-0,0.83
1697352623.32,0.05,-0.72,1.21,0.5,0.3,-37.7,0.56,0.01,-0,0.83
1697352623.33,0.02,-0.55,0.82,0.5,0.3,-37.7,0.56,0.01,-0,0.83
1697352623.34,0.1,-0.65,1.25,0,1.2,-39,0.57,0.01,-0,0.82
1697352623.35,0.02,-0.67,0.79,-0.2,1.5,-40.3,0.57,0.01,-0,0.82
1697352623.36,-0.02,-0.81,0.84,-1.7,1.6,-42.1,0.58,0.01,-0,0.82
1697352623.37,0.14,-0.84,1.11,-3,1.7,-44.1,0.58,0.01,-0,0.82
1697352623.38,0.14,-0.84,1.11,-3,1.7,-44.1,0.58,0.01,-0,0.82
1697352623.39,0.09,-0.86,0.78,-3.9,1.5,-46.8,0.58,0.01,-0,0.81
1697352623.4,0.09,-0.86,0.78,-3.9,1.5,-46.8,0.58,0.01,-0,0.81
1697352623.41,0.06,-1.01,1.2,-4,1,-50.4,0.59,0.01,-0,0.81
1697352623.42,0.06,-1.01,1.2,-4,1,-50.4,0.59,0.01,-0,0.81
1697352623.43,0.01,-0.97,0.75,-4.6,0.6,-51.6,0.6,0.01,-0,0.8
1697352623.44,-0.03,-0.89,1.59,-3.4,-0.6,-52.3,0.6,0.01,-0,0.8
1697352623.45,0.04,-1.18,0.46,-0.8,-0.2,-53.6,0.6,0.01,-0,0.8
1697352623.46,-0.01,-0.76,1.24,0.1,0.1,-53.1,0.61,0.01,-0,0.8
1697352623.47,0.06,-0.93,1.09,0.7,1.3,-52.5,0.61,0.01,-0,0.79
1697352623.48,0.07,-0.91,0.87,0.7,1.3,-52.5,0.61,0.01,-0,0.79
1697352623.49,-0.04,-1.09,0.79,1.3,2.5,-52,0.62,0.01,-0,0.79
1697352623.5,0.04,-1.18,1.17,0,3.1,-52.1,0.62,0.01,-0,0.78
1697352623.51,0.04,-1,0.8,-3.9,2.5,-52.4,0.63,0.01,-0,0.78
1697352623.52,0.06,-0.98,1.37,-2.4,1.4,-52.8,0.63,0.01,-0,0.78
1697352623.53,0.11,-0.75,0.61,0,0.3,-52.9,0.63,0.01,-0,0.77
1697352623.54,0.09,-0.89,1.14,1.9,0,-52.9,0.64,0.01,-0,0.77
1697352623.55,0.04,-0.96,0.55,2.1,-0.9,-53.3,0.64,0.01,-0,0.77
1697352623.56,0.04,-0.96,0.55,2.1,-0.9,-53.3,0.64,0.01,-0,0.77
1697352623.57,0.04,-0.96,0.55,2.1,-0.9,-53.3,0.64,0.01,-0,0.77
1697352623.58,0.04,-0.96,0.55,2.1,-0.9,-53.3,0.64,0.01,-0,0.77
1697352623.59,0.04,-0.96,0.55,2.1,-0.9,-53.3,0.64,0.01,-0,0.77
1697352623.6,0.04,-0.96,0.55,2.1,-0.9,-53.3,0.64,0.01,-0,0.77
1697352623.61,0.04,-0.96,0.55,2.1,-0.9,-53.3,0.64,0.01,-0,0.77
1697352623.62,0.04,-0.96,0.55,2.1,-0.9,-53.3,0.64,0.01,-0,0.77
1697352623.63,0.04,-0.96,0.55,2.1,-0.9,-53.3,0.64,0.01,-0,0.77
1697352623.64,0.04,-0.96,0.55,2.1,-0.9,-53.3,0.64,0.01,-0,0.77
1697352623.65,0.04,-0.96,0.55,2.1,-0.9,-53.3,0.64,0.01,-0,0.77
1697352623.66,0.04,-0.96,0.55,2.1,-0.9,-53.3,0.64,0.01,-0,0.77
1697352623.67,0.04,-0.96,0.55,2.1,-0.9,-53.3,0.64,0.01,-0,0.77
1697352623.68,0.01,-0.73,0.71,3.5,0.3,-54.2,0.68,0.01,-0,0.73
1697352623.69,-0,-1.03,1.59,3.6,-0.5,-54.6,0.69,0.01,-0,0.72
1697352623.7,-0,-1.03,1.59,3.6,-0.5,-54.6,0.69,0.01,-0,0.72
1697352623.71,0,-0.96,0.96,-2,-1.1,-54.1,0.7,0.01,-0,0.72
1697352623.72,0.11,-0.95,0.93,-3.1,-0.8,-53.9,0.7,0.01,-0,0.71
1697352623.73,0.03,-0.81,0.95,-3.1,-0.8,-53.9,0.7,0.01,-0,0.71
1697352623.74,-0.08,-0.84,0.72,-1.3,-0.3,-53.4,0.7,0.01,-0,0.71
1697352623.75,0.01,-1.02,1.22,-1.3,-0.3,-53.4,0.7,0.01,-0,0.71
1697352623.76,0.03,-0.88,0.56,1.2,1.4,-53.2,0.71,0.01,-0,0.7
1697352623.77,-0.09,-1.04,1.47,1.6,2.5,-52.8,0.71,0.01,-0,0.7
1697352623.78,0.17,-1.08,0.56,1.6,2.5,-52.8,0.71,0.01,-0,0.7
1697352623.79,-0.23,-0.93,1.37,-0.3,3.9,-53.5,0.72,0.01,-0,0.69
1697352623.8,-0.23,-0.93,1.37,-0.3,3.9,-53.5,0.72,0.01,-0,0.69
1697352623.81,-0.02,-1.01,0.98,0.6,3.9,-53.1,0.73,0.01,-0,0.68
1697352623.82,-0.02,-1.01,0.98,0.6,3.9,-53.1,0.73,0.01,-0,0.68
1697352623.83,0.02,-0.98,0.79,-0.7,3.6,-53.9,0.73,0.01,-0,0.68
1697352623.84,0.02,-0.98,0.79,-2.2,2.9,-54.8,0.74,0.01,-0,0.68
1697352623.85,0.02,-0.95,1.17,-1.9,2.5,-55.8,0.74,0.01,-0,0.67
1697352623.86,0.09,-0.92,0.94,-0.3,1.7,-56.4,0.74,0.01,-0,0.67
1697352623.87,0.04,-1,0.93,0.2,0.2,-56.9,0.75,0.01,-0,0.66
1697352623.88,0.12,-0.91,1.23,1.4,-1.2,-57.6,0.75,0.01,-0,0.66
1697352623.89,0.1,-0.99,0.4,2,-2.2,-57.9,0.75,0.01,-0,0.66
1697352623.9,0.02,-0.91,0.69,0.7,-2.3,-57.3,0.75,0.01,-0,0.66
1697352623.91,-0.07,-0.9,1.27,-0.8,-0.9,-55.8,0.76,0.01,-0,0.65
1697352623.92,0.17,-0.88,0.52,-0.8,-0.9,-55.8,0.76,0.01,-0,0.65
1697352623.93,-0.12,-1,1.45,-0.6,0,-54.8,0.77,0.01,-0,0.64
1697352623.94,0.06,-0.88,0.9,-1.8,1.1,-54,0.77,0.01,-0,0.64
1697352623.95,0.12,-0.85,0.62,-2,2.6,-53.5,0.77,0.01,-0,0.63
1697352623.96,-0.1,-0.83,1.35,-1,3.8,-52.9,0.78,0.01,-0,0.63
1697352623.97,0.1,-0.73,0.65,0.1,4.5,-52.2,0.78,0.01,-0,0.63
1697352623.98,-0.07,-0.73,0.97,2.6,4.6,-51.7,0.78,0.01,0,0.62
1697352623.99,0.11,-0.69,1.22,4.4,3.9,-50.8,0.78,0.01,0,0.62
1697352624,0.14,-0.58,1.14,3.1,2.6,-48.7,0.79,0.01,0,0.62
1697352624.01,0.13,-0.35,0.82,2.3,0,-42.4,0.79,0.01,0,0.61
1697352624.02,0.12,-0.17,1.18,3.5,-0.7,-38.4,0.79,0.01,0,0.61
1697352624.03,0.09,-0.2,0.4,4.9,-0.4,-34,0.79,0.01,0,0.61
1697352624.04,-0.14,-0.27,1.44,3.9,-0.1,-29.9,0.8,0.01,0,0.61
1697352624.05,0.11,-0.3,0.84,2.1,1.2,-26.6,0.8,0.01,0,0.6
1697352624.06,-0.11,-0.19,0.77,1.2,2.3,-23.8,0.8,0.01,0,0.6
1697352624.07,-0.07,-0.13,1.5,1.9,3.4,-21.4,0.8,0.01,0,0.6
1697352624.08,-0.07,-0.13,1.5,1.9,3.4,-21.4,0.8,0.01,0,0.6
1697352624.09,-0.07,-0.13,1.5,1.9,3.4,-21.4,0.8,0.01,0,0.6
1697352624.1,-0.07,-0.13,1.5,1.9,3.4,-21.4,0.8,0.01,0,0.6
1697352624.11,-0.07,-0.13,1.5,1.9,3.4,-21.4,0.8,0.01,0,0.6
1697352624.12,-0.07,-0.13,1.5,1.9,3.4,-21.4,0.8,0.01,0,0.6
1697352624.13,-0.07,-0.13,1.5,1.9,3.4,-21.4,0.8,0.01,0,0.6
1697352624.14,-0.07,-0.13,1.5,1.9,3.4,-21.4,0.8,0.01,0,0.6
1697352624.15,-0.07,-0.13,1.5,1.9,3.4,-21.4,0.8,0.01,0,0.6
1697352624.16,-0.07,-0.13,1.5,1.9,3.4,-21.4,0.8,0.01,0,0.6
1697352624.17,-0.07,-0.13,1.5,1.9,3.4,-21.4,0.8,0.01,0,0.6
1697352624.18,-0.07,-0.13,1.5,1.9,3.4,-21.4,0.8,0.01,0,0.6
1697352624.19,-0.07,-0.13,1.5,1.9,3.4,-21.4,0.8,0.01,0,0.6
1697352624.2,-0.07,-0.13,1.5,1.9,3.4,-21.4,0.81,0.01,0.01,0.59
1697352624.21,0.31,0.25,0.3,0.2,-2,3.9,0.81,0.01,0.01,0.59
1697352624.22,-0.14,0.33,1.45,0,-2.4,5.2,0.81,0.01,0.01,0.59
1697352624.23,0.02,0.42,1.04,0.4,-1.9,6,0.8,0.01,0.01,0.59
1697352624.24,0.18,0.32,0.8,2.6,-1.4,6.8,0.8,0.01,0.01,0.59
1697352624.25,0.18,0.32,0.8,5.6,-0.6,8,0.8,0.01,0.01,0.59
1697352624.26,-0.04,0.3,1.01,7,0.1,9.2,0.8,0.01,0.01,0.59
1697352624.27,0.07,0.16,1.07,6.6,0.7,10.3,0.8,0.01,0.01,0.6
1697352624.28,0.1,0.27,0.96,4.2,1.5,11.4,0.8,0.01,0.01,0.6
1697352624.29,-0.06,0.44,1.33,1.4,1.7,12.5,0.8,0.01,0.01,0.6
1697352624.3,0.22,0.5,0.8,0.5,1.6,13.7,0.8,0.01,0.01,0.6
1697352624.31,0.15,0.59,0.77,1.8,0.7,16.7,0.8,0.01,0.01,0.6
1697352624.32,0.09,0.51,0.87,2.5,0.1,17.9,0.8,0.01,0.01,0.6
1697352624.33,0.1,0.39,1.26,2.2,-0.1,19.1,0.8,0.01,0.01,0.6
1697352624.34,0.27,0.38,0.67,1,-0.8,19.6,0.8,0.01,0.01,0.6
1697352624.35,0.03,0.41,1.09,0.1,-0.9,19.9,0.8,0.01,0.01,0.61
1697352624.36,0,0.42,1.3,0,-1.1,20,0.79,0.01,0.01,0.61
1697352624.37,0.2,0.37,0.57,0.4,-0.3,19.9,0.79,0.01,0.01,0.61
1697352624.38,0.02,0.4,1.06,0.9,-0.2,19.7,0.79,0.01,0.01,0.61
1697352624.39,0.15,0.31,0.98,1.1,0.4,19.6,0.79,0.01,0.01,0.61
1697352624.4,0.17,0.33,0.52,1.4,0.6,19.2,0.79,0.01,0.01,0.61
1697352624.41,0.16,0.29,0.62,0.8,1.2,19.1,0.79,0.01,0.01,0.61
1697352624.42,0.06,0.32,0.91,0.8,1.2,19,0.79,0.01,0.01,0.62
1697352624.43,-0.01,0.38,1.21,0.8,1.2,19,0.79,0.01,0.01,0.62
1697352624.44,0.03,0.34,0.95,0,1.7,19.1,0.79,0.02,0.01,0.62
1697352624.45,0.03,0.34,0.95,0,1.7,19.1,0.79,0.02,0.01,0.62
1697352624.46,-0.06,0.35,1.52,0.3,1.8,19.3,0.78,0.02,0.01,0.62
1697352624.47,-0.06,0.35,1.52,0.3,1.8,19.3,0.78,0.02,0.01,0.62
1697352624.48,0.15,0.39,0.89,-0.3,1.2,19.7,0.78,0.02,0.01,0.62
1697352624.49,0.15,0.39,0.89,-0.3,1.2,19.7,0.78,0.02,0.01,0.62
1697352624.5,0.02,0.46,1.14,-0.3,0.5,19.8,0.78,0.02,0.01,0.62
1697352624.51,0.15,0.36,0.87,0,0,20.2,0.78,0.02,0.01,0.63
1697352624.52,0.07,0.4,1,0.9,-0.1,20.1,0.78,0.02,0.01,0.63
1697352624.53,-0.03,0.34,1.17,0.9,-0.7,20,0.78,0.02,0.01,0.63
1697352624.54,0.19,0.31,0.91,0,-1,20,0.78,0.02,0.01,0.63
1697352624.55,0.03,0.34,1.14,0,-1,19.7,0.77,0.02,0.01,0.63
1697352624.56,0.04,0.33,0.94,0.9,-2.1,18.8,0.77,0.02,0.01,0.63
1697352624.57,0.15,0.27,0.81,0.9,-2.1,18.8,0.77,0.02,0.01,0.63
1697352624.58,0.15,0.27,0.81,0.2,-1.9,18.5,0.77,0.02,0.01,0.64
1697352624.59,0.08,0.33,0.89,0,-1.2,18.3,0.77,0.02,0.01,0.64
1697352624.6,0.08,0.33,0.89,0,-1.2,18.3,0.77,0.02,0.01,0.64
1697352624.61,0.08,0.33,0.89,0,-1.2,18.3,0.77,0.02,0.01,0.64
1697352624.62,0.08,0.33,0.89,0,-1.2,18.3,0.77,0.02,0.01,0.64
1697352624.63,0.08,0.33,0.89,0,-1.2,18.3,0.77,0.02,0.01,0.64
1697352624.64,0.08,0.33,0.89,0,-1.2,18.3,0.77,0.02,0.01,0.64
1697352624.65,0.08,0.33,0.89,0,-1.2,18.3,0.77,0.02,0.01,0.64
1697352624.66,0.08,0.33,0.89,0,-1.2,18.3,0.77,0.02,0.01,0.64
1697352624.67,0.08,0.33,0.89,0,-1.2,18.3,0.77,0.02,0.01,0.64
1697352624.68,0.08,0.33,0.89,0,-1.2,18.3,0.77,0.02,0.01,0.64
1697352624.69,0.08,0.33,0.89,0,-1.2,18.3,0.77,0.02,0.01,0.64
1697352624.7,0.08,0.33,0.89,0,-1.2,18.3,0.77,0.02,0.01,0.64
1697352624.71,0.08,0.33,0.89,0,-1.2,18.3,0.77,0.02,0.01,0.64
1697352624.72,0.15,0.33,0.64,1,1.8,18.6,0.76,0.02,0.01,0.65
1697352624.73,0.1,0.3,0.77,1,1.8,18.4,0.76,0.02,0.01,0.65
1697352624.74,0.1,0.32,0.82,0.2,1.6,18.6,0.75,0.02,0.01,0.66
1697352624.75,-0.06,0.31,1.42,0.2,1.6,18.6,0.75,0.02,0.01,0.66
1697352624.76,0.02,0.41,1.28,-1.4,0.3,18.4,0.75,0.02,0.01,0.66
1697352624.77,0.26,0.38,0.73,-0.9,-0.6,18.3,0.75,0.02,0.01,0.66
1697352624.78,0.11,0.39,1.12,-0.3,-1.6,18.2,0.75,0.02,0.01,0.66
1697352624.79,-0.04,0.4,1.25,0.3,-2.4,18.2,0.75,0.02,0.01,0.66
1697352624.8,0.06,0.31,0.89,-0.1,-2.8,18.2,0.75,0.02,0.01,0.66
1697352624.81,0.13,0.29,0.87,-1.5,-2.9,18.2,0.75,0.02,0.01,0.66
1697352624.82,0.19,0.32,0.78,-2.2,-2.7,18.3,0.75,0.02,0.01,0.66
1697352624.83,-0.07,0.43,1.02,-0.6,-1.9,18.4,0.75,0.02,0.01,0.67
1697352624.84,-0.13,0.35,1.16,1.4,-1.2,18.4,0.75,0.02,0.01,0.67
1697352624.85,-0.13,0.35,1.16,1.4,-1.2,18.4,0.74,0.02,0.01,0.67
1697352624.86,0.04,0.24,0.83,2.6,0.6,18.6,0.74,0.02,0.01,0.67
1697352624.87,0.09,0.2,0.95,1.8,1.3,18.5,0.74,0.02,0.01,0.67
1697352624.88,0.09,0.2,0.95,1.8,1.3,18.5,0.74,0.02,0.01,0.67
1697352624.89,0.01,0.3,1.04,0.9,2.4,18.4,0.74,0.02,0.01,0.67
1697352624.9,-0.02,0.25,1.22,-0.2,3.2,18.3,0.74,0.02,0.01,0.67
1697352624.91,0.15,0.38,0.68,-1.2,3.6,18.2,0.74,0.02,0.01,0.68
1697352624.92,-0.08,0.44,1.34,-1.2,3.8,18.4,0.74,0.02,0.01,0.68
1697352624.93,-0.08,0.44,1.34,0.2,3.7,18.6,0.74,0.02,0.01,0.68
1697352624.94,0.15,0.33,0.94,1.4,2.7,18.4,0.73,0.02,0.01,0.68
1697352624.95,0.22,0.31,0.81,1,1.9,18.5,0.73,0.02,0.01,0.68
1697352624.96,-0.07,0.29,1.4,-1.7,0.1,18.4,0.73,0.02,0.01,0.68
1697352624.97,0.06,0.38,1.16,-4.5,-1.6,18.2,0.73,0.02,0.01,0.68
1697352624.98,-0.09,0.45,1.17,-4.3,-2.7,17.7,0.73,0.02,0.01,0.68
1697352624.99,-0.02,0.4,1.22,-2.1,-2.3,17.4,0.73,0.02,0.01,0.68
1697352625,-0.18,0.2,1.12,1,-1.9,16.8,0.73,0.02,0.01,0.68
1697352625.01,0.13,0.11,0.77,0.5,-0.2,15.8,0.73,0.02,0.01,0.69
1697352625.02,0.12,0.16,0.66,-0.1,0.1,15.4,0.73,0.02,0.01,0.69
1697352625.03,0.14,0.2,0.83,-0.9,1.1,15,0.72,0.02,0.01,0.69
1697352625.04,-0.04,0.24,1.16,0.1,1.2,14.6,0.72,0.02,0.01,0.69
1697352625.05,-0.04,0.23,1.32,1,0.9,14.4,0.72,0.02,0.01,0.69
1697352625.06,0.18,0.23,0.81,0.6,0.6,14.6,0.72,0.02,0.01,0.69
1697352625.07,0.23,0.25,0.93,0,0.1,15.2,0.72,0.02,0.01,0.69
1697352625.08,-0.12,0.3,1.4,0.3,-0.7,15.3,0.72,0.02,0.01,0.69
1697352625.09,-0.05,0.25,1.28,0.5,-2,15.9,0.72,0.02,0.01,0.69
1697352625.1,0.05,0.26,1.21,-0.8,-2.7,16.5,0.72,0.02,0.01,0.69
1697352625.11,0.05,0.26,1.21,-0.8,-2.7,16.5,0.72,0.02,0.01,0.69
1697352625.12,0.05,0.26,1.21,-0.8,-2.7,16.5,0.72,0.02,0.01,0.69
1697352625.13,0.05,0.26,1.21,-0.8,-2.7,16.5,0.72,0.02,0.01,0.69
1697352625.14,0.05,0.26,1.21,-0.8,-2.7,16.5,0.72,0.02,0.01,0.69
1697352625.15,0.05,0.26,1.21,-0.8,-2.7,16.5,0.72,0.02,0.01,0.69
1697352625.16,0.05,0.26,1.21,-0.8,-2.7,16.5,0.72,0.02,0.01,0.69
1697352625.17,0.05,0.26,1.21,-0.8,-2.7,16.5,0.72,0.02,0.01,0.69
1697352625.18,0.05,0.26,1.21,-0.8,-2.7,16.5,0.72,0.02,0.01,0.69
1697352625.19,0.05,0.26,1.21,-0.8,-2.7,16.5,0.72,0.02,0.01,0.69
1697352625.2,0.05,0.26,1.21,-0.8,-2.7,16.5,0.72,0.02,0.01,0.69
1697352625.21,0.05,0.26,1.21,-0.8,-2.7,16.5,0.72,0.02,0.01,0.69
1697352625.22,0.05,0.26,1.21,-0.8,-2.7,16.5,0.72,0.02,0.01,0.69
1697352625.23,0.05,0.26,1.21,-0.8,-2.7,16.5,0.72,0.02,0.01,0.69
1697352625.24,0.05,0.26,1.21,-0.8,-2.7,16.5,0.72,0.02,0.01,0.69
1697352625.25,0.05,0.26,1.21,-0.8,-2.7,16.5,0.72,0.02,0.01,0.69
1697352625.26,0.05,0.26,1.21,-0.8,-2.7,16.5,0.72,0.02,0.01,0.69
1697352625.27,0.05,0.26,1.21,-0.8,-2.7,16.5,0.72,0.02,0.01,0.69
1697352625.28,0.05,0.26,1.21,-0.8,-2.7,16.5,0.72,0.02,0.01,0.69
1697352625.29,0.05,0.26,1.21,-0.8,-2.7,16.5,0.72,0.02,0.01,0.69
1697352625.3,0.05,0.26,1.21,-0.8,-2.7,16.5,0.72,0.02,0.01,0.69
1697352625.31,0.05,0.26,1.21,-0.8,-2.7,16.5,0.72,0.02,0.01,0.69
1697352625.32,0.05,0.26,1.21,-0.8,-2.7,16.5,0.72,0.02,0.01,0.69
1697352625.33,0.05,0.26,1.21,-0.8,-2.7,16.5,0.72,0.02,0.01,0.69
1697352625.34,0.05,0.26,1.21,-0.8,-2.7,16.5,0.72,0.02,0.01,0.69
1697352625.35,0.05,0.26,1.21,-0.8,-2.7,16.5,0.72,0.02,0.01,0.69
1697352625.36,0.05,0.26,1.21,-0.8,-2.7,16.5,0.72,0.02,0.01,0.69
1697352625.37,0.05,0.26,1.21,-0.8,-2.7,16.5,0.72,0.02,0.01,0.69
1697352625.38,0.05,0.26,1.21,-0.8,-2.7,16.5,0.72,0.02,0.01,0.69
1697352625.39,0.05,0.26,1.21,-0.8,-2.7,16.5,0.72,0.02,0.01,0.69
1697352625.4,0.05,0.26,1.21,-0.8,-2.7,16.5,0.72,0.02,0.01,0.69
1697352625.41,0.05,0.26,1.21,-0.8,-2.7,16.5,0.72,0.02,0.01,0.69
1697352625.42,0.05,0.26,1.21,-0.8,-2.7,16.5,0.72,0.02,0.01,0.69
1697352625.43,0.05,0.26,1.21,-0.8,-2.7,16.5,0.72,0.02,0.01,0.69
1697352625.44,0.05,0.26,1.21,-0.8,-2.7,16.5,0.72,0.02,0.01,0.69
1697352625.45,0.17,0.07,0.86,-0.9,-0.7,4.8,0.69,0.02,0.01,0.72
1697352625.46,-0.03,-0.1,0.88,1.5,-0.9,4,0.69,0.02,0.01,0.72
1697352625.47,0.05,-0.22,0.74,0.5,-0.5,3,0.69,0.02,0.01,0.72
1697352625.48,0.06,-0.15,1.1,-1.1,0,1.7,0.69,0.02,0.01,0.72
1697352625.49,-0.05,0.03,1.19,-3.7,0.4,0.7,0.69,0.02,0.01,0.72
1697352625.5,-0.02,0.02,1.26,-2.2,0.7,0.3,0.69,0.02,0,0.72
1697352625.51,-0.08,-0,0.92,-0.1,0.1,0.1,0.69,0.02,0,0.72
1697352625.52,0.06,-0.06,0.99,1.5,-0.1,0.3,0.69,0.02,0,0.72
1697352625.53,0.01,-0.1,0.9,1.4,0.1,0.7,0.69,0.02,0,0.72
1697352625.54,-0.12,-0,1.53,-0.4,0,1.2,0.69,0.02,0,0.72
1697352625.55,0.29,-0.07,0.73,-1.4,-0.4,2,0.69,0.02,0,0.72
1697352625.56,0.02,0.05,1.21,-0.5,-1,2,0.69,0.02,0,0.72
1697352625.57,-0.08,0.09,1.1,0.5,-1,2.4,0.69,0.02,0,0.72
1697352625.58,0.17,0,0.56,1.3,-0.8,2.3,0.69,0.02,0,0.72
1697352625.59,0.11,-0.06,0.91,1.3,-0.8,2.3,0.69,0.02,0,0.72
1697352625.6,0.04,0.05,1.16,0.4,-0.5,1.8,0.69,0.02,0,0.72
1697352625.61,-0.05,-0.03,1.22,-0.7,0,1.5,0.69,0.02,0,0.72
1697352625.62,0.06,0.04,0.6,-1.3,0.1,1.2,0.69,0.02,0,0.72
1697352625.63,0.2,0.1,0.85,0.1,0.3,0.8,0.69,0.02,0,0.72
1697352625.64,0.19,0.16,0.72,2,0.6,0.7,0.69,0.02,0,0.72
1697352625.65,0.08,0.01,1.12,2,0.6,0.7,0.69,0.02,0,0.72
1697352625.66,-0.14,-0.03,1.16,0.5,1.6,0.6,0.69,0.02,0.01,0.72
1697352625.67,0.03,-0.17,0.91,-3.6,2,0.6,0.69,0.02,0.01,0.72
1697352625.68,0.2,-0.06,0.74,-6.1,1.8,0.5,0.69,0.02,0,0.72
1697352625.69,0.2,-0.06,0.74,-6.1,1.8,0.5,0.69,0.02,0,0.72
1697352625.7,-0.12,0.33,1.48,-4.1,0.5,1.4,0.69,0.02,0,0.72
1697352625.71,-0,0.17,1.13,1,-0.9,2.4,0.69,0.02,0,0.72
1697352625.72,-0.03,-0.14,1.09,3.2,-3.4,2.7,0.69,0.02,0,0.72
1697352625.73,-0.03,-0.14,1.09,3.2,-3.4,2.7,0.69,0.02,0,0.72
1697352625.74,0.13,-0.08,1,-1.9,-4.1,2.6,0.69,0.02,0,0.72
1697352625.75,0.13,-0.08,1,-1.9,-4.1,2.6,0.69,0.02,0,0.72
1697352625.76,-0.02,0.16,1.38,-4.5,-4.7,2.7,0.69,0.02,0,0.72
1697352625.77,-0.1,0.27,0.97,-2.8,-4.5,2.8,0.69,0.02,0,0.72
1697352625.78,0.01,0.2,0.91,1.3,-3.6,3,0.69,0.02,0,0.72
1697352625.79,0.06,0.01,0.85,5.1,-2.6,3.2,0.69,0.02,0,0.73
1697352625.8,0.03,-0.13,1.12,5.6,-1.5,3.2,0.69,0.02,0,0.73
1697352625.81,0.13,-0.18,0.8,-1,-0.2,2.6,0.69,0.02,0,0.73
1697352625.82,-0.03,0.07,1.33,-4.6,0.1,2.8,0.69,0.02,0,0.73
1697352625.83,-0.03,0.07,1.33,-4.6,0.1,2.8,0.69,0.02,0,0.73
1697352625.84,-0.03,0.07,1.33,-4.6,0.1,2.8,0.69,0.02,0,0.73
1697352625.85,-0.03,0.07,1.33,-4.6,0.1,2.8,0.69,0.02,0,0.73
1697352625.86,-0.03,0.07,1.33,-4.6,0.1,2.8,0.69,0.02,0,0.73
1697352625.87,-0.03,0.07,1.33,-4.6,0.1,2.8,0.69,0.02,0,0.73
1697352625.88,-0.03,0.07,1.33,-4.6,0.1,2.8,0.69,0.02,0,0.73
1697352625.89,-0.03,0.07,1.33,-4.6,0.1,2.8,0.69,0.02,0,0.73
1697352625.9,-0.03,0.07,1.33,-4.6,0.1,2.8,0.69,0.02,0,0.73
1697352625.91,-0.03,0.07,1.33,-4.6,0.1,2.8,0.69,0.02,0,0.73
1697352625.92,-0.03,0.07,1.33,-4.6,0.1,2.8,0.69,0.02,0,0.73
1697352625.93,-0.03,0.07,1.33,-4.6,0.1,2.8,0.69,0.02,0,0.73
1697352625.94,-0.03,0.07,1.33,-4.6,0.1,2.8,0.69,0.02,0,0.73
1697352625.95,0.14,-0.22,0.99,-4.6,0.1,2.8,0.69,0.02,0,0.73
1697352625.96,0.01,-0.17,1.35,-3.6,-1.4,-1.4,0.69,0.02,0,0.73
1697352625.97,0.03,0.03,0.93,-3.6,-2.2,-1.2,0.69,0.02,0,0.73
1697352625.98,0.24,0.07,0.71,-2,-3,-0.6,0.69,0.02,0,0.73
1697352625.99,0.12,0.07,1.07,0.1,-3.9,-0.5,0.69,0.02,0,0.73
1697352626,0.01,0.1,1.16,1.5,-4.6,0,0.69,0.02,0,0.73
1697352626.01,0.17,-0.16,0.96,0.2,-4,0,0.69,0.02,0,0.73
1697352626.02,0.08,-0.08,1.01,-1.2,-3.3,0,0.69,0.02,0,0.73
1697352626.03,-0.06,0,0.96,-1.7,-2,0.1,0.69,0.02,0,0.73
1697352626.04,-0.11,0.01,1.22,-0.4,-0.6,0,0.69,0.02,0,0.73
1697352626.05,-0.11,0.01,1.22,-0.4,-0.6,0,0.69,0.02,0,0.73
1697352626.06,-0.13,-0.12,1.25,0.4,2.3,0,0.69,0.02,0,0.73
1697352626.07,-0.2,0.05,0.95,1.3,4,0,0.69,0.02,0,0.73
1697352626.08,-0.06,0.06,1.18,1.3,4,0,0.69,0.02,0,0.73
1697352626.09,-0.06,0.06,1.18,1.2,4.4,-0.1,0.69,0.02,0,0.73
1697352626.1,-0.05,-0.02,1.17,2.2,4.4,-0.3,0.69,0.02,0,0.73
1697352626.11,0.08,-0.18,1.08,3.7,3.4,-0.3,0.69,0.02,0,0.73
1697352626.12,0.25,-0.18,0.88,2.1,2.3,-0.9,0.69,0.02,0,0.73
1697352626.13,0.17,-0.01,1.04,-1.3,1.8,-1.3,0.69,0.02,0,0.73
1697352626.14,0.03,0.14,0.93,-3.6,1.2,-1,0.69,0.02,0,0.73
1697352626.15,-0.04,0.17,0.99,-4,0.4,-0.5,0.69,0.02,0,0.73
1697352626.16,0.18,0.06,0.89,-0.6,-0.3,-0.4,0.69,0.02,0,0.73
1697352626.17,0.13,-0.1,1.11,1.7,-0.4,-0.1,0.69,0.02,0,0.73
1697352626.18,-0.01,-0.1,0.76,2.1,0,-0.1,0.69,0.02,0,0.73
1697352626.19,0.05,-0.06,0.73,1.4,0.8,-0.8,0.69,0.02,0,0.73
1697352626.2,-0.04,-0.06,1.11,-1,1,-1.3,0.69,0.02,0,0.73
1697352626.21,-0.18,-0.07,1.01,-0.1,0.7,-1.6,0.69,0.02,0,0.73
1697352626.22,0.21,0.08,1.03,-0.1,0.7,-1.6,0.69,0.02,0,0.73
1697352626.23,0.14,0.03,0.99,3.2,0.4,-1.9,0.69,0.02,0,0.73
1697352626.24,0.02,0.08,0.99,5.3,0.3,-1.9,0.69,0.02,0,0.73
1697352626.25,-0.07,-0.19,1.08,3.2,0.3,-1.7,0.69,0.02,0,0.73
1697352626.26,0.06,-0.29,0.88,-2.1,0.6,-1.7,0.69,0.02,0,0.73
1697352626.27,0.12,-0.17,1.22,-5.5,0.6,-2,0.69,0.02,0,0.73
1697352626.28,-0.03,0.14,1.14,-5.3,0.5,-1.9,0.69,0.02,0,0.73
1697352626.29,0.19,0.2,0.88,-1.1,0.1,-1.4,0.69,0.02,0,0.73
1697352626.3,0.15,0.03,1.28,-1.1,0.1,-1.4,0.69,0.02,0,0.73
1697352626.31,-0.02,-0.03,1.04,4,-2,-1.2,0.69,0.02,0,0.73
1697352626.32,0.16,-0.13,0.71,4,-2,-1.2,0.69,0.02,0,0.73
1697352626.33,0.23,-0.17,0.76,2.6,-3.1,-1.4,0.69,0.02,0,0.73
1697352626.34,0.23,-0.17,0.76,2.6,-3.1,-1.4,0.69,0.02,0,0.73
1697352626.35,0.23,-0.17,0.76,2.6,-3.1,-1.4,0.69,0.02,0,0.73
1697352626.36,0.23,-0.17,0.76,2.6,-3.1,-1.4,0.69,0.02,0,0.73
1697352626.37,0.23,-0.17,0.76,2.6,-3.1,-1.4,0.69,0.02,0,0.73
1697352626.38,0.23,-0.17,0.76,2.6,-3.1,-1.4,0.69,0.02,0,0.73
1697352626.39,0.23,-0.17,0.76,2.6,-3.1,-1.4,0.69,0.02,0,0.73
1697352626.4,0.23,-0.17,0.76,2.6,-3.1,-1.4,0.69,0.02,0,0.73
1697352626.41,0.23,-0.17,0.76,2.6,-3.1,-1.4,0.69,0.02,0,0.73
1697352626.42,0.23,-0.17,0.76,2.6,-3.1,-1.4,0.69,0.02,0,0.73
1697352626.43,0.23,-0.17,0.76,2.6,-3.1,-1.4,0.69,0.02,0,0.73
1697352626.44,0.23,-0.17,0.76,2.6,-3.1,-1.4,0.69,0.02,0,0.73
1697352626.45,0.23,-0.17,0.76,2.6,-3.1,-1.4,0.69,0.02,0,0.73
1697352626.46,0.23,-0.17,0.76,2.6,-3.1,-1.4,0.69,0.02,0,0.73
1697352626.47,0.01,-0.02,0.96,0.7,-1.5,0,0.69,0.02,0,0.73
1697352626.48,0.17,-0.07,0.86,1.4,-2,-0.3,0.69,0.02,0,0.73
1697352626.49,0.17,-0.07,0.86,1.5,-1.9,-0.3,0.69,0.02,0,0.73
1697352626.5,0.11,-0.05,0.96,0.8,-2.8,-0.1,0.69,0.02,0,0.73
1697352626.51,-0.01,0,0.85,0.8,-2.7,-0.2,0.69,0.02,0,0.73
1697352626.52,-0.13,-0.07,1.19,0.7,-1.9,-0.4,0.69,0.02,0,0.73
1697352626.53,0.01,-0.01,0.89,-0.9,-0.5,-0.4,0.69,0.02,0,0.73
1697352626.54,0.12,0.03,1.03,-1.2,0.7,-0.5,0.69,0.02,0,0.73
1697352626.55,0.05,0.02,0.91,-0.3,1.7,-0.5,0.69,0.02,0,0.73
1697352626.56,-0.07,0,1.06,-0.3,2,-0.5,0.69,0.02,0,0.73
1697352626.57,0.1,0.03,1.08,-1,1.8,-0.6,0.69,0.02,0,0.73
1697352626.58,0.02,0.1,0.96,-1.1,1.5,-0.4,0.69,0.02,0,0.73
1697352626.59,0.01,-0.03,0.98,0,0.5,-0.1,0.69,0.02,0,0.73
1697352626.6,0.19,-0.03,0.6,0.3,-0.2,-0.2,0.69,0.02,0,0.73
1697352626.61,0.14,-0.05,1.04,1,-1,-0.2,0.69,0.02,0,0.73
1697352626.62,-0.04,0.02,1.22,1,-1,0.3,0.69,0.02,0,0.73
1697352626.63,-0.01,0.06,1,2.2,-0.9,0,0.69,0.02,0,0.73
1697352626.64,0.01,-0.08,1.19,2.7,-0.9,0,0.69,0.02,0,0.73
1697352626.65,0.21,-0.09,0.91,2.4,-1,0,0.69,0.02,0,0.73
1697352626.66,0.11,-0.07,0.79,1.3,-0.6,-0.2,0.69,0.02,0,0.73
1697352626.67,0.03,-0.03,1.09,0.9,-0.5,-0.2,0.69,0.02,0,0.73
1697352626.68,-0.03,-0.03,1.03,-0.5,0,-0.6,0.69,0.02,0,0.73
1697352626.69,-0.04,0.03,1.07,-1.4,0.4,-0.4,0.69,0.02,0,0.73
1697352626.7,0.06,0.07,0.83,-1.3,0.6,-0.5,0.69,0.02,0,0.73
1697352626.71,-0.08,0.02,1.16,-1.2,0.7,-0.5,0.69,0.02,0,0.73
1697352626.72,0.25,0.04,0.65,-1.2,0.7,-0.5,0.69,0.02,0,0.73
1697352626.73,-0.03,0.05,1.37,0.3,0.4,-0.7,0.69,0.02,0,0.72
1697352626.74,-0.03,0.05,1.37,0.3,0.4,-0.7,0.69,0.02,0,0.72
1697352626.75,-0.01,-0.08,0.81,0,0.2,-0.6,0.69,0.02,0,0.72
1697352626.76,0.03,0.08,1.18,-1.7,-0.5,-1.1,0.69,0.02,0,0.72
1697352626.77,0.15,0.04,1.07,-1.7,-0.5,-1.1,0.69,0.02,0,0.72
1697352626.78,0.15,0.04,1.07,0.2,-0.8,-0.9,0.69,0.02,0,0.72
1697352626.79,0.04,-0.27,0.93,4.6,-1.1,-0.7,0.69,0.02,0,0.72
1697352626.8,0.04,-0.27,0.93,5.2,-1,-0.6,0.69,0.02,0,0.72
1697352626.81,0.08,-0.2,1.12,2.8,-0.2,-0.7,0.69,0.02,-0,0.72
1697352626.82,0.05,-0.1,0.81,-0.3,0.5,-1.1,0.69,0.02,-0,0.72
1697352626.83,-0.1,0.06,1.02,-2.9,1.5,-0.9,0.69,0.02,-0,0.72
1697352626.84,-0.09,0.16,0.9,-3.2,2.2,-0.3,0.69,0.02,-0,0.72
1697352626.85,0.1,0.18,1,-3.2,2.2,-0.3,0.69,0.02,-0,0.72
1697352626.86,0.1,0.18,1,-1.6,2.8,0,0.69,0.02,-0,0.72
1697352626.87,0.1,0.18,1,-1.6,2.8,0,0.69,0.02,-0,0.72
1697352626.88,0.1,0.18,1,-1.6,2.8,0,0.69,0.02,-0,0.72
1697352626.89,0.1,0.18,1,-1.6,2.8,0,0.69,0.02,-0,0.72
1697352626.9,0.1,0.18,1,-1.6,2.8,0,0.69,0.02,-0,0.72
1697352626.91,0.1,0.18,1,-1.6,2.8,0,0.69,0.02,-0,0.72
1697352626.92,0.1,0.18,1,-1.6,2.8,0,0.69,0.02,-0,0.72
1697352626.93,0.1,0.18,1,-1.6,2.8,0,0.69,0.02,-0,0.72
1697352626.94,0.1,0.18,1,-1.6,2.8,0,0.69,0.02,-0,0.72
1697352626.95,0.1,0.18,1,-1.6,2.8,0,0.69,0.02,-0,0.72
1697352626.96,0.1,0.18,1,-1.6,2.8,0,0.69,0.02,-0,0.72
1697352626.97,0.1,0.18,1,-1.6,2.8,0,0.69,0.02,-0,0.72
1697352626.98,0.1,0.18,1,-1.6,2.8,0,0.69,0.02,-0,0.72
1697352626.99,0.15,0.08,0.75,-3.2,2.5,0.4,0.69,0.01,0,0.73
1697352627,-0.01,0.24,1.12,-0.6,1.9,0.3,0.69,0.01,0,0.73
1697352627.01,0.04,0.24,1.03,2.4,1.1,1.3,0.69,0.01,0,0.73
1697352627.02,-0.05,0.07,1.17,3.6,0.1,1.5,0.69,0.01,0,0.73
1697352627.03,0.05,-0.19,0.94,1.9,0,0.9,0.69,0.01,0,0.73
1697352627.04,0.13,-0.29,0.93,-1,0.3,0.7,0.69,0.01,0,0.73
1697352627.05,0.24,-0.04,0.88,-3.6,0.3,1.1,0.69,0.01,0,0.73
1697352627.06,0.01,0.2,0.96,-1.6,0.8,1.8,0.69,0.01,0,0.73
1697352627.07,0.08,0.15,1.27,3.5,0.6,2,0.69,0.01,0,0.73
1697352627.08,0.21,-0.04,0.95,5.3,0.2,1.8,0.69,0.01,0,0.73
1697352627.09,0.06,-0.06,0.78,3,-0.5,2,0.69,0.01,0,0.73
1697352627.1,0.06,-0.06,0.78,3,-0.5,2,0.69,0.01,0,0.73
1697352627.11,0.12,-0.16,1,-5.8,-1,0.9,0.69,0.01,0,0.73
1697352627.12,0.22,0.1,0.8,-5.8,-1,0.9,0.69,0.01,0,0.73
1697352627.13,-0.07,0.15,1.14,-5.5,-0.9,0.9,0.69,0.01,0,0.73
1697352627.14,-0.07,0.15,1.14,-5.5,-0.9,0.9,0.69,0.01,0,0.73
1697352627.15,0.07,0.3,0.89,-2.1,0,1.1,0.69,0.01,-0,0.73
1697352627.16,0.07,0.36,1.18,3.5,0.3,1.3,0.69,0.01,0,0.73
1697352627.17,0.05,-0.01,1.25,5.3,0.3,1.1,0.69,0.01,0,0.73
1697352627.18,0.05,-0.11,0.78,2.6,0.2,1,0.69,0.01,0,0.73
1697352627.19,-0.02,-0.28,1.11,-3,0,0.8,0.69,0.01,0,0.73
1697352627.2,0.05,-0.11,1.19,-3,0,0.8,0.69,0.01,0,0.73
1697352627.21,0.13,0.19,1.11,-4.3,-0.1,0.3,0.69,0.01,0,0.73
1697352627.22,0.12,0.15,0.7,-1.4,0.1,0.8,0.69,0.01,0,0.73
1697352627.23,-0.08,-0.01,1.04,2.4,1,1.5,0.69,0.01,0,0.73
1697352627.24,-0.1,-0.18,0.96,3.8,1.9,1.7,0.69,0.01,0,0.73
1697352627.25,-0.08,-0.12,1.06,1.6,2.3,0.9,0.69,0.01,0,0.73
1697352627.26,-0.01,-0.07,0.94,-0.9,2.3,0.3,0.69,0.01,0,0.73
1697352627.27,-0.04,-0.07,0.63,-4.1,2.2,0.2,0.69,0.01,0,0.73
1697352627.28,0.05,0.06,0.86,-5.7,1.5,-0.4,0.69,0.01,0,0.73
1697352627.29,0.25,0.29,0.74,-6.4,1.1,-0.9,0.69,0.01,0,0.73
1697352627.3,0.06,0.22,1.23,-3.5,0.5,-0.5,0.69,0.01,0,0.73
1697352627.31,-0.04,0.12,0.97,0.9,-0.8,-0.4,0.69,0.01,0,0.73
1697352627.32,-0.07,-0.11,1.06,2.6,-1.9,-0.3,0.69,0.01,0,0.73
1697352627.33,0.04,-0.23,1.03,2.3,-2.6,-0.4,0.69,0.01,0,0.73
1697352627.34,-0.11,-0.09,0.9,-1.8,-2.4,-0.6,0.69,0.01,-0,0.73
1697352627.35,-0.15,0,1.17,-1.8,-2.4,-0.6,0.69,0.01,-0,0.73
1697352627.36,-0.01,0.06,1.14,-2.4,-0.5,-0.4,0.69,0.01,-0,0.73
1697352627.37,-0.01,0.06,1.14,-2.4,-0.5,-0.4,0.69,0.01,-0,0.73
1697352627.38,-0.01,0.06,1.14,-2.4,-0.5,-0.4,0.69,0.01,-0,0.73
1697352627.39,-0.01,0.06,1.14,-2.4,-0.5,-0.4,0.69,0.01,-0,0.73
1697352627.4,-0.01,0.06,1.14,-2.4,-0.5,-0.4,0.69,0.01,-0,0.73
1697352627.41,-0.01,0.06,1.14,-2.4,-0.5,-0.4,0.69,0.01,-0,0.73
1697352627.42,-0.01,0.06,1.14,-2.4,-0.5,-0.4,0.69,0.01,-0,0.73
1697352627.43,-0.01,0.06,1.14,-2.4,-0.5,-0.4,0.69,0.01,-0,0.73
1697352627.44,-0.01,0.06,1.14,-2.4,-0.5,-0.4,0.69,0.01,-0,0.73
1697352627.45,-0.01,0.06,1.14,-2.4,-0.5,-0.4,0.69,0.01,-0,0.73
1697352627.46,-0.01,0.06,1.14,-2.4,-0.5,-0.4,0.69,0.01,-0,0.73
1697352627.47,-0.01,0.06,1.14,-2.4,-0.5,-0.4,0.69,0.01,-0,0.73
1697352627.48,-0.01,0.06,1.14,-2.4,-0.5,-0.4,0.69,0.01,-0,0.73
1697352627.49,-0.01,0.06,1.14,-2.4,-0.5,-0.4,0.69,0.01,-0,0.73
1697352627.5,-0.01,0.06,1.14,-2.4,-0.5,-0.4,0.69,0.01,-0,0.73
1697352627.51,-0.01,0.06,1.14,-2.4,-0.5,-0.4,0.69,0.01,-0,0.73
1697352627.52,-0.01,0.06,1.14,-2.4,-0.5,-0.4,0.69,0.01,-0,0.73
1697352627.53,-0.01,0.06,1.14,-2.4,-0.5,-0.4,0.69,0.01,-0,0.73
1697352627.54,-0.01,0.06,1.14,-2.4,-0.5,-0.4,0.69,0.01,-0,0.73
1697352627.55,-0.06,-0.1,1.12,0,2.3,-1.1,0.69,0.01,-0,0.73
1697352627.56,-0.1,-0.02,0.92,-1.5,1.5,-1.3,0.69,0.01,-0,0.73
1697352627.57,0,-0.02,0.73,-1.5,0.5,-1.2,0.69,0.01,-0,0.73
1697352627.58,0.09,-0.04,1,-2.2,-0.6,-1,0.69,0.01,-0,0.73
1697352627.59,0.24,0.01,1.01,-1.6,-1.8,-0.8,0.69,0.01,-0,0.73
1697352627.6,0.12,0.02,0.55,-0.6,-1.7,-1,0.69,0.01,-0,0.73
1697352627.61,0.02,0.04,1.11,0.7,-0.8,-0.7,0.69,0.01,-0,0.73
1697352627.62,0.07,-0.04,0.81,1.7,0,-0.5,0.69,0.01,-0,0.73
1697352627.63,0.01,-0.1,1.31,1.9,0.1,-0.9,0.69,0.01,-0,0.73
1697352627.64,-0.03,-0.05,0.92,0.9,-0.1,-0.9,0.69,0.01,-0,0.73
1697352627.65,0.08,-0.12,0.98,-0.2,0.3,-0.9,0.69,0.01,-0,0.73
1697352627.66,-0.03,-0.1,1.09,-1.8,1,-1.1,0.69,0.01,-0,0.73
1697352627.67,-0.05,0.12,0.95,-1.9,1.8,-1.3,0.69,0.01,-0,0.73
1697352627.68,-0.1,0.14,1.12,0.1,2.3,-0.9,0.69,0.01,-0,0.73
1697352627.69,0.04,-0.04,1,0.1,2.3,-0.9,0.69,0.01,-0,0.73
1697352627.7,0.03,0,0.86,0.8,1.6,-1,0.69,0.01,-0,0.72
1697352627.71,-0.02,-0,1.09,0,0.2,-0.9,0.69,0.01,-0,0.72
1697352627.72,0.06,-0.04,1.03,-0.1,-0.1,-0.9,0.69,0.01,-0,0.72
1697352627.73,0.2,-0.11,0.83,0.5,-0.9,-1.2,0.69,0.01,-0,0.72
1697352627.74,0.04,-0.04,0.79,-0.5,-1.9,-1.4,0.69,0.01,-0,0.72
1697352627.75,0.04,-0.04,1.01,-0.9,-2.9,-1.3,0.69,0.01,-0,0.72
1697352627.76,0.11,0.06,1.13,-0.1,-3.4,-1.4,0.69,0.01,-0,0.72
1697352627.77,0.11,0.06,1.13,-0.1,-3.4,-1.4,0.69,0.01,-0,0.72
1697352627.78,-0.13,-0.1,0.9,1.8,-2.3,-1.5,0.69,0.01,-0,0.72
1697352627.79,-0.11,-0.12,0.87,1.8,-2.3,-1.5,0.69,0.01,-0,0.72
1697352627.8,0.02,-0.19,0.93,-0.8,0.3,-1.6,0.69,0.01,-0,0.72
1697352627.81,0.14,-0.06,0.92,-0.8,0.3,-1.6,0.69,0.01,-0,0.72
1697352627.82,0.1,0.07,0.94,-1.3,2.3,-1.9,0.69,0.01,-0,0.72
1697352627.83,0,-0.11,1.13,-0.3,2.2,-2,0.69,0.01,-0,0.72
1697352627.84,0.2,0.04,0.92,-0.2,1.8,-2.5,0.69,0.01,-0,0.72
1697352627.85,0.12,-0.05,0.86,0.1,1.4,-2.4,0.69,0.01,-0,0.72
1697352627.86,0.01,-0.07,0.85,0.7,0.8,-2,0.69,0.01,-0,0.72
1697352627.87,-0.12,-0.14,1.23,0.4,0.1,-2.3,0.69,0.01,-0,0.72
1697352627.88,-0.09,-0.08,1.12,-1.3,-0.5,-2.3,0.69,0.01,-0,0.72
1697352627.89,0.04,0.02,0.97,-2.2,-0.3,-1.8,0.69,0.01,-0.01,0.72
1697352627.9,0.04,0.02,0.97,-2.2,-0.3,-1.8,0.69,0.01,-0.01,0.72
1697352627.91,-0.04,-0.02,1.08,4,0.6,-1.4,0.69,0.01,-0.01,0.72
1697352627.92,-0.1,-0.13,1.02,4,0.6,-1.4,0.69,0.01,-0,0.72
1697352627.93,-0.1,-0.13,1.02,4.1,1.3,-1.2,0.69,0.01,-0,0.72
1697352627.94,-0.1,-0.13,1.02,4.1,1.3,-1.2,0.69,0.01,-0,0.72
1697352627.95,-0.1,-0.13,1.02,4.1,1.3,-1.2,0.69,0.01,-0,0.72
1697352627.96,-0.1,-0.13,1.02,4.1,1.3,-1.2,0.69,0.01,-0,0.72
1697352627.97,-0.1,-0.13,1.02,4.1,1.3,-1.2,0.69,0.01,-0,0.72
1697352627.98,-0.1,-0.13,1.02,4.1,1.3,-1.2,0.69,0.01,-0,0.72
1697352627.99,-0.1,-0.13,1.02,4.1,1.3,-1.2,0.69,0.01,-0,0.72
1697352628,-0.1,-0.13,1.02,4.1,1.3,-1.2,0.69,0.01,-0,0.72
1697352628.01,-0.1,-0.13,1.02,4.1,1.3,-1.2,0.69,0.01,-0,0.72
1697352628.02,-0.1,-0.13,1.02,4.1,1.3,-1.2,0.69,0.01,-0,0.72
1697352628.03,-0.1,-0.13,1.02,4.1,1.3,-1.2,0.69,0.01,-0,0.72
1697352628.04,-0.1,-0.13,1.02,4.1,1.3,-1.2,0.69,0.01,-0,0.72
1697352628.05,-0.1,-0.13,1.02,4.1,1.3,-1.2,0.69,0.01,-0,0.72
1697352628.06,-0.1,-0.13,1.02,4.1,1.3,-1.2,0.69,0.01,-0,0.72
1697352628.07,-0.06,-0.14,1.11,4.2,0,-2.8,0.69,0.01,-0,0.72
1697352628.08,-0.12,-0.28,1.08,3.6,-0.6,-2.7,0.69,0.01,-0,0.72
1697352628.09,-0.02,-0.18,0.81,1.4,-0.3,-2.9,0.69,0,-0.01,0.72
1697352628.1,-0,0,1.28,-1.1,0.3,-3,0.69,0,-0.01,0.72
1697352628.11,-0.09,-0.04,1.01,-1.1,0.9,-2.6,0.69,0,-0.01,0.72
1697352628.12,-0.01,-0.06,0.66,-1.1,1.1,-2.2,0.69,0,-0.01,0.72
1697352628.13,-0.01,0.02,1.19,-0.7,1,-2.1,0.69,0,-0.01,0.72
1697352628.14,0.1,-0.08,0.85,-0.6,0.7,-1.7,0.69,0,-0.01,0.72
1697352628.15,0,0.02,1.06,-1,1.1,-1.5,0.69,0,-0.01,0.72
1697352628.16,-0.04,0.02,0.81,-1.1,0.8,-1.4,0.69,0,-0.01,0.72
1697352628.17,-0.12,0.01,1.06,-1.2,0,-1.6,0.69,0,-0.01,0.72
1697352628.18,0.02,0.09,1.15,-0.9,-0.2,-1.8,0.69,0,-0.01,0.72
1697352628.19,-0.15,-0.03,0.95,1.3,0,-1.8,0.69,0,-0.01,0.72
1697352628.2,-0.12,-0.09,1,3.6,-0.2,-2.2,0.69,0,-0.01,0.72
1697352628.21,-0.1,-0.11,1.29,3.6,-0.2,-2.2,0.69,0,-0.01,0.72
1697352628.22,0.13,-0.26,0.9,4.2,-0.7,-2.2,0.7,0,-0.01,0.72
1697352628.23,0.13,-0.26,0.9,4.2,-0.7,-2.2,0.7,0,-0,0.72
1697352628.24,0.06,0.01,0.95,0.8,0.6,-2.7,0.7,0,-0,0.72
1697352628.25,0.06,0.01,0.95,0.8,0.6,-2.7,0.7,0,-0.01,0.72
1697352628.26,-0.03,0.15,0.87,-3.2,1,-2.1,0.7,0,-0.01,0.72
1697352628.27,-0.03,0.15,0.87,-3.2,1,-2.1,0.7,0,-0.01,0.72
1697352628.28,0.06,0.13,0.84,-1.2,0.8,-1.5,0.7,0,-0.01,0.72
1697352628.29,0.06,0.13,0.84,-1.2,0.8,-1.5,0.7,0,-0.01,0.72
1697352628.3,0.1,-0.05,0.85,0.3,0.5,-1.1,0.7,0,-0,0.72
1697352628.31,0,-0.09,1.03,0,0.1,-0.9,0.7,0,-0.01,0.72
1697352628.32,-0.2,-0.07,1.22,-2,-0.1,-1.3,0.7,0,-0.01,0.72
1697352628.33,-0.13,0.05,1.03,-3.4,-0.8,-1.4,0.7,0,-0.01,0.72
1697352628.34,0.07,0.26,0.73,-1.2,-1.1,-1,0.7,0,-0.01,0.72
1697352628.35,-0.06,0.17,1.16,2.3,-0.7,-0.2,0.7,0,-0,0.72
1697352628.36,0.04,0.1,1.38,4.5,-0.4,0.9,0.7,0,-0,0.72
1697352628.37,-0,0.01,0.98,5.7,0,1.9,0.7,0,-0,0.72
1697352628.38,0,0.05,0.9,4,0.4,3.7,0.7,0,-0,0.72
1697352628.39,0.02,0.28,1.28,1.6,1,4.9,0.7,0,-0,0.72
1697352628.4,-0.04,0.54,0.99,-0.4,1.5,6.7,0.7,0,-0,0.72
1697352628.41,-0.1,0.7,0.55,1.3,1.7,11.5,0.69,0,-0,0.72
1697352628.42,-0.36,0.7,2,3.8,1.5,14.8,0.69,0,-0,0.72
1697352628.43,0.13,0.86,0.51,7.6,0.8,19.6,0.69,0,-0,0.72
1697352628.44,-0.08,0.84,1.29,8.3,0.7,20.6,0.69,0.01,-0,0.72
1697352628.45,0.05,0.79,0.7,6.5,-0.5,27.1,0.69,0.01,-0,0.72
1697352628.46,-0.1,0.91,0.85,5.2,-1.1,30.1,0.69,0.01,-0,0.73
1697352628.47,-0.1,0.91,0.85,5.2,-1.1,30.1,0.69,0.01,-0,0.73
1697352628.48,-0.1,0.91,0.85,5.2,-1.1,30.1,0.69,0.01,-0,0.73
1697352628.49,-0.1,0.91,0.85,5.2,-1.1,30.1,0.69,0.01,-0,0.73
1697352628.5,-0.1,0.91,0.85,5.2,-1.1,30.1,0.69,0.01,-0,0.73
1697352628.51,-0.1,0.91,0.85,5.2,-1.1,30.1,0.69,0.01,-0,0.73
1697352628.52,-0.1,0.91,0.85,5.2,-1.1,30.1,0.69,0.01,-0,0.73
1697352628.53,-0.1,0.91,0.85,5.2,-1.1,30.1,0.69,0.01,-0,0.73
1697352628.54,-0.1,0.91,0.85,5.2,-1.1,30.1,0.69,0.01,-0,0.73
1697352628.55,-0.1,0.91,0.85,5.2,-1.1,30.1,0.69,0.01,-0,0.73
1697352628.56,-0.1,0.91,0.85,5.2,-1.1,30.1,0.69,0.01,-0,0.73
1697352628.57,-0.1,0.91,0.85,5.2,-1.1,30.1,0.69,0.01,-0,0.73
1697352628.58,-0.1,0.91,0.85,5.2,-1.1,30.1,0.69,0.01,-0,0.73
1697352628.59,-0.21,1.15,1.11,-0.2,-1.5,56.1,0.65,0.01,0,0.76
1697352628.6,-0.24,1.18,0.92,-0.2,-1.5,56.1,0.65,0.01,0,0.76
1697352628.61,-0.1,1.27,0.78,1.8,-1.3,56.2,0.64,0.01,0,0.77
1697352628.62,-0.1,1.27,0.78,1.8,-1.3,56.2,0.64,0.01,0,0.77
1697352628.63,-0.38,0.98,1.16,3.2,-1,55.8,0.63,0.01,0,0.77
1697352628.64,-0.22,0.93,0.58,2.5,-0.2,54.7,0.63,0.01,0,0.78
1697352628.65,-0.22,0.93,0.58,0,0.8,53.1,0.63,0.01,0,0.78
1697352628.66,-0.39,0.93,0.8,-1.3,1,52.4,0.62,0.01,0,0.78
1697352628.67,-0.39,0.9,0.85,-2.4,2.4,48.9,0.62,0.01,0,0.79
1697352628.68,-0.25,1,1.07,-2.3,2.3,48,0.62,0.01,0,0.79
1697352628.69,-0.13,0.69,0.99,-1.7,1.6,46.2,0.61,0.01,0,0.79
1697352628.7,-0.1,0.63,0.96,-1.9,1.3,45.8,0.61,0.01,0,0.79
1697352628.71,-0.09,0.39,0.85,-4.2,-0.3,41.4,0.61,0.01,0,0.8
1697352628.72,-0.04,0.41,1.11,-6.3,-0.1,38.4,0.6,0.01,0,0.8
1697352628.73,-0.02,0.53,1.18,-6,-0.2,35.1,0.6,0.01,-0,0.8
1697352628.74,-0.08,0.59,0.98,-3.7,0.5,32,0.6,0.01,-0,0.8
1697352628.75,-0.03,0.62,0.98,-3.7,0.5,32,0.6,0.01,-0,0.8
1697352628.76,-0.04,0.53,1.16,-0.8,1.3,29.8,0.59,0.01,-0,0.8
1697352628.77,-0.13,0.54,0.99,-0.4,1.2,28.7,0.59,0.01,-0,0.81
1697352628.78,-0.12,0.53,1.28,-0.1,1.5,28,0.59,0.01,-0,0.81
1697352628.79,0,0.44,0.89,0.1,0.8,27.8,0.59,0.01,-0,0.81
1697352628.8,0.01,0.36,1.11,0,0,27.9,0.59,0.01,-0,0.81
1697352628.81,-0.08,0.37,1.14,-0.6,-0.6,27.8,0.58,0.01,-0,0.81
1697352628.82,-0.08,0.37,1.14,-0.6,-0.6,27.8,0.58,0.01,-0,0.81
1697352628.83,-0.04,0.38,0.97,-2.4,-2.4,27.8,0.58,0.01,-0,0.81
1697352628.84,0.03,0.42,0.83,-2.4,-2.4,27.8,0.58,0.01,-0,0.81
1697352628.85,-0.15,0.31,1.13,0.4,-3,26.9,0.58,0.01,-0,0.82
1697352628.86,-0.01,0.39,1.1,0.1,-3.6,26.4,0.58,0.01,-0,0.82
1697352628.87,-0.03,0.4,0.86,0.5,-2.9,25.8,0.57,0.01,-0,0.82
1697352628.88,-0.13,0.52,1.1,1.7,-1.9,25.4,0.57,0.01,-0,0.82
1697352628.89,-0.07,0.39,0.86,2.5,-1.4,24.8,0.57,0.01,-0,0.82
1697352628.9,-0.16,0.38,1.05,1,-1,24.5,0.57,0.01,-0,0.82
1697352628.91,-0.09,0.45,1.26,-1.1,-0.2,24.1,0.57,0.01,-0,0.82
1697352628.92,0.04,0.6,0.78,-1.3,0.7,24,0.57,0.01,-0,0.83
1697352628.93,0.06,0.57,1.23,0.7,0.9,24.4,0.56,0.01,-0,0.83
1697352628.94,0.14,0.42,1.21,2.2,0.3,24.2,0.56,0.01,-0,0.83
1697352628.95,0.14,0.21,0.98,2.2,0.3,24.2,0.56,0.01,-0,0.83
1697352628.96,0.14,0.18,0.97,1.7,-1,22.4,0.56,0.01,-0,0.83
1697352628.97,0.03,0.22,1.16,1.7,-1,22.4,0.56,0.01,-0,0.83
1697352628.98,0.03,0.22,1.16,-1.4,-1.4,20.4,0.56,0.01,-0,0.83
1697352628.99,0.03,0.22,1.16,-1.4,-1.4,20.4,0.56,0.01,-0,0.83
1697352629,0.03,0.22,1.16,-1.4,-1.4,20.4,0.56,0.01,-0,0.83
1697352629.01,0.03,0.22,1.16,-1.4,-1.4,20.4,0.56,0.01,-0,0.83
1697352629.02,0.03,0.22,1.16,-1.4,-1.4,20.4,0.56,0.01,-0,0.83
1697352629.03,0.03,0.22,1.16,-1.4,-1.4,20.4,0.56,0.01,-0,0.83
1697352629.04,0.03,0.22,1.16,-1.4,-1.4,20.4,0.56,0.01,-0,0.83
1697352629.05,0.03,0.22,1.16,-1.4,-1.4,20.4,0.56,0.01,-0,0.83
1697352629.06,0.03,0.22,1.16,-1.4,-1.4,20.4,0.56,0.01,-0,0.83
1697352629.07,0.03,0.22,1.16,-1.4,-1.4,20.4,0.56,0.01,-0,0.83
1697352629.08,0.03,0.22,1.16,-1.4,-1.4,20.4,0.56,0.01,-0,0.83
1697352629.09,0.03,0.22,1.16,-1.4,-1.4,20.4,0.56,0.01,-0,0.83
1697352629.1,0.03,0.22,1.16,-1.4,-1.4,20.4,0.56,0.01,-0,0.83
1697352629.11,0.03,0.22,1.16,-1.4,-1.4,20.4,0.56,0.01,-0,0.83
1697352629.12,0.03,0.22,1.16,-1.4,-1.4,20.4,0.56,0.01,-0,0.83
1697352629.13,0.03,0.22,1.16,-1.4,-1.4,20.4,0.56,0.01,-0,0.83
1697352629.14,0.03,0.22,1.16,-1.4,-1.4,20.4,0.56,0.01,-0,0.83
1697352629.15,0.03,0.22,1.16,-1.4,-1.4,20.4,0.56,0.01,-0,0.83
1697352629.16,0.03,0.22,1.16,-1.4,-1.4,20.4,0.56,0.01,-0,0.83
1697352629.17,0.03,0.22,1.16,-1.4,-1.4,20.4,0.56,0.01,-0,0.83
1697352629.18,0.03,0.22,1.16,-1.4,-1.4,20.4,0.56,0.01,-0,0.83
1697352629.19,0.03,0.22,1.16,-1.4,-1.4,20.4,0.56,0.01,-0,0.83
1697352629.2,0.03,0.22,1.16,-1.4,-1.4,20.4,0.56,0.01,-0,0.83
1697352629.21,0.14,-0.75,0.94,-5.3,-1.5,-27.7,0.56,0,-0.01,0.83
1697352629.22,0.18,-0.52,1.22,-5.3,-1.5,-27.7,0.56,0,-0.01,0.83
1697352629.23,0.23,-0.6,0.99,-5.8,-2.3,-29.5,0.57,0,-0.01,0.82
1697352629.24,0.29,-0.64,0.93,-2.4,-2.4,-29.5,0.57,0,-0.01,0.82
1697352629.25,0.05,-0.61,0.95,-0.5,-2.3,-29.7,0.57,0.01,-0.01,0.82
1697352629.26,-0.09,-0.74,0.91,-0.5,-2.3,-29.7,0.57,0.01,-0.01,0.82
1697352629.27,-0.04,-0.89,1,-0.2,-1,-31,0.58,0.01,-0.01,0.82
1697352629.28,-0.18,-0.85,1.15,-2.5,0.2,-32.5,0.58,0.01,-0.01,0.82
1697352629.29,-0.01,-0.88,0.61,-4.8,0.9,-34,0.58,0,-0.01,0.81
1697352629.3,0.11,-0.74,1.12,-6.2,1.5,-35.2,0.58,0,-0.01,0.81
1697352629.31,-0.01,-0.7,0.97,-5.7,2.4,-36.3,0.58,0,-0.01,0.81
1697352629.32,-0.02,-0.71,1.01,-2.8,2.4,-37.1,0.59,0,-0.01,0.81
1697352629.33,0.09,-0.78,0.73,0.3,2.7,-37.5,0.59,0,-0.01,0.81
1697352629.34,0.07,-1.11,1.04,1.7,2.1,-38.1,0.59,0,-0.01,0.81
1697352629.35,-0.02,-1.1,0.92,-0.7,1.7,-40.2,0.6,0,-0.01,0.8
1697352629.36,0.05,-1.04,1.08,-4.1,1.9,-41.9,0.6,0,-0.01,0.8
1697352629.37,0.05,-1.04,1.08,-4.1,1.9,-41.9,0.6,0,-0.01,0.8
1697352629.38,-0.13,-0.7,1.06,-4.5,1.2,-44.3,0.6,0,-0.01,0.8
1697352629.39,-0.13,-0.91,1.17,-0.9,1.1,-45.3,0.61,0,-0.01,0.79
1697352629.4,0.01,-0.89,0.8,-0.9,1.1,-45.3,0.61,0,-0.01,0.79
1697352629.41,0.12,-1.03,0.72,-1.3,2.1,-46.1,0.61,0,-0.01,0.79
1697352629.42,0.12,-1.03,0.72,-1.3,2.1,-46.1,0.62,0,-0.01,0.79
1697352629.43,0.04,-1.02,1.06,-3.8,2.2,-46.3,0.62,0,-0.01,0.78
1697352629.44,-0.14,-1.01,1.01,-5.2,2.6,-46.2,0.62,0,-0.01,0.78
1697352629.45,-0.24,-0.82,1.24,-5.4,2.6,-45.9,0.63,0,-0.01,0.78
1697352629.46,0.04,-0.79,0.86,-5.1,2.6,-45.9,0.63,0,-0.01,0.78
1697352629.47,-0.01,-0.84,0.93,-0.6,2.7,-45.5,0.63,0,-0.01,0.77
1697352629.48,-0.2,-0.77,1.05,1.1,2.5,-45.3,0.64,0,-0.01,0.77
1697352629.49,-0.2,-0.82,0.99,3.3,1.4,-45,0.64,0,-0.01,0.77
1697352629.5,0.03,-1.17,0.77,3.9,1,-45.8,0.64,0,-0.01,0.77
1697352629.51,-0.18,-1.08,0.95,1.3,0.7,-46.3,0.65,0,-0.01,0.76
1697352629.52,0.06,-1.05,0.49,-0.2,0.8,-46.6,0.65,0,-0.01,0.76
1697352629.53,-0.13,-0.96,1.01,-1.7,1.5,-46.5,0.65,0,-0.01,0.76
1697352629.54,-0.19,-0.95,1.28,-1.6,2.2,-46.6,0.66,0,-0.01,0.75
1697352629.55,-0.14,-0.89,1.07,-1.2,2.5,-46.7,0.66,0,-0.01,0.75
1697352629.56,-0.11,-0.91,0.94,-1.6,2.8,-46.8,0.66,0,-0.01,0.75
1697352629.57,-0.01,-0.88,0.86,-2,2.8,-46.5,0.66,0,-0.01,0.75
1697352629.58,-0.01,-0.94,0.95,-1.7,2.4,-46.5,0.67,-0,-0.01,0.74
1697352629.59,-0.03,-0.89,0.84,-0.7,1.7,-46.8,0.67,-0,-0.01,0.74
1697352629.6,-0.03,-0.89,0.84,-0.7,1.7,-46.8,0.67,-0,-0.01,0.74
1697352629.61,-0.03,-0.89,0.84,-0.7,1.7,-46.8,0.67,-0,-0.01,0.74
1697352629.62,-0.03,-0.89,0.84,-0.7,1.7,-46.8,0.67,-0,-0.01,0.74
1697352629.63,-0.03,-0.89,0.84,-0.7,1.7,-46.8,0.67,-0,-0.01,0.74
1697352629.64,-0.03,-0.89,0.84,-0.7,1.7,-46.8,0.67,-0,-0.01,0.74
1697352629.65,-0.03,-0.89,0.84,-0.7,1.7,-46.8,0.67,-0,-0.01,0.74
1697352629.66,-0.03,-0.89,0.84,-0.7,1.7,-46.8,0.67,-0,-0.01,0.74
1697352629.67,-0.03,-0.89,0.84,-0.7,1.7,-46.8,0.67,-0,-0.01,0.74
1697352629.68,-0.03,-0.89,0.84,-0.7,1.7,-46.8,0.67,-0,-0.01,0.74
1697352629.69,-0.03,-0.89,0.84,-0.7,1.7,-46.8,0.67,-0,-0.01,0.74
1697352629.7,-0.03,-0.89,0.84,-0.7,1.7,-46.8,0.67,-0,-0.01,0.74
1697352629.71,-0.03,-0.89,0.84,-0.7,1.7,-46.8,0.67,-0,-0.01,0.74
1697352629.72,-0.03,-0.89,0.84,-0.7,1.7,-46.8,0.67,-0,-0.01,0.74
1697352629.73,-0.03,-0.89,0.84,-0.7,1.7,-46.8,0.67,-0,-0.01,0.74
1697352629.74,-0.03,-0.89,0.84,-0.7,1.7,-46.8,0.67,-0,-0.01,0.74
1697352629.75,-0.03,-0.89,0.84,-0.7,1.7,-46.8,0.67,-0,-0.01,0.74
1697352629.76,-0.03,-0.89,0.84,-0.7,1.7,-46.8,0.67,-0,-0.01,0.74
1697352629.77,-0.03,-0.89,0.84,-0.7,1.7,-46.8,0.67,-0,-0.01,0.74
1697352629.78,-0.03,-0.89,0.84,-0.7,1.7,-46.8,0.67,-0,-0.01,0.74
1697352629.79,-0.03,-0.89,0.84,-0.7,1.7,-46.8,0.67,-0,-0.01,0.74
1697352629.8,-0.03,-0.89,0.84,-0.7,1.7,-46.8,0.67,-0,-0.01,0.74
1697352629.81,-0.03,-0.89,0.84,-0.7,1.7,-46.8,0.67,-0,-0.01,0.74
1697352629.82,-0.33,-0.95,1.54,0.6,2.4,-47.3,0.74,-0,-0.01,0.68
1697352629.83,0.05,-0.87,0.71,0.3,2.5,-47.2,0.74,-0,-0.01,0.67
1697352629.84,0.05,-0.87,0.71,0.3,2.5,-47.2,0.74,-0,-0.01,0.67
1697352629.85,0.01,-0.87,0.97,0.5,3,-47.5,0.74,-0,-0.01,0.67
1697352629.86,-0.02,-1.06,0.94,-0.1,3.4,-47.1,0.75,-0,-0.01,0.66
1697352629.87,-0.05,-0.85,0.92,-3.9,3.4,-47.4,0.75,-0,-0.01,0.66
1697352629.88,-0.22,-0.7,1.17,-4.5,3.5,-47.5,0.75,-0,-0.01,0.66
1697352629.89,-0.13,-0.71,0.94,-2.1,3.3,-47.7,0.76,-0,-0.01,0.65
1697352629.9,0.03,-0.93,0.52,1.4,2.5,-47.3,0.76,-0,-0.01,0.65
1697352629.91,-0.35,-1.01,1.61,2,2.3,-47.4,0.76,-0,-0.01,0.65
1697352629.92,0.04,-0.84,0.36,1.2,1.6,-47.6,0.76,-0,-0.01,0.64
1697352629.93,-0.2,-0.94,0.89,3,1.8,-47.4,0.77,-0,-0.01,0.64
1697352629.94,-0.21,-1.02,1.35,3.5,1.5,-47.1,0.77,-0,-0.01,0.64
1697352629.95,0.02,-0.92,0.56,3.6,0.6,-46.9,0.77,-0,-0.01,0.64
1697352629.96,-0.28,-0.88,1.16,2.7,0.7,-46.7,0.78,-0,-0.01,0.63
1697352629.97,-0.04,-0.93,0.72,2.2,1,-46,0.78,-0,-0.01,0.63
1697352629.98,0,-0.9,0.73,2.6,1.5,-45.7,0.78,-0,-0.01,0.63
1697352629.99,-0.36,-0.71,1.13,1.8,2.1,-45.1,0.78,-0,-0.01,0.62
1697352630,-0.05,-0.87,0.68,2.1,2.4,-43.7,0.78,-0,-0.01,0.62
1697352630.01,0.04,-0.84,0.4,0.4,3.3,-43.3,0.79,-0,-0.01,0.62
1697352630.02,-0.19,-0.83,1.31,-1.5,2.5,-43.2,0.79,-0,-0.01,0.61
1697352630.03,-0.09,-0.6,1.13,-1.9,1.5,-42.6,0.79,-0,-0.01,0.61
1697352630.04,-0.11,-0.35,1.29,-1.9,1.5,-42.6,0.79,-0,-0.01,0.61
1697352630.05,-0.09,-0.35,0.89,4.6,0.5,-39.3,0.8,-0,-0.01,0.6
1697352630.06,0.04,-0.34,0.83,7.5,0.5,-37.2,0.8,-0,-0.01,0.6
1697352630.07,-0.21,-0.43,1.3,7.7,0.9,-36.6,0.8,-0,-0.01,0.6
1697352630.08,0.04,-0.58,0.49,7.7,0.3,-34.1,0.8,-0,-0.01,0.6
1697352630.09,0.11,-0.51,0.95,6.6,0.2,-32.2,0.8,0,-0,0.59
1697352630.1,0.11,-0.51,0.95,6.6,0.2,-32.2,0.8,0,-0,0.59
1697352630.11,-0.15,-0.04,1.16,3.5,0.7,-30,0.81,0,-0,0.59
1697352630.12,-0.15,-0.04,1.16,2.8,1,-27.3,0.81,0,-0,0.59
1697352630.13,0.04,0.55,0.92,7.4,0,-19.3,0.81,0,-0,0.59
1697352630.14,0.04,0.55,0.92,7.4,0,-19.3,0.81,0,-0,0.59
1697352630.15,0.01,0.42,0.55,9.5,-1.1,-12.1,0.81,0,-0,0.59
1697352630.16,-0.39,0.5,1.71,10.4,-1.2,-6.4,0.81,0,-0,0.59
1697352630.17,-0.3,0.67,1.29,9.1,-1,-0.4,0.81,0,-0,0.59
1697352630.18,-0.3,0.67,1.29,6.9,-0.2,5.2,0.81,0,-0,0.59
1697352630.19,-0.24,0.83,1.24,5.2,0,10.3,0.81,0.01,-0,0.59
1697352630.2,-0.06,0.88,1.18,5.3,0,14.5,0.81,0.01,-0,0.59
1697352630.21,-0.06,0.88,1.18,5.3,0,14.5,0.81,0.01,-0,0.59
1697352630.22,-0.06,0.88,1.18,5.3,0,14.5,0.81,0.01,-0,0.59
1697352630.23,-0.06,0.88,1.18,5.3,0,14.5,0.81,0.01,-0,0.59
1697352630.24,-0.06,0.88,1.18,5.3,0,14.5,0.81,0.01,-0,0.59
1697352630.25,-0.06,0.88,1.18,5.3,0,14.5,0.81,0.01,-0,0.59
1697352630.26,-0.06,0.88,1.18,5.3,0,14.5,0.81,0.01,-0,0.59
1697352630.27,-0.06,0.88,1.18,5.3,0,14.5,0.81,0.01,-0,0.59
1697352630.28,-0.06,0.88,1.18,5.3,0,14.5,0.81,0.01,-0,0.59
1697352630.29,-0.06,0.88,1.18,5.3,0,14.5,0.81,0.01,-0,0.59
1697352630.3,-0.06,0.88,1.18,5.3,0,14.5,0.81,0.01,-0,0.59
1697352630.31,-0.06,0.88,1.18,5.3,0,14.5,0.81,0.01,-0,0.59
1697352630.32,-0.06,0.88,1.18,5.3,0,14.5,0.81,0.01,-0,0.59
1697352630.33,-0.06,0.88,1.18,5.3,0,14.5,0.81,0.01,-0,0.59
1697352630.34,-0.06,0.88,1.18,5.3,0,14.5,0.81,0.01,-0,0.59
1697352630.35,-0.06,0.88,1.18,5.3,0,14.5,0.81,0.01,-0,0.59
1697352630.36,-0.06,0.88,1.18,5.3,0,14.5,0.81,0.01,-0,0.59
1697352630.37,-0.06,0.88,1.18,5.3,0,14.5,0.81,0.01,-0,0.59
1697352630.38,-0.06,0.88,1.18,5.3,0,14.5,0.81,0.01,-0,0.59
1697352630.39,-0.06,0.88,1.18,5.3,0,14.5,0.81,0.01,-0,0.59
1697352630.4,-0.06,0.88,1.18,5.3,0,14.5,0.81,0.01,-0,0.59
1697352630.41,-0.06,0.88,1.18,5.3,0,14.5,0.81,0.01,-0,0.59
1697352630.42,-0.06,0.88,1.18,5.3,0,14.5,0.81,0.01,-0,0.59
1697352630.43,-0.06,0.88,1.18,5.3,0,14.5,0.81,0.01,-0,0.59
1697352630.44,-0.3,0.6,0.97,3.6,-1.5,45.5,0.76,0.01,0,0.65
1697352630.45,-0.19,0.76,1.06,0.3,-0.7,45.9,0.76,0.01,0,0.65
1697352630.46,-0.05,0.82,0.58,-2.5,0.1,46.3,0.75,0.01,0,0.66
1697352630.47,-0.05,0.82,0.58,-2.5,0.1,46.3,0.75,0.01,0,0.66
1697352630.48,-0.27,0.99,1.07,-3.6,1,46.9,0.75,0.01,0,0.66
1697352630.49,-0.21,1.2,1.24,-3.6,1,46.9,0.75,0.01,0,0.66
1697352630.5,-0.05,1.15,0.48,-1,1.7,48,0.75,0.01,0,0.67
1697352630.51,-0.3,0.83,1.32,3.4,2.4,48.8,0.74,0.01,0,0.67
1697352630.52,-0.3,0.83,1.32,6.4,2.7,49.9,0.74,0.01,0,0.67
1697352630.53,-0.03,0.72,0.84,5.9,2.5,50.2,0.74,0.01,0,0.68
1697352630.54,-0.04,0.73,0.68,1.6,2.8,50,0.73,0.01,0,0.68
1697352630.55,-0.27,0.97,1.32,-2.4,3.1,50.1,0.73,0.01,0,0.68
1697352630.56,-0.02,1.05,0.75,-4.2,3,50.7,0.73,0.01,0,0.69
1697352630.57,0.04,1.22,0.93,-1.1,3,51,0.72,0.01,0,0.69
1697352630.58,-0.17,1.01,1.01,5.4,2.2,52.3,0.72,0.01,0,0.69
1697352630.59,-0.19,0.88,1.17,4.5,1.9,52.2,0.72,0.01,0,0.7
1697352630.6,0.01,0.71,0.86,4.5,1.9,52.2,0.72,0.01,0,0.7
1697352630.61,-0.23,0.76,1.26,-1.6,0,51.7,0.71,0.01,0,0.7
1697352630.62,-0.14,0.8,1.3,-3.9,-0.3,51.5,0.71,0.01,0,0.71
1697352630.63,0.06,0.97,0.25,-2.9,-0.3,50.9,0.71,0.01,0,0.71
1697352630.64,-0.38,0.86,1.24,-1.7,-0.4,50.6,0.7,0.01,0,0.71
1697352630.65,-0.1,0.97,0.67,0,0.4,50.3,0.7,0.01,0,0.72
1697352630.66,-0.32,1.08,0.95,1.8,0.4,50.7,0.7,0.01,0,0.72
1697352630.67,-0.29,0.97,1.14,2.2,0.6,50.8,0.69,0.01,0,0.72
1697352630.68,-0.21,0.87,1.25,1.5,0.6,50.9,0.69,0.01,0,0.73
1697352630.69,-0.13,0.78,0.69,-1.4,0.2,51.3,0.69,0.01,0,0.73
1697352630.7,-0.36,0.99,1.56,-2.3,0.6,51.6,0.68,0.01,0,0.73
1697352630.71,-0.04,1.04,0.67,-0.8,0.9,52.3,0.68,0.01,0,0.73
1697352630.72,-0.14,0.97,0.88,0.5,0.5,52.7,0.68,0.01,0,0.74
1697352630.73,-0.29,0.93,1.45,0.5,0.5,52.7,0.68,0.01,0,0.74
1697352630.74,-0.14,0.84,0.84,-0.3,1.4,53.1,0.67,0.01,0,0.74
1697352630.75,-0.14,0.85,0.99,-0.3,1.4,53.1,0.67,0.01,0,0.74
1697352630.76,-0.16,0.92,1.03,-1.2,2.5,52.7,0.66,0.01,0,0.75
1697352630.77,-0.1,1.09,1.12,-1.2,2.5,52.7,0.66,0.01,0,0.75
1697352630.78,0.11,1.07,0.88,3.2,0.9,53.5,0.65,0.01,0,0.76
1697352630.79,0.13,0.8,1.47,3.6,-0.5,52.8,0.65,0.01,0,0.76
1697352630.8,0.25,0.71,0.92,-0.1,-2.1,53.2,0.65,0.01,0,0.76
1697352630.81,0.04,0.55,1.32,-4.3,-2.6,53,0.64,0.01,0,0.77
1697352630.82,0.14,0.75,0.68,-4.3,-2.6,53,0.64,0.01,0,0.77
1697352630.83,0.14,0.75,0.68,-7.1,-2.8,52.5,0.64,0.01,0,0.77
1697352630.84,0.14,0.75,0.68,-7.1,-2.8,52.5,0.64,0.01,0,0.77
1697352630.85,0.14,0.75,0.68,-7.1,-2.8,52.5,0.64,0.01,0,0.77
1697352630.86,0.14,0.75,0.68,-7.1,-2.8,52.5,0.64,0.01,0,0.77
1697352630.87,0.14,0.75,0.68,-7.1,-2.8,52.5,0.64,0.01,0,0.77
1697352630.88,0.14,0.75,0.68,-7.1,-2.8,52.5,0.64,0.01,0,0.77
1697352630.89,0.14,0.75,0.68,-7.1,-2.8,52.5,0.64,0.01,0,0.77
1697352630.9,0.14,0.75,0.68,-7.1,-2.8,52.5,0.64,0.01,0,0.77
1697352630.91,0.14,0.75,0.68,-7.1,-2.8,52.5,0.64,0.01,0,0.77
1697352630.92,0.14,0.75,0.68,-7.1,-2.8,52.5,0.64,0.01,0,0.77
1697352630.93,0.14,0.75,0.68,-7.1,-2.8,52.5,0.64,0.01,0,0.77
1697352630.94,0.14,0.75,0.68,-7.1,-2.8,52.5,0.64,0.01,0,0.77
1697352630.95,0.14,0.75,0.68,-7.1,-2.8,52.5,0.64,0.01,0,0.77
1697352630.96,0.02,0.31,0.94,0.7,2.3,46.2,0.59,0.01,0,0.8
1697352630.97,-0.03,0.12,0.89,-1.7,2.1,43.6,0.59,0.01,0,0.81
1697352630.98,-0.04,0.37,1.36,-6.3,1.7,40.6,0.59,0.01,0,0.81
1697352630.99,0.14,0.46,0.4,-8.1,1.1,37.4,0.59,0.01,0,0.81
1697352631,-0.11,0.67,0.97,-6.4,0.6,34.7,0.58,0.01,-0,0.81
1697352631.01,-0.01,0.63,1.14,-2.2,-0.3,32.5,0.58,0.01,-0,0.81
1697352631.02,0.18,0.43,0.28,2.3,-0.3,31.1,0.58,0.01,0,0.82
1697352631.03,-0.13,0.39,1.3,1.4,0,28.2,0.58,0.01,0,0.82
1697352631.04,0.05,0.18,0.84,-1.9,0.6,26.7,0.57,0.01,0,0.82
1697352631.05,0.04,0.08,0.91,-5.7,1.2,25.1,0.57,0.01,-0,0.82
1697352631.06,0.11,0.27,0.8,-6.7,1.9,23.4,0.57,0.01,-0,0.82
1697352631.07,-0.17,0.28,1.2,-5.2,3.1,21.8,0.57,0.01,-0,0.82
1697352631.08,-0.03,0.12,1.04,-2.9,3.4,20,0.57,0.01,-0,0.82
1697352631.09,-0.07,-0.05,0.76,-2.9,3.4,20,0.57,0.01,-0,0.82
1697352631.1,-0.07,-0.23,1.04,-2.7,3.4,17.1,0.57,0,-0,0.82
1697352631.11,-0.03,-0.09,1.33,-5.1,2.3,13.8,0.56,0,-0,0.83
1697352631.12,-0.03,-0.2,1.3,-5.3,0.8,10,0.56,0,-0,0.83
1697352631.13,-0.15,-0.12,0.57,-4.8,0.1,7.6,0.56,0,-0,0.83
1697352631.14,-0.04,-0.15,0.92,-4.7,0,5.3,0.56,0,-0,0.83
1697352631.15,-0.5,-0.32,1.27,-4.7,0,5.3,0.56,0,-0,0.83
1697352631.16,-0.44,-0.35,0.34,-3.7,1,0.6,0.56,0,-0,0.83
1697352631.17,-0.44,-0.35,0.34,-3.7,1,0.6,0.56,0,-0,0.83
1697352631.18,-0.28,-0.77,0.74,-5.9,1.8,-5.8,0.56,0,-0,0.83
1697352631.19,-0.28,-0.77,0.74,-5.9,1.8,-5.8,0.56,0,-0,0.83
1697352631.2,-0.02,-0.58,1.28,-7.2,0.8,-10.3,0.56,0,-0,0.83
1697352631.21,0.16,-0.69,0.72,-7.4,0.8,-12.2,0.56,0,-0,0.83
1697352631.22,-0.09,-0.79,1.35,-6.9,0.2,-16.5,0.57,0,-0.01,0.83
1697352631.23,-0.07,-0.88,0.46,-6.1,-0.6,-20.6,0.57,0,-0.01,0.82
1697352631.24,-0.27,-0.97,1.51,-5.5,-1,-24.6,0.57,0,-0.01,0.82
1697352631.25,-0.01,-0.97,0.35,-6.4,-2.4,-29.1,0.57,-0,-0.01,0.82
1697352631.26,-0.08,-1.06,1.42,-6.4,-2.4,-29.1,0.57,-0,-0.01,0.82
1697352631.27,-0.41,-0.88,1.18,-9.2,-1.8,-36.3,0.58,-0,-0.01,0.82
1697352631.28,0.07,-0.8,0.82,-9.9,-1.8,-39.2,0.58,-0,-0.01,0.82
1697352631.29,-0.02,-0.77,0.68,-8,-1.2,-41.3,0.58,-0,-0.01,0.81
1697352631.3,-0.24,-0.89,1.47,-5.7,-1.5,-42.5,0.59,-0,-0.01,0.81
1697352631.31,-0.02,-0.83,0.25,-4.3,-1.6,-43.3,0.59,-0,-0.01,0.81
1697352631.32,-0.12,-0.85,1.55,-3.8,-1.1,-43.6,0.59,-0,-0.01,0.81
1697352631.33,0.09,-0.82,0.54,-3.1,-1.2,-43.3,0.59,-0,-0.01,0.8
1697352631.34,-0.17,-0.82,1.09,-2.2,-0.9,-42.5,0.59,-0,-0.01,0.8
1697352631.35,-0.14,-0.86,0.67,-1.7,-1,-42,0.6,-0,-0.01,0.8
1697352631.36,-0.14,-0.86,0.67,-1.7,-1,-42,0.6,-0,-0.01,0.8
1697352631.37,-0.14,-0.86,0.67,-1.7,-1,-42,0.6,-0,-0.01,0.8
1697352631.38,-0.14,-0.86,0.67,-1.7,-1,-42,0.6,-0,-0.01,0.8
1697352631.39,-0.14,-0.86,0.67,-1.7,-1,-42,0.6,-0,-0.01,0.8
1697352631.4,-0.14,-0.86,0.67,-1.7,-1,-42,0.6,-0,-0.01,0.8
1697352631.41,-0.14,-0.86,0.67,-1.7,-1,-42,0.6,-0,-0.01,0.8
1697352631.42,-0.14,-0.86,0.67,-1.7,-1,-42,0.6,-0,-0.01,0.8
1697352631.43,-0.14,-0.86,0.67,-1.7,-1,-42,0.6,-0,-0.01,0.8
1697352631.44,-0.14,-0.86,0.67,-1.7,-1,-42,0.6,-0,-0.01,0.8
1697352631.45,-0.14,-0.86,0.67,-1.7,-1,-42,0.6,-0,-0.01,0.8
1697352631.46,-0.14,-0.86,0.67,-1.7,-1,-42,0.6,-0,-0.01,0.8
1697352631.47,-0.14,-0.86,0.67,-1.7,-1,-42,0.6,-0,-0.01,0.8
1697352631.48,-0.14,-0.86,0.67,-1.7,-1,-42,0.6,-0,-0.01,0.8
1697352631.49,-0.23,-0.8,1.31,0.7,-2.3,-51.6,0.64,-0,-0.01,0.77
1697352631.5,-0.07,-0.88,0.96,-0.6,-2.3,-51.5,0.65,-0,-0.01,0.76
1697352631.51,-0.13,-0.8,0.41,-1.2,-1.3,-51,0.65,-0,-0.01,0.76
1697352631.52,-0.2,-0.95,1.34,-2.1,-0.2,-50.6,0.65,-0,-0.01,0.76
1697352631.53,-0.26,-0.97,1.41,-2.4,0,-50.5,0.66,-0,-0.01,0.75
1697352631.54,-0.09,-0.92,0.44,-2.9,1.2,-50.4,0.66,-0,-0.01,0.75
1697352631.55,-0.29,-0.93,1.76,-2.1,2,-50.5,0.66,-0,-0.01,0.75
1697352631.56,-0.23,-1.03,0.79,0,2.1,-51.2,0.67,-0,-0.01,0.74
1697352631.57,-0.23,-1.03,1.17,1.1,2.8,-52.4,0.67,-0,-0.01,0.74
1697352631.58,-0.19,-1.09,0.76,1.3,2.9,-53.5,0.67,-0,-0.01,0.74
1697352631.59,-0.21,-1.22,1.42,0.2,2.8,-54.5,0.68,-0,-0.01,0.73
1697352631.6,-0.31,-1.01,0.76,-1.9,2.6,-55.8,0.68,-0,-0.01,0.73
1697352631.61,-0.13,-1.05,0.78,-3.7,1.9,-56.6,0.69,-0,-0.01,0.73
1697352631.62,-0.44,-0.8,1.39,-4.2,1.7,-57,0.69,-0,-0.01,0.72
1697352631.63,-0.26,-0.77,0.98,-2.7,0.9,-56.9,0.69,-0,-0.01,0.72
1697352631.64,-0.14,-0.85,0.83,0.3,0.8,-56.8,0.7,-0,-0.01,0.72
1697352631.65,-0.22,-0.97,1.11,2.3,0.9,-56.6,0.7,-0,-0.01,0.71
1697352631.66,-0.11,-1.1,1.22,2.2,0.6,-56.8,0.7,-0,-0.01,0.71
1697352631.67,-0.14,-1.03,0.72,0,0.3,-56.9,0.71,-0,-0.01,0.71
1697352631.68,-0.27,-0.94,1.32,-2.1,0.3,-57.3,0.71,-0,-0.01,0.7
1697352631.69,-0,-0.82,0.57,-1.6,0,-57.3,0.71,-0,-0.01,0.7
1697352631.7,-0.15,-0.87,1.34,1,-0.1,-57,0.72,-0,-0.01,0.7
1697352631.71,-0.19,-0.92,0.7,4.2,-0.1,-56.6,0.72,-0,-0.01,0.69
1697352631.72,-0.17,-1.04,0.77,4.8,0.2,-56.3,0.73,-0,-0.01,0.69
1697352631.73,-0.05,-1.08,1.12,2.7,0.9,-56.4,0.73,-0,-0.01,0.69
1697352631.74,-0.29,-0.94,1.01,1.1,1.7,-56.1,0.73,-0,-0.01,0.69
1697352631.75,-0.19,-0.94,1.05,0.5,2.6,-56,0.74,-0,-0.01,0.68
1697352631.76,-0.28,-0.88,0.96,0.5,2.6,-56,0.74,-0,-0.01,0.68
1697352631.77,-0.14,-0.96,0.81,0,3.3,-55.8,0.74,-0,-0.01,0.67
1697352631.78,-0.28,-0.93,1.19,0,4.2,-55.1,0.74,-0,-0.01,0.67
1697352631.79,-0.14,-0.89,0.83,-0.7,3.7,-55.2,0.75,-0,-0.01,0.67
1697352631.8,-0.23,-0.98,1.22,-0.7,3.7,-55.2,0.75,-0,-0.01,0.66
1697352631.81,0.02,-0.78,0.81,-1.7,1.3,-55.3,0.75,-0,-0.01,0.66
1697352631.82,0.02,-0.78,0.81,-1.7,1.3,-55.3,0.76,-0,-0.01,0.66
1697352631.83,-0.06,-0.79,0.72,-0.2,-0.8,-55.7,0.76,-0,-0.01,0.65
1697352631.84,-0.1,-0.88,1.26,2.4,-2.6,-55.9,0.76,-0,-0.01,0.65
1697352631.85,-0.1,-0.95,1,1.6,-2.2,-55.9,0.77,-0,-0.01,0.64
1697352631.86,-0.34,-0.92,1.13,0.6,-2.2,-55.8,0.77,-0,-0.01,0.64
1697352631.87,-0.42,-0.88,1.38,0.7,-1.7,-55.6,0.77,-0,-0.01,0.64
1697352631.88,0.11,-0.83,0.51,0.7,-1.7,-55.6,0.77,-0,-0.01,0.64
1697352631.89,0.11,-0.83,0.51,0.7,-1.7,-55.6,0.77,-0,-0.01,0.64
1697352631.9,0.11,-0.83,0.51,0.7,-1.7,-55.6,0.77,-0,-0.01,0.64
1697352631.91,0.11,-0.83,0.51,0.7,-1.7,-55.6,0.77,-0,-0.01,0.64
1697352631.92,0.11,-0.83,0.51,0.7,-1.7,-55.6,0.77,-0,-0.01,0.64
1697352631.93,0.11,-0.83,0.51,0.7,-1.7,-55.6,0.77,-0,-0.01,0.64
1697352631.94,0.11,-0.83,0.51,0.7,-1.7,-55.6,0.77,-0,-0.01,0.64
1697352631.95,0.11,-0.83,0.51,0.7,-1.7,-55.6,0.77,-0,-0.01,0.64
1697352631.96,0.11,-0.83,0.51,0.7,-1.7,-55.6,0.77,-0,-0.01,0.64
1697352631.97,0.11,-0.83,0.51,0.7,-1.7,-55.6,0.77,-0,-0.01,0.64
1697352631.98,0.11,-0.83,0.51,0.7,-1.7,-55.6,0.77,-0,-0.01,0.64
1697352631.99,0.11,-0.83,0.51,0.7,-1.7,-55.6,0.77,-0,-0.01,0.64
1697352632,0.11,-0.83,0.51,0.7,-1.7,-55.6,0.77,-0,-0.01,0.64
1697352632.01,0.29,-0.02,0.85,2.1,-1.5,-20.9,0.81,0,-0.01,0.59
1697352632.02,0.26,-0.13,1.26,4,-2.2,-18.1,0.81,0,-0.01,0.59
1697352632.03,0.12,0.22,0.8,4.9,-2,-15.2,0.81,0,-0.01,0.59
1697352632.04,0.15,0.21,0.84,6.5,-1.4,-12.1,0.81,0,-0.01,0.59
1697352632.05,0.15,0.42,0.47,11,-0.5,-10.1,0.81,0,-0.01,0.59
1697352632.06,-0.04,0.57,0.76,12.6,0.3,-6.1,0.81,0.01,-0.01,0.59
1697352632.07,-0.05,0.34,1.41,11.9,0.7,-2.5,0.81,0.01,-0.01,0.59
1697352632.08,0.12,0.58,1,6.7,0.9,2.4,0.81,0.01,-0.01,0.59
1697352632.09,0.25,0.76,1.01,6.7,0.9,2.4,0.81,0.01,-0.01,0.59
1697352632.1,0.18,0.81,1.12,4.7,0.7,7.2,0.81,0.01,-0,0.59
1697352632.11,0.18,1.02,1.07,5.2,-0.1,11.6,0.81,0.01,-0,0.59
1697352632.12,0.25,0.85,1.08,6.3,-1.1,16.2,0.81,0.01,-0,0.59
1697352632.13,0.2,0.63,1.14,7.2,-2.2,20,0.81,0.01,-0,0.59
1697352632.14,0.18,0.57,0.65,5.6,-3.6,22.4,0.81,0.01,-0,0.59
1697352632.15,0.02,0.54,1.39,2.3,-4.2,24.4,0.81,0.01,-0,0.59
1697352632.16,0.01,0.67,0.9,-0.1,-4.1,25.2,0.8,0.01,-0,0.59
1697352632.17,0.01,0.67,0.9,-0.1,-4.1,25.2,0.8,0.01,-0.01,0.6
1697352632.18,-0.15,0.61,1.25,-1.1,-3.2,26.4,0.8,0.01,-0.01,0.6
1697352632.19,-0.01,0.65,1.53,0.2,-2.2,27.2,0.8,0.01,-0.01,0.6
1697352632.2,0.26,0.51,0.86,1.1,-1.5,27.6,0.8,0.01,-0.01,0.6
1697352632.21,0.14,0.5,0.96,0.9,-1.6,27.3,0.8,0.01,-0.01,0.6
1697352632.22,0.29,0.52,0.98,-0.2,-1.3,25.5,0.8,0.01,-0.01,0.61
1697352632.23,0.16,0.55,1.31,0.9,-1.1,24.4,0.79,0.01,-0.01,0.61
1697352632.24,0.2,0.46,0.94,0.3,-0.8,23.7,0.79,0.01,-0.01,0.61
1697352632.25,0.2,0.45,0.97,-1.6,-0.4,23.6,0.79,0.01,-0.01,0.61
1697352632.26,0.18,0.49,0.63,-4.4,0.7,24.8,0.79,0.01,-0.01,0.61
1697352632.27,-0.03,0.69,0.89,-4.4,0.7,24.8,0.79,0.01,-0.01,0.61
1697352632.28,0.13,0.58,0.88,-4.3,1.1,26.3,0.79,0.01,-0.01,0.62
1697352632.29,0.02,0.53,0.86,-2.4,1.9,27.8,0.79,0.01,-0.01,0.62
1697352632.3,0.03,0.59,1.23,-1,2.4,29.5,0.78,0.01,-0.01,0.62
1697352632.31,0.25,0.43,0.89,-1,2.4,29.5,0.78,0.01,-0.01,0.62
1697352632.32,0.01,0.42,1.28,0.5,1.8,31.9,0.78,0.01,-0.01,0.63
1697352632.33,0.35,0.41,0.76,0.8,0.2,32.2,0.78,0.01,-0.01,0.63
1697352632.34,0.1,0.42,1.13,0.6,-0.6,32.2,0.78,0.01,-0.01,0.63
1697352632.35,0.14,0.49,1.11,-0.6,-1.2,32.1,0.77,0.01,-0.01,0.63
1697352632.36,0.08,0.72,1.34,-0.4,-0.9,31.8,0.77,0.01,-0.01,0.63
1697352632.37,0.03,0.66,0.69,2.1,-0.9,32,0.77,0.01,-0.01,0.64
1697352632.38,-0.07,0.54,1.2,6,-1,32,0.77,0.01,-0.01,0.64
1697352632.39,-0.07,0.54,1.2,6,-1,32,0.77,0.01,-0.01,0.64
1697352632.4,-0.07,0.54,1.2,6,-1,32,0.77,0.01,-0.01,0.64
1697352632.41,-0.07,0.54,1.2,6,-1,32,0.77,0.01,-0.01,0.64
1697352632.42,-0.07,0.54,1.2,6,-1,32,0.77,0.01,-0.01,0.64
1697352632.43,-0.07,0.54,1.2,6,-1,32,0.77,0.01,-0.01,0.64
1697352632.44,-0.07,0.54,1.2,6,-1,32,0.77,0.01,-0.01,0.64
1697352632.45,-0.07,0.54,1.2,6,-1,32,0.77,0.01,-0.01,0.64
1697352632.46,-0.07,0.54,1.2,6,-1,32,0.77,0.01,-0.01,0.64
1697352632.47,-0.07,0.54,1.2,6,-1,32,0.77,0.01,-0.01,0.64
1697352632.48,-0.07,0.54,1.2,6,-1,32,0.77,0.01,-0.01,0.64
1697352632.49,-0.07,0.54,1.2,6,-1,32,0.77,0.01,-0.01,0.64
1697352632.5,-0.07,0.54,1.2,6,-1,32,0.77,0.01,-0.01,0.64
1697352632.51,0.17,0.51,0.69,-0.8,0.3,30.8,0.75,0.01,-0.01,0.67
1697352632.52,-0.04,0.59,1.43,-0.8,0.3,30.8,0.75,0.01,-0.01,0.67
1697352632.53,0.12,0.44,0.98,0.3,0.1,31.6,0.74,0.01,-0.01,0.67
1697352632.54,0.12,0.44,0.98,0.3,0.1,31.6,0.74,0.01,-0.01,0.67
1697352632.55,0.13,0.56,1.39,2.3,0.3,31.6,0.74,0.01,-0.01,0.67
1697352632.56,0.25,0.43,0.78,3.7,0.5,31.7,0.74,0.01,-0.01,0.67
1697352632.57,0.04,0.39,1.08,3.4,1,31.7,0.74,0.01,-0.01,0.68
1697352632.58,0.02,0.51,1.29,1.7,1,31.3,0.73,0.01,-0.01,0.68
1697352632.59,0.11,0.54,0.56,0.7,1.5,31.2,0.73,0.01,-0.01,0.68
1697352632.6,-0.05,0.54,1.17,0.3,2.2,31.5,0.73,0.01,-0.01,0.68
1697352632.61,0.12,0.6,1.02,0.3,2.2,31.5,0.73,0.01,-0.01,0.68
1697352632.62,0.26,0.64,0.81,0.5,1.1,31.4,0.73,0.01,-0.01,0.68
1697352632.63,0.02,0.68,0.83,0.3,0.4,31.6,0.73,0.01,-0.01,0.69
1697352632.64,-0.06,0.48,1,1.2,-0.5,31.5,0.72,0.01,-0.01,0.69
1697352632.65,0.2,0.49,0.6,0,-1.2,31.2,0.72,0.01,-0.01,0.69
1697352632.66,0.1,0.59,0.69,-1.4,-1.3,30.6,0.72,0.01,-0.01,0.69
1697352632.67,-0.02,0.57,1.28,-0.7,-1.6,30.3,0.72,0.01,-0.01,0.69
1697352632.68,0.17,0.51,0.91,0,-0.8,29.9,0.72,0.01,-0.01,0.7
1697352632.69,0.14,0.5,0.62,0.6,0,29.8,0.71,0.01,-0.01,0.7
1697352632.7,0,0.49,1.3,0.5,0.7,29.9,0.71,0.01,-0.01,0.7
1697352632.71,0.18,0.45,0.81,1.5,2,29.3,0.71,0.01,-0.01,0.7
1697352632.72,0.03,0.4,0.85,1.4,2.8,29.4,0.71,0.01,-0.01,0.71
1697352632.73,-0.2,0.38,1.68,1,2.9,28.6,0.71,0.01,-0.01,0.71
1697352632.74,0.16,0.28,0.83,0,3.3,27.7,0.7,0.01,-0,0.71
1697352632.75,0.05,0.34,1.13,-1.8,2.9,26.6,0.7,0.01,-0,0.71
1697352632.76,-0.06,0.28,1.27,-1.7,2.4,25.2,0.7,0.01,-0,0.71
1697352632.77,0.18,0.38,0.73,-1,2.3,24.1,0.7,0.01,-0,0.71
1697352632.78,0.26,0.33,0.48,-0.5,1.7,22.5,0.7,0.01,-0,0.72
1697352632.79,-0.14,0.33,1,-0.5,1.7,22.5,0.7,0.01,-0,0.72
1697352632.8,-0.07,0.21,1.19,-1.3,0.7,20.2,0.7,0.01,-0,0.72
1697352632.81,0.15,0.31,0.24,-1.2,0.9,18.9,0.69,0.01,-0,0.72
1697352632.82,-0.19,0.35,1.27,0,0.9,18.3,0.69,0.01,-0,0.72
1697352632.83,-0.19,0.35,1.27,0,0.9,18.3,0.69,0.01,-0,0.72
1697352632.84,0.03,0.33,0.87,1.3,1.3,18.1,0.69,0.01,-0,0.72
1697352632.85,0.04,0.23,0.84,1.7,1.1,18,0.69,0.01,-0,0.72
1697352632.86,-0.08,0.25,1.13,1.1,1.8,17.4,0.69,0.01,-0,0.73
1697352632.87,-0.08,0.25,1.13,1.1,1.8,17.4,0.69,0.01,-0,0.73
1697352632.88,-0.2,0.28,1.6,-0.9,2,17.5,0.69,0.01,-0,0.73
1697352632.89,-0.2,0.28,1.6,-0.9,2,17.5,0.69,0.01,-0,0.73
1697352632.9,-0.2,0.28,1.6,-0.9,2,17.5,0.69,0.01,-0,0.73
1697352632.91,-0.2,0.28,1.6,-0.9,2,17.5,0.69,0.01,-0,0.73
1697352632.92,-0.2,0.28,1.6,-0.9,2,17.5,0.69,0.01,-0,0.73
1697352632.93,-0.2,0.28,1.6,-0.9,2,17.5,0.69,0.01,-0,0.73
1697352632.94,-0.2,0.28,1.6,-0.9,2,17.5,0.69,0.01,-0,0.73
1697352632.95,-0.2,0.28,1.6,-0.9,2,17.5,0.69,0.01,-0,0.73
1697352632.96,-0.2,0.28,1.6,-0.9,2,17.5,0.69,0.01,-0,0.73
1697352632.97,-0.2,0.28,1.6,-0.9,2,17.5,0.69,0.01,-0,0.73
1697352632.98,-0.2,0.28,1.6,-0.9,2,17.5,0.69,0.01,-0,0.73
1697352632.99,-0.2,0.28,1.6,-0.9,2,17.5,0.69,0.01,-0,0.73
1697352633,-0.2,0.28,1.6,-0.9,2,17.5,0.69,0.01,-0,0.73
1697352633.01,-0.2,0.28,1.6,-0.9,2,17.5,0.69,0.01,-0,0.73
1697352633.02,-0.2,0.28,1.6,-0.9,2,17.5,0.69,0.01,-0,0.73
1697352633.03,-0.2,0.28,1.6,-0.9,2,17.5,0.69,0.01,-0,0.73
1697352633.04,0.15,0.27,0.86,1,1.6,15.8,0.67,0.01,-0,0.74
1697352633.05,-0.19,0.26,1.32,1.3,2.4,15.8,0.67,0.01,-0,0.74
1697352633.06,0.13,0.23,1.12,1.2,2.6,15.7,0.67,0.01,-0,0.74
1697352633.07,0.19,0.26,0.67,0.2,2.6,15.6,0.67,0.01,-0,0.74
1697352633.08,-0.06,0.33,1.19,-0.9,2.4,15.6,0.67,0.01,-0,0.75
1697352633.09,-0.01,0.32,1.23,-1.5,1.7,15.8,0.67,0.01,-0,0.75
1697352633.1,0.04,0.36,0.66,-1.4,0.9,16,0.66,0.01,-0,0.75
1697352633.11,-0.11,0.32,1.41,-1.7,0.2,16.1,0.66,0,-0,0.75
1697352633.12,-0.17,0.25,1.42,-1.5,-1.3,15.9,0.66,0.01,-0,0.75
1697352633.13,0.17,0.23,0.58,-1,-2.4,15.6,0.66,0.01,-0,0.75
1697352633.14,-0.09,0.23,1.1,0,-2.4,15.4,0.66,0.01,-0,0.75
1697352633.15,0.02,0.15,0.95,1.4,-2.2,14.8,0.66,0.01,-0,0.75
1697352633.16,0.11,0.13,0.77,1.2,-1.9,14.1,0.66,0.01,-0,0.75
1697352633.17,0.08,0.2,1.04,1.4,-1.8,13.4,0.66,0.01,-0,0.75
1697352633.18,-0.17,0.22,1.35,0.2,-0.9,13.4,0.66,0.01,-0,0.75
1697352633.19,0.15,0.12,0.64,0.1,0,13.2,0.66,0.01,-0,0.76
1697352633.2,-0.13,0.19,1.22,0.4,0.5,13,0.65,0.01,-0,0.76
1697352633.21,-0.09,0.29,1.27,-0.9,1.7,13.2,0.65,0.01,-0,0.76
1697352633.22,-0.18,0.32,1.62,-2.6,1.8,13.8,0.65,0.01,-0,0.76
1697352633.23,-0.18,0.32,1.62,-1.6,1.5,14.2,0.65,0.01,-0,0.76
1697352633.24,0.2,0.24,0.76,-0.1,0.2,14.5,0.65,0.01,-0,0.76
1697352633.25,-0.02,0.17,1.22,-0.1,0.2,14.5,0.65,0.01,-0,0.76
1697352633.26,-0.08,0.21,1.24,-1.3,-1.7,14.6,0.65,0.01,-0,0.76
1697352633.27,-0.08,0.21,1.24,-1.3,-1.7,14.6,0.65,0.01,-0,0.76
1697352633.28,0.05,0.29,1.02,-2.5,-2,14.4,0.65,0.01,-0,0.76
1697352633.29,0.24,0.41,0.8,-2.5,-1.7,14,0.65,0.01,-0,0.76
1697352633.3,-0.06,0.23,1.16,-0.7,-1.8,14,0.65,0.01,-0,0.76
1697352633.31,-0.06,0.23,1.16,2.3,-1.7,13.9,0.64,0.01,-0,0.76
1697352633.32,0.24,0.08,0.53,2.9,-1.4,13.9,0.64,0.01,-0,0.77
1697352633.33,0.19,0.14,0.58,0.5,-1,13.9,0.64,0.01,-0,0.77
1697352633.34,-0.03,0.32,0.93,-0.7,0.1,14.6,0.64,0.01,-0,0.77
1697352633.35,-0.06,0.3,1.37,-0.1,-0.2,15.1,0.64,0.01,-0,0.77
1697352633.36,0.18,0.27,0.56,-0.1,-0.2,15.1,0.64,0.01,-0,0.77
1697352633.37,-0.04,0.3,1.13,-0.2,-0.3,15.5,0.64,0.01,-0,0.77
1697352633.38,-0.07,0.32,1.47,-1,-1,15.7,0.64,0.01,-0,0.77
1697352633.39,0.22,0.3,0.77,-0.5,-1.2,15.9,0.64,0.01,-0,0.77
1697352633.4,0.11,0.32,0.89,-1.6,-1.4,16.2,0.64,0.01,-0.01,0.77
1697352633.41,0.22,0.41,0.63,-1.7,-0.8,16.4,0.63,0.01,-0.01,0.77
1697352633.42,-0.14,0.58,1.33,-1.7,-0.8,16.4,0.63,0.01,-0.01,0.77
1697352633.43,-0.14,0.58,1.33,-1.7,-0.8,16.4,0.63,0.01,-0.01,0.77
1697352633.44,-0.14,0.58,1.33,-1.7,-0.8,16.4,0.63,0.01,-0.01,0.77
1697352633.45,-0.14,0.58,1.33,-1.7,-0.8,16.4,0.63,0.01,-0.01,0.77
1697352633.46,-0.14,0.58,1.33,-1.7,-0.8,16.4,0.63,0.01,-0.01,0.77
1697352633.47,-0.14,0.58,1.33,-1.7,-0.8,16.4,0.63,0.01,-0.01,0.77
1697352633.48,-0.14,0.58,1.33,-1.7,-0.8,16.4,0.63,0.01,-0.01,0.77
1697352633.49,-0.14,0.58,1.33,-1.7,-0.8,16.4,0.63,0.01,-0.01,0.77
1697352633.5,-0.14,0.58,1.33,-1.7,-0.8,16.4,0.63,0.01,-0.01,0.77
1697352633.51,-0.14,0.58,1.33,-1.7,-0.8,16.4,0.63,0.01,-0.01,0.77
1697352633.52,-0.14,0.58,1.33,-1.7,-0.8,16.4,0.63,0.01,-0.01,0.77
1697352633.53,-0.14,0.58,1.33,-1.7,-0.8,16.4,0.63,0.01,-0.01,0.77
1697352633.54,-0.14,0.58,1.33,-1.7,-0.8,16.4,0.63,0.01,-0.01,0.77
1697352633.55,-0.2,0.54,1.43,-0.9,-1.7,28.7,0.61,0.01,-0.01,0.79
1697352633.56,0.04,0.61,1.02,-0.9,-1.7,28.7,0.61,0.01,-0.01,0.79
1697352633.57,-0.15,0.7,1.06,-2.7,-1.9,28,0.6,0.01,-0.01,0.8
1697352633.58,-0.09,0.64,1.2,-2.1,-1.1,27.8,0.6,0.01,-0.01,0.8
1697352633.59,-0.09,0.64,1.2,0,-0.8,27.9,0.6,0.01,-0.01,0.8
1697352633.6,-0.14,0.48,1.36,2.2,-0.1,28,0.6,0.01,-0.01,0.8
1697352633.61,-0.14,0.48,1.36,3.3,0.2,27.9,0.6,0.01,-0.01,0.8
1697352633.62,-0.12,0.37,1.2,3.3,0.2,27.9,0.6,0.01,-0.01,0.8
1697352633.63,0.14,0.45,0.61,2,0,28,0.59,0.01,-0.01,0.8
1697352633.64,-0,0.6,1.16,-0.6,0.9,28.4,0.59,0.01,-0.01,0.81
1697352633.65,-0.08,0.57,1.18,-1,1.4,28.5,0.59,0.01,-0.01,0.81
1697352633.66,-0.12,0.5,1.36,1,1.7,28.8,0.59,0.01,-0.01,0.81
1697352633.67,-0.04,0.4,0.86,3.4,1.2,29.3,0.59,0.01,-0.01,0.81
1697352633.68,0.16,0.41,0.69,3.6,0.5,29.6,0.58,0.01,-0,0.81
1697352633.69,-0.11,0.47,1.49,1.3,0.5,29.6,0.58,0.01,-0,0.81
1697352633.7,-0.11,0.47,1.49,-1.1,0.3,29.5,0.58,0.01,-0,0.81
1697352633.71,-0.12,0.6,1.35,-3.1,0.3,29.1,0.58,0.01,-0.01,0.82
1697352633.72,0.16,0.52,0.71,-0.6,1,28.5,0.58,0.01,-0.01,0.82
1697352633.73,-0.08,0.56,0.99,0.1,1.4,27.9,0.57,0.01,-0.01,0.82
1697352633.74,-0.08,0.46,1.1,0.9,2,27,0.57,0.01,-0.01,0.82
1697352633.75,-0.17,0.52,1.6,-0.1,2.5,26.7,0.57,0.01,-0.01,0.82
1697352633.76,0.08,0.47,0.87,0.1,2.6,26.7,0.57,0.01,-0,0.82
1697352633.77,0.13,0.52,0.7,0.6,2.1,26.6,0.57,0.01,-0,0.82
1697352633.78,-0.11,0.55,1.65,0.9,1.1,26.7,0.57,0.01,-0,0.82
1697352633.79,0,0.54,0.92,1.1,0.8,27.1,0.56,0.01,-0,0.83
1697352633.8,0.07,0.51,0.84,2,0.1,27.6,0.56,0.01,-0,0.83
1697352633.81,0.07,0.51,0.84,3,0.6,27.8,0.56,0.01,-0,0.83
1697352633.82,0.13,0.37,0.95,2.6,0.9,27.9,0.55,0.01,-0,0.83
1697352633.83,-0.16,0.39,1.17,0.6,0.9,28.1,0.55,0.01,-0,0.83
1697352633.84,-0.16,0.39,1.17,0.6,0.9,28.1,0.55,0.01,-0,0.83
1697352633.85,0.26,0.44,0.53,-2.6,1.3,28.2,0.55,0.01,-0,0.84
1697352633.86,0.26,0.44,0.53,-2.6,1.3,28.2,0.55,0.01,-0,0.84
1697352633.87,-0.04,0.65,0.72,1,1,28.8,0.55,0.01,-0,0.84
1697352633.88,-0.13,0.56,1.13,1,1,28.8,0.54,0.01,-0,0.84
1697352633.89,0.15,0.46,0.44,1.8,0.7,28.8,0.54,0.01,-0,0.84
1697352633.9,0.15,0.46,0.44,0.1,1.3,28.6,0.54,0.01,-0,0.84
1697352633.91,0.15,0.46,0.44,0.1,1.3,28.6,0.54,0.01,-0,0.84
1697352633.92,0.02,0.56,0.77,0.1,1.3,28.6,0.54,0.01,-0,0.84
1697352633.93,0.15,0.58,0.74,-1.6,3,28.3,0.53,0,-0,0.85
1697352633.94,0.15,0.58,0.74,-1.1,4.3,28.1,0.53,0,-0,0.85
1697352633.95,0.15,0.58,0.74,-1.1,4.3,28.1,0.53,0,-0,0.85
1697352633.96,0.15,0.58,0.74,-1.1,4.3,28.1,0.53,0,-0,0.85
1697352633.97,0.15,0.58,0.74,-1.1,4.3,28.1,0.53,0,-0,0.85
1697352633.98,0.15,0.58,0.74,-1.1,4.3,28.1,0.53,0,-0,0.85
1697352633.99,0.15,0.58,0.74,-1.1,4.3,28.1,0.53,0,-0,0.85
1697352634,0.15,0.58,0.74,-1.1,4.3,28.1,0.53,0,-0,0.85
1697352634.01,0.15,0.58,0.74,-1.1,4.3,28.1,0.53,0,-0,0.85
1697352634.02,0.15,0.58,0.74,-1.1,4.3,28.1,0.53,0,-0,0.85
1697352634.03,0.15,0.58,0.74,-1.1,4.3,28.1,0.53,0,-0,0.85
1697352634.04,0.15,0.58,0.74,-1.1,4.3,28.1,0.53,0,-0,0.85
1697352634.05,0.15,0.58,0.74,-1.1,4.3,28.1,0.53,0,-0,0.85
1697352634.06,0.15,0.58,0.74,0.9,0.2,29.5,0.51,0,-0,0.86
1697352634.07,0.08,0.43,0.71,-2.8,0.5,28.5,0.5,0,-0,0.86
1697352634.08,0.07,0.7,0.83,-4,1.6,28,0.5,0,-0,0.87
1697352634.09,-0.16,0.59,1.15,-2,2.4,27.7,0.5,0,-0,0.87
1697352634.1,0.09,0.59,0.51,0.9,3.1,27.3,0.5,0,-0,0.87
1697352634.11,0.13,0.44,0.86,3.3,3.5,27.5,0.49,-0,-0,0.87
1697352634.12,-0.08,0.45,1.35,2.9,3.5,27.6,0.49,-0,-0,0.87
1697352634.13,-0.02,0.49,1.15,0.4,3.4,27.9,0.49,-0,-0,0.87
1697352634.14,0.17,0.57,0.88,-1.7,2.6,28.4,0.49,-0,-0,0.87
1697352634.15,0.01,0.71,0.99,-2.1,1.7,29.3,0.48,-0,-0,0.87
1697352634.16,0.11,0.6,0.58,0.4,0.6,30,0.48,-0,-0,0.88
1697352634.17,-0.07,0.56,1.24,3.9,-0.1,30,0.48,-0,-0,0.88
1697352634.18,-0.16,0.34,1.13,2.2,-0.1,29.6,0.48,-0,-0,0.88
1697352634.19,0.32,0.39,0.46,-0.8,0.2,29.1,0.48,-0,-0,0.88
1697352634.2,-0.14,0.46,1.41,-2.7,0,28.8,0.48,-0,-0,0.88
1697352634.21,-0.17,0.71,0.97,-2.4,0,28.9,0.47,-0,-0,0.88
1697352634.22,0.11,0.82,0.78,1.2,0.1,29,0.47,-0,-0,0.88
1697352634.23,0.05,0.8,1.02,5,-0.4,29.4,0.47,-0,-0,0.88
1697352634.24,0.05,0.8,1.02,5,-0.4,29.4,0.47,-0,-0,0.88
1697352634.25,0.22,0.49,0.87,5.8,-1,29.6,0.46,-0,-0,0.89
1697352634.26,-0.11,0.43,1.26,4.2,-1.6,29.6,0.46,0,-0,0.89
1697352634.27,-0.04,0.5,0.98,0.7,-2.2,30.1,0.46,0,0,0.89
1697352634.28,0.07,0.67,0.98,2.2,-2,30.9,0.45,0,0,0.89
1697352634.29,0.07,0.67,0.98,2.2,-2,30.9,0.45,0,0,0.89
1697352634.3,-0.15,0.62,1.4,4.5,-2.7,31.5,0.45,0,0,0.89
1697352634.31,0.09,0.48,0.67,5.4,-3.1,32.4,0.45,0,0,0.89
1697352634.32,0.09,0.48,0.67,4.3,-2.4,33.1,0.45,0,0,0.89
1697352634.33,-0.09,0.61,1.09,1.4,-2.2,34,0.44,0,0,0.9
1697352634.34,-0.09,0.61,1.09,-0.9,-2.3,34.2,0.44,0,0,0.9
1697352634.35,-0.01,0.76,1.18,-1.3,-2.3,34.3,0.44,0,0,0.9
1697352634.36,-0.16,1.02,1.13,-0.9,-2.5,34.9,0.44,0,0,0.9
1697352634.37,-0.08,0.93,0.9,4.9,-2.5,37.1,0.43,0,0,0.9
1697352634.38,0.02,0.84,0.67,6.6,-1.4,37.4,0.43,0,0,0.9
1697352634.39,-0.01,0.79,1.1,6.4,-0.9,38.1,0.43,0,0,0.9
1697352634.4,-0.13,0.73,1.19,4.6,-0.5,39.1,0.42,0,0,0.91
1697352634.41,-0.12,0.82,1.27,4.6,-0.5,39.1,0.42,0,0,0.91
1697352634.42,-0.17,0.84,1.04,3.1,0,40.3,0.42,0,0,0.91
1697352634.43,-0.07,0.88,1.06,3.1,-0.5,41,0.42,0,0,0.91
1697352634.44,0,0.73,0.79,2.9,-0.2,42.1,0.41,0,0,0.91
1697352634.45,-0.1,0.8,1.38,1.5,0,42.9,0.41,0,0,0.91
1697352634.46,-0.1,0.8,1.38,1.5,0,42.9,0.41,0,0,0.91
1697352634.47,-0.1,0.8,1.38,1.5,0,42.9,0.41,0,0,0.91
1697352634.48,-0.1,0.8,1.38,1.5,0,42.9,0.41,0,0,0.91
1697352634.49,-0.1,0.8,1.38,1.5,0,42.9,0.41,0,0,0.91
1697352634.5,-0.1,0.8,1.38,1.5,0,42.9,0.41,0,0,0.91
1697352634.51,-0.1,0.8,1.38,1.5,0,42.9,0.41,0,0,0.91
1697352634.52,-0.1,0.8,1.38,1.5,0,42.9,0.41,0,0,0.91
1697352634.53,-0.1,0.8,1.38,1.5,0,42.9,0.41,0,0,0.91
1697352634.54,-0.1,0.8,1.38,1.5,0,42.9,0.41,0,0,0.91
1697352634.55,-0.1,0.8,1.38,1.5,0,42.9,0.41,0,0,0.91
1697352634.56,-0.1,0.8,1.38,1.5,0,42.9,0.41,0,0,0.91
1697352634.57,-0.1,0.8,1.38,1.5,0,42.9,0.41,0,0,0.91
1697352634.58,-0.1,0.8,1.38,1.5,0,42.9,0.41,0,0,0.91
1697352634.59,-0.26,0.63,1.5,-0.7,1.8,42.4,0.36,0,0,0.93
1697352634.6,-0,0.72,0.8,-1,0.9,42,0.36,0,0,0.93
1697352634.61,-0.14,0.7,0.84,-1,0.9,42,0.36,0,0,0.93
1697352634.62,-0.14,0.7,0.84,-3.4,1.4,42.6,0.35,0,0,0.94
1697352634.63,-0.26,0.94,1.2,-3.8,1.4,42.2,0.35,0,0,0.94
1697352634.64,-0.26,0.94,1.2,-3.8,1.4,42.2,0.34,0,0,0.94
1697352634.65,0.05,0.83,0.65,-1.1,0.9,42.1,0.34,0,0,0.94
1697352634.66,0.05,0.83,0.65,2,1.3,41.8,0.34,0,0,0.94
1697352634.67,-0.22,0.58,1.28,3.4,1.3,42.3,0.33,0,0,0.94
1697352634.68,-0.06,0.62,0.86,2.5,1.2,41.4,0.33,0,0,0.94
1697352634.69,-0.14,0.76,1.08,-1.3,1.6,40.7,0.33,0,0,0.95
1697352634.7,-0.15,0.77,0.75,-1.6,1.7,40.5,0.32,0,0,0.95
1697352634.71,-0.09,0.87,0.88,0.5,2.3,40.9,0.32,0,0,0.95
1697352634.72,-0.03,0.76,0.89,1.9,2.8,40.9,0.32,0,0,0.95
1697352634.73,-0.07,0.67,1.26,0.6,2.8,40.9,0.31,0,0,0.95
1697352634.74,0.21,0.62,1.06,0,3,40.8,0.31,0,0,0.95
1697352634.75,0.21,0.8,0.71,-1.7,2.3,39.5,0.3,0,0,0.95
1697352634.76,0.4,0.7,0.5,-1.7,2.3,39.5,0.3,0,0,0.95
1697352634.77,0.26,0.92,0.64,-1,2.3,38.7,0.3,0,0,0.95
1697352634.78,-0.21,0.85,1.42,-0.2,2.2,38.6,0.3,0,0,0.96
1697352634.79,0.03,0.84,0.43,1.4,1.5,39,0.29,0,0,0.96
1697352634.8,-0.13,0.61,0.83,0.8,2.7,40.1,0.29,0,0,0.96
1697352634.81,-0.13,0.74,1.13,-0.7,3.1,40.7,0.29,0,0,0.96
1697352634.82,-0.09,0.77,0.81,-1.9,3.7,41.1,0.28,-0,0,0.96
1697352634.83,-0.09,0.77,0.81,-1.9,3.7,41.1,0.28,-0,0,0.96
1697352634.84,-0.01,0.97,0.68,-2.3,2.9,41.8,0.27,-0,0,0.96
1697352634.85,0.1,0.96,0.64,1.5,2.7,42.8,0.27,-0,0,0.96
1697352634.86,-0.08,0.76,1.06,4.7,2.3,43.5,0.27,-0,0,0.96
1697352634.87,-0.1,0.61,1.14,5.2,1.7,43.6,0.26,-0,0,0.96
1697352634.88,-0.15,0.55,1.11,1.1,1.1,43.5,0.26,-0,0,0.96
1697352634.89,0.02,0.66,0.88,1.1,1.1,43.5,0.26,-0,0,0.97
1697352634.9,0.19,0.93,0.74,-7,-0.4,43.4,0.25,-0,0,0.97
1697352634.91,0.19,0.93,0.74,-7,-0.4,43.4,0.25,-0,0,0.97
1697352634.92,0.27,0.82,1.04,1.3,-1.8,42.7,0.24,-0,0,0.97
1697352634.93,0.18,0.79,1.15,1.3,-1.8,42.7,0.24,-0,0,0.97
1697352634.94,0.02,0.54,1.04,5.2,-2,41.7,0.24,-0,0,0.97
1697352634.95,0.02,0.54,1.04,5.4,-1.6,40.5,0.24,-0,0,0.97
1697352634.96,-0.19,0.61,1.12,1.2,-0.9,39.8,0.23,-0,0,0.97
1697352634.97,-0.19,0.61,1.12,1.2,-0.9,39.8,0.23,-0,0,0.97
1697352634.98,-0.19,0.61,1.12,1.2,-0.9,39.8,0.23,-0,0,0.97
1697352634.99,-0.19,0.61,1.12,1.2,-0.9,39.8,0.23,-0,0,0.97
1697352635,-0.19,0.61,1.12,1.2,-0.9,39.8,0.23,-0,0,0.97
1697352635.01,-0.19,0.61,1.12,1.2,-0.9,39.8,0.23,-0,0,0.97
1697352635.02,-0.19,0.61,1.12,1.2,-0.9,39.8,0.23,-0,0,0.97
1697352635.03,-0.19,0.61,1.12,1.2,-0.9,39.8,0.23,-0,0,0.97
1697352635.04,-0.19,0.61,1.12,1.2,-0.9,39.8,0.23,-0,0,0.97
1697352635.05,-0.19,0.61,1.12,1.2,-0.9,39.8,0.23,-0,0,0.97
1697352635.06,-0.19,0.61,1.12,1.2,-0.9,39.8,0.23,-0,0,0.97
1697352635.07,-0.19,0.61,1.12,1.2,-0.9,39.8,0.23,-0,0,0.97
1697352635.08,-0.19,0.61,1.12,1.2,-0.9,39.8,0.23,-0,0,0.97
1697352635.09,-0.19,0.61,1.12,1.2,-0.9,39.8,0.23,-0,0,0.97
1697352635.1,-0.19,0.61,1.12,1.2,-0.9,39.8,0.23,-0,0,0.97
1697352635.11,-0.19,0.61,1.12,1.2,-0.9,39.8,0.23,-0,0,0.97
1697352635.12,-0.19,0.61,1.12,1.2,-0.9,39.8,0.23,-0,0,0.97
1697352635.13,-0.19,0.61,1.12,1.2,-0.9,39.8,0.23,-0,0,0.97
1697352635.14,-0.19,0.61,1.12,1.2,-0.9,39.8,0.23,-0,0,0.97
1697352635.15,-0.19,0.61,1.12,1.2,-0.9,39.8,0.23,-0,0,0.97
1697352635.16,-0.19,0.61,1.12,1.2,-0.9,39.8,0.23,-0,0,0.97
1697352635.17,0.04,0.81,0.72,-1.6,-1.9,40.7,0.16,-0,0.01,0.99
1697352635.18,0.12,0.88,0.98,0.7,-1.6,41,0.15,-0,0,0.99
1697352635.19,-0.03,0.69,1.16,1.4,-0.6,40.8,0.15,-0,0.01,0.99
1697352635.2,-0,0.81,1.03,1.3,0.7,40.8,0.14,-0,0.01,0.99
1697352635.21,0.09,0.82,1.2,1.3,0.7,40.8,0.14,-0,0.01,0.99
1697352635.22,-0.05,0.62,1.02,0.4,1.4,41,0.14,-0,0.01,0.99
1697352635.23,-0.05,0.62,1.02,0.4,1.4,41,0.14,-0,0.01,0.99
1697352635.24,0.03,0.77,0.99,-0.3,1.5,40.1,0.13,-0,0.01,0.99
1697352635.25,0.14,0.87,0.97,-0.5,1.3,40.2,0.13,-0,0.01,0.99
1697352635.26,-0.04,0.88,1.13,1.1,1.2,40.4,0.13,-0,0.01,0.99
1697352635.27,0.07,0.74,1.1,1.4,1.3,40.4,0.12,-0,0.01,0.99
1697352635.28,-0.04,0.74,1,0.7,1.5,40.2,0.12,-0,0.01,0.99
1697352635.29,-0.04,0.74,1,0.7,1.5,40.2,0.12,-0,0.01,0.99
1697352635.3,-0.06,0.72,1,-0.2,2.2,40.2,0.11,-0,0.01,0.99
1697352635.31,-0.03,0.89,1.1,-3,2.6,40.3,0.11,-0,0.01,0.99
1697352635.32,-0.01,0.92,1.25,-2.8,2.7,40.3,0.11,-0,0.01,0.99
1697352635.33,0.12,0.89,0.82,-1.4,2.7,41.1,0.1,-0,0.01,0.99
1697352635.34,0.08,0.9,0.94,-0.2,2.3,41.3,0.1,-0,0.01,1
1697352635.35,0.04,0.75,0.87,1,2.1,41.3,0.09,-0,0.01,1
1697352635.36,0.03,0.8,1.13,-1,1.6,41.3,0.09,-0,0.01,1
1697352635.37,0.16,0.85,0.88,-2.5,0.9,41.1,0.09,-0,0.01,1
1697352635.38,-0.02,0.89,0.91,-2.1,0.7,40.8,0.08,-0,0,1
1697352635.39,0.06,0.86,1,-1.8,0.5,40.9,0.08,-0,0,1
1697352635.4,0.11,0.83,0.83,-0.9,0.8,40.9,0.08,-0,0,1
1697352635.41,0.07,0.82,1.11,-0.2,0.7,40.9,0.07,-0,0,1
1697352635.42,0.05,0.85,0.87,-0.2,0.7,41.1,0.07,-0,0,1
1697352635.43,-0.02,0.79,0.9,-0.7,0.6,41.3,0.06,-0,0,1
1697352635.44,-0.02,0.79,0.9,-0.7,0.6,41.3,0.06,-0,0,1
1697352635.45,0.02,0.9,0.92,0.3,1.1,41.2,0.06,-0,0,1
1697352635.46,-0.05,0.84,1.13,1.4,1.7,41.5,0.06,-0,0,1
1697352635.47,-0.03,0.78,1.06,1.5,2.1,41.7,0.05,-0,0,1
1697352635.48,0.1,0.77,1.03,0.2,2.4,42,0.05,-0,0,1
1697352635.49,0.06,0.86,0.91,-0.2,1.8,42.5,0.04,-0,0,1
1697352635.5,0.06,0.86,0.91,-0.2,1.8,42.5,0.04,-0,0,1
1697352635.51,0.07,1,0.97,0.5,0.6,43.8,0.03,-0.01,0,1
1697352635.52,-0.04,0.83,1.09,0.5,0.6,43.8,0.03,-0.01,0,1
1697352635.53,-0.08,0.79,1.09,0.6,-0.6,44.1,0.03,-0.01,0.01,1
1697352635.54,-0.08,0.79,1.09,0.6,-0.6,44.1,0.03,-0.01,0.01,1
1697352635.55,-0.08,0.79,1.09,0.6,-0.6,44.1,0.03,-0.01,0.01,1
1697352635.56,-0.08,0.79,1.09,0.6,-0.6,44.1,0.03,-0.01,0.01,1
1697352635.57,-0.08,0.79,1.09,0.6,-0.6,44.1,0.03,-0.01,0.01,1
1697352635.58,-0.08,0.79,1.09,0.6,-0.6,44.1,0.03,-0.01,0.01,1
1697352635.59,-0.08,0.79,1.09,0.6,-0.6,44.1,0.03,-0.01,0.01,1
1697352635.6,-0.08,0.79,1.09,0.6,-0.6,44.1,0.03,-0.01,0.01,1
1697352635.61,-0.08,0.79,1.09,0.6,-0.6,44.1,0.03,-0.01,0.01,1
1697352635.62,-0.08,0.79,1.09,0.6,-0.6,44.1,0.03,-0.01,0.01,1
1697352635.63,-0.08,0.79,1.09,0.6,-0.6,44.1,0.03,-0.01,0.01,1
1697352635.64,-0.08,0.79,1.09,0.6,-0.6,44.1,0.03,-0.01,0.01,1
1697352635.65,-0.08,0.79,1.09,0.6,-0.6,44.1,0.03,-0.01,0.01,1
1697352635.66,-0.08,0.79,1.09,0.6,-0.6,44.1,0.03,-0.01,0.01,1
1697352635.67,-0.08,0.79,1.09,0.6,-0.6,44.1,0.03,-0.01,0.01,1
1697352635.68,0.01,0.81,1.29,0.9,8.5,42.4,0.03,0.01,-0,-1
1697352635.69,0.05,0.96,0.83,-0.9,8.7,42.6,0.03,0.01,-0,-1
1697352635.7,0.12,1.21,0.72,-2,8.4,42.5,0.03,0.01,-0,-1
1697352635.71,0.12,1.21,0.72,-2,8.4,42.5,0.03,0.01,-0,-1
1697352635.72,0.08,0.8,0.73,1.3,2.4,44.4,0.04,0.01,-0,-1
1697352635.73,0.01,0.79,0.71,1.3,2.4,44.4,0.04,0.01,-0,-1
1697352635.74,-0.1,0.85,0.76,-0.7,-1.5,44.6,0.05,0.01,-0,-1
1697352635.75,-0.07,0.96,0.93,-0.8,-1.2,43.9,0.05,0.01,-0,-1
1697352635.76,0.07,0.83,0.68,1.4,-0.2,42.6,0.06,0.01,-0,-1
1697352635.77,-0.09,0.99,0.88,2.2,1,42.1,0.06,0.01,-0.01,-1
1697352635.78,-0.08,0.86,0.88,3.7,2.5,40.8,0.06,0.01,-0.01,-1
1697352635.79,-0.27,0.87,1.08,3,5,40,0.07,0.01,-0.01,-1
1697352635.8,-0.18,0.75,0.96,2.1,8.1,38.6,0.07,0.01,-0.01,-1
1697352635.81,-0.05,0.86,0.87,1.8,9.4,38.2,0.07,0.01,-0.01,-1
1697352635.82,-0.19,0.84,0.92,0.3,9.1,38.8,0.08,0.01,-0.01,-1
1697352635.83,0.14,0.79,1.15,-3.6,7.1,40.3,0.08,0.01,-0.01,-1
1697352635.84,-0,1.23,1.06,-3.3,4.8,41.3,0.09,0.01,-0.01,-1
1697352635.85,-0,1.03,1.12,-3.1,3,43.4,0.09,0.01,-0.01,-1
1697352635.86,0.12,0.9,0.85,-3.1,3,43.4,0.09,0.01,-0.01,-1
1697352635.87,0.06,0.98,1.12,-3.3,-0.5,45.4,0.1,0.01,-0,-1
1697352635.88,0.06,0.98,1.12,-3.3,-0.5,45.4,0.1,0.01,-0,-1
1697352635.89,-0.12,1.01,1.02,-1.5,-2,46,0.1,0.01,-0,-0.99
1697352635.9,-0.14,0.89,0.93,2.2,-2.8,46.5,0.11,0.01,-0,-0.99
1697352635.91,-0.05,0.85,1.07,1.7,-3,46.3,0.11,0.01,-0.01,-0.99
1697352635.92,-0.01,0.91,1.11,3,-3.3,45.9,0.11,0.01,-0.01,-0.99
1697352635.93,-0.01,0.83,1.06,3,-3.3,45.9,0.12,0.01,-0.01,-0.99
1697352635.94,-0.02,0.75,1.09,3.5,-4.9,45.4,0.12,0.01,-0.01,-0.99
1697352635.95,0.14,0.86,0.93,2.2,-6.2,45.1,0.13,0.01,-0.01,-0.99
1697352635.96,0.14,0.86,0.93,-0.5,-6.9,45.6,0.13,0.01,-0.01,-0.99
1697352635.97,0,0.86,1.09,-0.3,-7.3,45.1,0.13,0.01,-0.01,-0.99
1697352635.98,-0.05,1.12,1.04,1.2,-6.2,44.5,0.14,0.01,-0.01,-0.99
1697352635.99,-0.2,0.88,1.17,1,-4.9,44.2,0.14,0.01,-0.01,-0.99
1697352636,0,0.82,0.74,0.5,-4.3,44.2,0.15,0.01,-0.01,-0.99
1697352636.01,-0.13,0.86,1.11,-1.2,-2.2,43.6,0.15,0.01,-0.01,-0.99
1697352636.02,-0.21,0.94,1.21,-3.3,1,42.8,0.15,0.01,-0.01,-0.99
1697352636.03,-0.21,1.05,1.14,-2.3,2.9,43.2,0.16,0.01,-0.01,-0.99
1697352636.04,-0.15,0.97,0.79,-0.5,4.7,43.4,0.16,0.01,-0.01,-0.99
1697352636.05,-0.02,1.03,0.75,0.9,6.1,43.9,0.17,0.01,-0.01,-0.99
1697352636.06,-0.13,0.95,1.1,1.6,7.7,44.6,0.17,0.01,-0.01,-0.99
1697352636.07,-0.13,0.95,1.1,1.6,7.7,44.6,0.17,0.01,-0.01,-0.99
1697352636.08,-0.13,0.95,1.1,1.6,7.7,44.6,0.17,0.01,-0.01,-0.99
1697352636.09,-0.13,0.95,1.1,1.6,7.7,44.6,0.17,0.01,-0.01,-0.99
1697352636.1,-0.13,0.95,1.1,1.6,7.7,44.6,0.17,0.01,-0.01,-0.99
1697352636.11,-0.13,0.95,1.1,1.6,7.7,44.6,0.17,0.01,-0.01,-0.99
1697352636.12,-0.13,0.95,1.1,1.6,7.7,44.6,0.17,0.01,-0.01,-0.99
1697352636.13,-0.13,0.95,1.1,1.6,7.7,44.6,0.17,0.01,-0.01,-0.99
1697352636.14,-0.13,0.95,1.1,1.6,7.7,44.6,0.17,0.01,-0.01,-0.99
1697352636.15,-0.13,0.95,1.1,1.6,7.7,44.6,0.17,0.01,-0.01,-0.99
1697352636.16,-0.13,0.95,1.1,1.6,7.7,44.6,0.17,0.01,-0.01,-0.99
1697352636.17,-0.13,0.95,1.1,1.6,7.7,44.6,0.17,0.01,-0.01,-0.99
1697352636.18,-0.13,0.95,1.1,1.6,7.7,44.6,0.17,0.01,-0.01,-0.99
1697352636.19,-0.18,1.28,0.97,-1.5,7.1,44.2,0.22,0.02,-0.01,-0.98
1697352636.2,-0.26,0.96,1.02,8.8,7.1,44.9,0.23,0.02,-0.01,-0.97
1697352636.21,-0.26,0.96,1.02,8.8,7.1,44.9,0.23,0.02,-0.01,-0.97
1697352636.22,-0.25,0.67,1.24,0.1,6.5,45.4,0.23,0.02,-0.01,-0.97
1697352636.23,-0.25,0.67,1.24,0.1,6.5,45.4,0.23,0.02,-0.01,-0.97
1697352636.24,0.06,0.96,0.88,-3.4,6,46.1,0.24,0.02,-0.01,-0.97
1697352636.25,-0.09,0.97,0.9,-3.2,4.7,46.3,0.24,0.02,-0.01,-0.97
1697352636.26,-0.09,0.97,0.9,-4,3.1,47.5,0.25,0.02,-0.01,-0.97
1697352636.27,-0.34,1.16,1.33,-0.6,1.4,47.8,0.25,0.02,-0.01,-0.97
1697352636.28,-0.34,1.16,1.33,3.9,0.6,48,0.25,0.02,-0.01,-0.97
1697352636.29,-0.33,0.86,1.18,3.7,0.2,47.4,0.26,0.02,-0.01,-0.97
1697352636.3,-0.17,0.64,0.63,-2.2,-0.8,46.2,0.26,0.02,-0.01,-0.97
1697352636.31,-0.28,0.69,1.03,-7.6,-2.2,44.9,0.27,0.02,-0.01,-0.96
1697352636.32,-0.2,0.97,1,-10.5,-2.8,44.8,0.27,0.02,-0.01,-0.96
1697352636.33,-0.2,1.35,1.03,-6.4,-3.5,45.4,0.27,0.02,-0.01,-0.96
1697352636.34,-0.19,1.34,1.03,0.5,-3.7,46,0.28,0.02,-0.01,-0.96
1697352636.35,-0.14,1.14,1.01,4.3,-3.5,46.6,0.28,0.02,-0.01,-0.96
1697352636.36,-0.17,0.82,0.82,3.3,-3.4,46.4,0.29,0.02,-0.01,-0.96
1697352636.37,-0.17,0.71,1.14,0.6,-2.7,45.6,0.29,0.02,-0.01,-0.96
1697352636.38,-0.14,0.71,1.2,-1.5,-1.1,44.8,0.29,0.02,-0.01,-0.96
1697352636.39,-0.15,0.89,1.1,-1.7,-0.4,44.6,0.3,0.02,-0.01,-0.95
1697352636.4,-0.1,1.03,0.83,0,2.8,43.7,0.3,0.02,-0.01,-0.95
1697352636.41,-0.14,0.98,1.18,2.3,3.7,44.1,0.3,0.02,-0.01,-0.95
1697352636.42,-0.07,0.97,0.9,3.6,3.9,44.1,0.31,0.02,-0.01,-0.95
1697352636.43,-0.07,0.82,1.4,3.1,4,44.2,0.31,0.02,-0.01,-0.95
1697352636.44,0.01,0.83,0.83,-0.2,3.3,44.8,0.32,0.02,-0.01,-0.95
1697352636.45,0.01,0.9,1.14,-6.1,2.1,45,0.32,0.02,-0.01,-0.95
1697352636.46,0.07,0.97,1.15,-7,2.2,45.2,0.32,0.02,-0.01,-0.95
1697352636.47,-0.15,1.1,1.01,-5.4,2.8,45.6,0.33,0.02,-0.01,-0.94
1697352636.48,-0.21,1.1,0.99,-2.1,3.6,46.3,0.33,0.02,-0.01,-0.94
1697352636.49,-0.21,1.03,0.81,0.6,4.3,46.8,0.33,0.02,-0.01,-0.94
1697352636.5,-0.11,1.01,0.99,2.6,4.6,47,0.34,0.02,-0.01,-0.94
1697352636.51,-0.11,1.01,0.99,2.6,4.6,47,0.34,0.02,-0.01,-0.94
1697352636.52,-0.11,0.74,1.16,4.7,3.2,47.9,0.34,0.02,-0.01,-0.94
1697352636.53,-0.24,0.83,0.81,2.5,1.9,48,0.35,0.02,-0.01,-0.94
1697352636.54,-0.09,0.86,0.77,0.4,1.2,48.1,0.35,0.02,-0.01,-0.94
1697352636.55,-0.09,1.02,0.82,0.3,0.8,48.1,0.36,0.02,-0.01,-0.93
1697352636.56,-0.12,1.02,1.19,0.3,0.8,48.1,0.36,0.02,-0.01,-0.93
1697352636.57,-0.07,1.14,1.14,5.7,0.4,47.8,0.36,0.02,-0.01,-0.93
1697352636.58,-0.07,1.14,1.14,5.7,0.4,47.8,0.37,0.02,-0.01,-0.93
1697352636.59,-0.07,1.14,1.14,5.7,0.4,47.8,0.37,0.02,-0.01,-0.93
1697352636.6,-0.07,1.14,1.14,5.7,0.4,47.8,0.37,0.02,-0.01,-0.93
1697352636.61,-0.07,1.14,1.14,5.7,0.4,47.8,0.37,0.02,-0.01,-0.93
1697352636.62,-0.07,1.14,1.14,5.7,0.4,47.8,0.37,0.02,-0.01,-0.93
1697352636.63,-0.07,1.14,1.14,5.7,0.4,47.8,0.37,0.02,-0.01,-0.93
1697352636.64,-0.07,1.14,1.14,5.7,0.4,47.8,0.37,0.02,-0.01,-0.93
1697352636.65,-0.07,1.14,1.14,5.7,0.4,47.8,0.37,0.02,-0.01,-0.93
1697352636.66,-0.07,1.14,1.14,5.7,0.4,47.8,0.37,0.02,-0.01,-0.93
1697352636.67,-0.07,1.14,1.14,5.7,0.4,47.8,0.37,0.02,-0.01,-0.93
1697352636.68,-0.07,1.14,1.14,5.7,0.4,47.8,0.37,0.02,-0.01,-0.93
1697352636.69,-0.07,1.14,1.14,5.7,0.4,47.8,0.37,0.02,-0.01,-0.93
1697352636.7,-0.07,1.14,1.14,5.7,0.4,47.8,0.37,0.02,-0.01,-0.93
1697352636.71,-0.12,0.86,0.73,2.4,0.8,42.8,0.41,0.02,-0.01,-0.91
1697352636.72,-0.02,0.61,1.04,5.1,1.5,41.2,0.42,0.02,-0.01,-0.91
1697352636.73,0.07,0.52,0.7,4.8,2,39.5,0.42,0.02,-0.01,-0.91
1697352636.74,0.11,0.63,0.85,-1.2,0.8,37,0.42,0.02,-0.01,-0.9
1697352636.75,-0.04,0.71,1.21,-3.2,-0.4,35.3,0.43,0.02,-0.01,-0.9
1697352636.76,-0.04,0.71,1.21,-3.2,-0.4,35.3,0.43,0.02,-0.01,-0.9
1697352636.77,0.06,1.12,0.85,-0.3,-1.1,34,0.43,0.02,-0.01,-0.9
1697352636.78,-0.14,0.95,0.84,6.4,-0.1,34.3,0.43,0.02,-0.01,-0.9
1697352636.79,-0.05,0.6,1.14,8.9,1.1,34.4,0.44,0.02,-0.01,-0.9
1697352636.8,-0.2,0.49,1.08,8.1,2.2,34.6,0.44,0.02,-0.01,-0.9
1697352636.81,-0.25,0.29,0.97,5.4,2.8,34.4,0.44,0.02,-0.01,-0.9
1697352636.82,-0.06,0.58,0.77,-0.2,4.5,33.9,0.44,0.02,-0.01,-0.9
1697352636.83,0.1,0.92,0.79,-4.1,6.5,34.4,0.45,0.02,-0.01,-0.89
1697352636.84,0.2,1.09,0.77,-0.6,7.5,34.9,0.45,0.03,-0.01,-0.89
1697352636.85,0.03,0.7,1.28,6.5,6.2,35.4,0.45,0.03,-0.01,-0.89
1697352636.86,0.06,0.62,0.96,8.5,4.2,35.9,0.46,0.03,-0.01,-0.89
1697352636.87,-0.04,0.65,0.89,6.8,2.2,35.1,0.46,0.03,-0.01,-0.89
1697352636.88,-0.05,0.61,1.14,3.1,0.6,34.9,0.46,0.03,-0.01,-0.89
1697352636.89,-0.11,0.62,1,-1.1,-1.7,34.3,0.46,0.03,-0.01,-0.89
1697352636.9,-0.1,0.94,0.66,-3.2,-1.4,33.1,0.47,0.03,-0.01,-0.88
1697352636.91,-0.05,0.98,0.97,-2.7,-0.7,33.2,0.47,0.03,-0.01,-0.88
1697352636.92,-0.11,0.74,1.25,1.3,0.2,33.4,0.47,0.03,-0.01,-0.88
1697352636.93,-0.11,0.74,1.25,1.3,0.2,33.4,0.47,0.03,-0.01,-0.88
1697352636.94,-0.18,0.61,0.93,2.7,1.7,32.1,0.48,0.03,-0.01,-0.88
1697352636.95,-0.15,0.67,1,0.6,2.1,32.6,0.48,0.03,-0.02,-0.88
1697352636.96,0.01,0.68,1.02,0.5,2.6,32.5,0.48,0.03,-0.02,-0.88
1697352636.97,-0.05,0.79,0.93,0.5,2.6,32.5,0.48,0.03,-0.02,-0.87
1697352636.98,-0.06,0.61,1,-2.1,0.1,32.4,0.49,0.03,-0.02,-0.87
1697352636.99,-0.05,0.7,0.94,-1.7,-0.1,32.8,0.49,0.03,-0.01,-0.87
1697352637,0.11,0.86,0.8,-0.7,0.3,32.4,0.49,0.03,-0.01,-0.87
1697352637.01,0.11,0.86,0.8,-0.7,0.3,32.4,0.49,0.03,-0.01,-0.87
1697352637.02,-0.1,0.76,0.86,1.7,0.4,32.7,0.5,0.03,-0.02,-0.87
1697352637.03,-0.1,0.76,0.86,2.6,0.4,33.4,0.5,0.03,-0.02,-0.87
1697352637.04,-0.08,0.58,1.14,4.4,1,33.5,0.5,0.03,-0.02,-0.86
