time,accel_x,accel_y,accel_z,gyro_x,gyro_y,gyro_z,quat_w,quat_x,quat_y,quat_z
1697352992.35,-0.13,0.3,1.05,0.5,1.2,48.1,0.92,0.03,-0.02,-0.4
1697352992.36,-0.13,0.3,1.05,0.5,1.2,48.1,0.92,0.03,-0.02,-0.4
1697352992.37,-0.13,0.3,1.05,0.5,1.2,48.1,0.92,0.03,-0.02,-0.4
1697352992.38,-0.13,0.3,1.05,0.5,1.2,48.1,0.92,0.03,-0.02,-0.4
1697352992.39,-0.13,0.3,1.05,0.5,1.2,48.1,0.92,0.03,-0.02,-0.4
1697352992.4,-0.12,0.18,0.93,0.3,-2.4,45.3,0.94,0.03,-0.02,-0.34
1697352992.41,-0.17,0.19,0.99,-0.5,-2.4,44.7,0.94,0.03,-0.02,-0.34
1697352992.42,-0.15,0.24,1.01,-1.9,-1.5,44.4,0.94,0.03,-0.02,-0.33
1697352992.43,-0.16,0.26,1.01,-2.1,-0.7,44.2,0.94,0.03,-0.02,-0.33
1697352992.44,-0.12,0.31,1.03,-1.6,0.2,43.9,0.95,0.03,-0.02,-0.32
1697352992.45,-0.1,0.3,0.9,-0.4,1.1,43.8,0.95,0.03,-0.02,-0.32
1697352992.46,-0.11,0.21,1.03,0.8,1.4,43.4,0.95,0.03,-0.02,-0.32
1697352992.47,-0.07,0.23,0.94,1.2,1.4,43.1,0.95,0.03,-0.02,-0.32
1697352992.48,-0,0.2,0.9,0.4,0.9,42.7,0.95,0.03,-0.02,-0.31
1697352992.49,0.03,0.25,1.04,0,0.3,42.3,0.95,0.03,-0.02,-0.31
1697352992.5,0.05,0.27,0.96,-0.3,-0.5,42.1,0.95,0.03,-0.02,-0.3
1697352992.51,-0,0.25,0.98,0.1,-1.2,42,0.95,0.03,-0.02,-0.3
1697352992.52,0,0.27,0.83,0.1,-1.2,42,0.95,0.03,-0.02,-0.3
1697352992.53,-0,0.26,0.9,0.5,-1.7,42.2,0.96,0.03,-0.02,-0.29
1697352992.54,-0.02,0.23,0.9,0.3,-1.9,42.5,0.96,0.03,-0.02,-0.29
1697352992.55,-0.05,0.25,0.93,0,-1.5,43,0.96,0.03,-0.02,-0.29
1697352992.56,-0.1,0.24,0.99,-0.6,-1.4,43.3,0.96,0.03,-0.02,-0.28
1697352992.57,-0.02,0.29,0.88,-1.1,-0.7,43.7,0.96,0.03,-0.02,-0.28
1697352992.58,0,0.27,0.94,-1,-0.3,43.9,0.96,0.03,-0.02,-0.28
1697352992.59,0.03,0.27,0.99,-0.1,0,43.6,0.96,0.03,-0.02,-0.27
1697352992.6,0.08,0.26,0.88,0.5,0,43.3,0.96,0.03,-0.02,-0.27
1697352992.61,0.07,0.15,1.08,0.7,-0.1,42.8,0.96,0.03,-0.02,-0.27
1697352992.62,0.08,0.27,0.95,0.7,-0.1,42.8,0.96,0.03,-0.02,-0.26
1697352992.63,0.05,0.34,1.15,-0.9,-0.6,41.9,0.97,0.03,-0.02,-0.26
1697352992.64,0.03,0.21,1.05,-1.2,-0.8,42.4,0.97,0.03,-0.02,-0.25
1697352992.65,0.02,0.39,0.94,-0.3,-0.6,42.9,0.97,0.03,-0.02,-0.25
1697352992.66,0.02,0.39,0.94,-0.3,-0.6,42.9,0.97,0.03,-0.02,-0.25
1697352992.67,-0,0.28,0.92,0.2,-0.4,43.3,0.97,0.03,-0.02,-0.24
1697352992.68,-0,0.19,1.03,1.4,0.3,43.8,0.97,0.03,-0.02,-0.24
1697352992.69,-0,0.19,1.03,1.6,0.5,43.9,0.97,0.03,-0.02,-0.24
1697352992.7,0.1,0.25,0.95,0.3,0.1,44.2,0.97,0.03,-0.02,-0.23
1697352992.71,0.05,0.28,1.17,0.1,0,44.1,0.97,0.03,-0.02,-0.23
1697352992.72,0.05,0.28,1.17,0.1,0,44.1,0.97,0.03,-0.02,-0.22
1697352992.73,-0.01,0.27,1.09,0.9,-0.2,43.9,0.97,0.03,-0.02,-0.22
1697352992.74,-0.01,0.27,1.09,0.9,-0.2,43.9,0.98,0.03,-0.02,-0.22
1697352992.75,-0.05,0.25,1,1,-0.1,43.9,0.98,0.03,-0.02,-0.21
1697352992.76,-0.05,0.25,1,0.8,0.4,44.1,0.98,0.03,-0.02,-0.21
1697352992.77,-0.06,0.28,1.08,0.2,0.5,44.2,0.98,0.03,-0.02,-0.21
1697352992.78,-0.05,0.24,1.02,0.2,0.5,44.2,0.98,0.03,-0.02,-0.21
1697352992.79,-0.05,0.24,1.02,0.2,0.5,44.2,0.98,0.03,-0.02,-0.21
1697352992.8,-0.05,0.24,1.02,0.2,0.5,44.2,0.98,0.03,-0.02,-0.21
1697352992.81,-0.05,0.24,1.02,0.2,0.5,44.2,0.98,0.03,-0.02,-0.21
1697352992.82,-0.05,0.24,1.02,0.2,0.5,44.2,0.98,0.03,-0.02,-0.21
1697352992.83,-0.05,0.24,1.02,0.2,0.5,44.2,0.98,0.03,-0.02,-0.21
1697352992.84,-0.05,0.24,1.02,0.2,0.5,44.2,0.98,0.03,-0.02,-0.21
1697352992.85,-0.05,0.24,1.02,0.2,0.5,44.2,0.98,0.03,-0.02,-0.21
1697352992.86,-0.05,0.24,1.02,0.2,0.5,44.2,0.98,0.03,-0.02,-0.21
1697352992.87,-0.05,0.24,1.02,0.2,0.5,44.2,0.98,0.03,-0.02,-0.21
1697352992.88,-0.05,0.24,1.02,0.2,0.5,44.2,0.98,0.03,-0.02,-0.21
1697352992.89,-0.05,0.24,1.02,0.2,0.5,44.2,0.98,0.03,-0.02,-0.21
1697352992.9,-0.05,0.24,1.02,0.2,0.5,44.2,0.98,0.03,-0.02,-0.21
1697352992.91,-0.04,0.27,0.97,-0.6,0.7,44.8,0.99,0.04,-0.03,-0.15
1697352992.92,-0,0.27,1.07,0,1.4,44.7,0.99,0.04,-0.03,-0.15
1697352992.93,0.01,0.19,0.99,0.9,1.7,44.4,0.99,0.04,-0.03,-0.14
1697352992.94,0.03,0.23,0.98,0.7,2.1,44,0.99,0.04,-0.03,-0.14
1697352992.95,0.01,0.26,0.93,0.3,2.5,43.6,0.99,0.04,-0.03,-0.14
1697352992.96,0.02,0.25,0.92,0.4,2.4,43.3,0.99,0.04,-0.03,-0.13
1697352992.97,0.02,0.23,1.04,0,2.5,43.5,0.99,0.04,-0.03,-0.13
1697352992.98,-0.04,0.28,0.85,-0.5,2.1,43.5,0.99,0.04,-0.03,-0.13
1697352992.99,0.02,0.28,0.96,-1.3,1.6,43.7,0.99,0.04,-0.03,-0.12
1697352993,0.01,0.28,0.95,-1.4,0.6,43.9,0.99,0.05,-0.03,-0.12
1697352993.01,0,0.3,0.85,-1.4,0.1,43.9,0.99,0.05,-0.03,-0.11
1697352993.02,-0,0.29,1.03,-1.4,0.1,43.9,0.99,0.05,-0.03,-0.11
1697352993.03,0.02,0.24,0.97,-0.1,0,43.8,0.99,0.05,-0.03,-0.11
1697352993.04,0,0.17,0.89,-0.4,0.5,43.7,0.99,0.05,-0.03,-0.1
1697352993.05,-0.03,0.21,0.93,-1.3,1.2,43.2,0.99,0.05,-0.03,-0.1
1697352993.06,-0.07,0.21,0.94,-1.7,2.4,43.3,0.99,0.05,-0.03,-0.1
1697352993.07,-0.04,0.23,1,-1.7,2.4,43.3,0.99,0.05,-0.03,-0.09
1697352993.08,-0.04,0.23,1,-1.9,3.4,43.5,0.99,0.05,-0.03,-0.09
1697352993.09,-0.01,0.23,0.99,-0.4,4.2,43.9,0.99,0.05,-0.02,-0.08
1697352993.1,-0.02,0.25,1.09,-0.4,4.2,43.9,1,0.05,-0.02,-0.08
1697352993.11,-0.01,0.21,0.97,1.2,3.5,44.5,1,0.05,-0.02,-0.08
1697352993.12,-0.01,0.21,0.97,1.2,3.5,44.5,1,0.05,-0.02,-0.07
1697352993.13,0.03,0.19,0.91,0.8,2.6,44.4,1,0.05,-0.02,-0.07
1697352993.14,0.03,0.19,0.91,0.8,2.6,44.4,1,0.05,-0.02,-0.07
1697352993.15,0.04,0.23,0.85,0,2,44,1,0.05,-0.02,-0.06
1697352993.16,0.04,0.23,0.85,0,2,44,1,0.05,-0.02,-0.06
1697352993.17,-0.01,0.23,1.19,-0.2,2.2,43.7,1,0.05,-0.02,-0.05
1697352993.18,0,0.22,0.82,-0.4,2.3,43.5,1,0.05,-0.02,-0.05
1697352993.19,-0.03,0.24,0.97,-0.5,2.5,43.2,1,0.05,-0.02,-0.05
1697352993.2,-0.07,0.26,1.08,-0.8,3,43.1,1,0.05,-0.02,-0.04
1697352993.21,-0.03,0.29,1.09,-0.5,3.5,43.2,1,0.05,-0.02,-0.04
1697352993.22,-0.07,0.25,1.07,-0.5,3.8,43.2,1,0.05,-0.02,-0.03
1697352993.23,-0.03,0.23,0.98,-0.1,4,43.1,1,0.05,-0.02,-0.03
1697352993.24,-0.03,0.25,1.09,0.1,3.8,43.1,1,0.05,-0.02,-0.03
1697352993.25,-0.01,0.25,0.96,0,3.7,43.3,1,0.05,-0.02,-0.03
1697352993.26,-0.04,0.2,1.07,0.2,3.3,43.3,1,0.05,-0.02,-0.02
1697352993.27,-0.01,0.23,1.04,0.6,3.3,43.3,1,0.05,-0.02,-0.02
1697352993.28,0.02,0.2,0.86,0.3,3.3,43.6,1,0.05,-0.02,-0.02
1697352993.29,-0.07,0.2,1.13,0.3,3.3,43.6,1,0.05,-0.02,-0.01
1697352993.3,-0.05,0.2,0.96,-0.5,3.2,43.6,1,0.05,-0.02,-0.01
1697352993.31,-0.05,0.2,0.96,-0.5,3.2,43.6,1,0.05,-0.02,-0.01
1697352993.32,-0.05,0.2,0.96,-0.5,3.2,43.6,1,0.05,-0.02,-0.01
1697352993.33,-0.05,0.2,0.96,-0.5,3.2,43.6,1,0.05,-0.02,-0.01
1697352993.34,-0.05,0.2,0.96,-0.5,3.2,43.6,1,0.05,-0.02,-0.01
1697352993.35,-0.05,0.2,0.96,-0.5,3.2,43.6,1,0.05,-0.02,-0.01
1697352993.36,-0.05,0.2,0.96,-0.5,3.2,43.6,1,0.05,-0.02,-0.01
1697352993.37,-0.05,0.2,0.96,-0.5,3.2,43.6,1,0.05,-0.02,-0.01
1697352993.38,-0.05,0.2,0.96,-0.5,3.2,43.6,1,0.05,-0.02,-0.01
1697352993.39,-0.05,0.2,0.96,-0.5,3.2,43.6,1,0.05,-0.02,-0.01
1697352993.4,-0.05,0.2,0.96,-0.5,3.2,43.6,1,0.05,-0.02,-0.01
1697352993.41,-0.05,0.2,0.96,-0.5,3.2,43.6,1,0.05,-0.02,-0.01
1697352993.42,-0.05,0.2,0.96,-0.5,3.2,43.6,1,0.05,-0.02,-0.01
1697352993.43,-0.03,0.21,0.92,0.4,2.9,42.5,1,0.06,-0.02,0.05
1697352993.44,-0.06,0.17,0.94,-0.2,2.9,42.5,1,0.06,-0.02,0.05
1697352993.45,-0.05,0.19,0.99,-0.4,2.9,42.3,1,0.06,-0.01,0.05
1697352993.46,-0.05,0.19,0.98,-0.4,2.8,42.3,1,0.06,-0.01,0.06
1697352993.47,-0.04,0.2,0.96,-0.5,2.8,42,1,0.06,-0.01,0.06
1697352993.48,-0.06,0.2,0.99,-0.3,3,41.9,1,0.06,-0.01,0.07
1697352993.49,-0.04,0.24,0.91,0.2,3.2,41.9,1,0.06,-0.01,0.07
1697352993.5,-0.05,0.24,1.04,0.2,3.2,41.9,1,0.06,-0.01,0.07
1697352993.51,-0.04,0.23,1.02,0.4,3.4,41.8,1,0.06,-0.01,0.07
1697352993.52,-0.04,0.23,1.02,0.4,3.4,41.8,1,0.06,-0.01,0.08
1697352993.53,0.01,0.23,0.98,0.3,2.9,42,0.99,0.06,-0.01,0.08
1697352993.54,0,0.23,0.95,0,2.7,42,0.99,0.06,-0.01,0.08
1697352993.55,0,0.23,0.95,-0.2,2.1,42.3,0.99,0.06,-0.01,0.09
1697352993.56,-0.04,0.18,1.09,-0.5,1.7,42.4,0.99,0.06,-0.01,0.09
1697352993.57,0.02,0.2,0.88,-0.7,1.5,42.5,0.99,0.06,-0.01,0.1
1697352993.58,-0.03,0.18,0.98,-0.7,1.3,42.2,0.99,0.06,-0.01,0.1
1697352993.59,0,0.21,1.07,-0.4,1.1,42.1,0.99,0.06,-0.01,0.1
1697352993.6,0.05,0.18,0.89,0.1,1.1,41.9,0.99,0.06,-0.01,0.11
1697352993.61,-0.01,0.16,1.01,0.2,1.1,41.8,0.99,0.06,-0.01,0.11
1697352993.62,0.04,0.23,0.94,0.2,1,41.7,0.99,0.06,-0.01,0.11
1697352993.63,-0.05,0.19,1.08,0.3,1.1,41.6,0.99,0.06,-0.01,0.12
1697352993.64,0.02,0.19,0.88,0.1,1.3,41.6,0.99,0.06,-0.01,0.12
1697352993.65,-0,0.24,1.01,0,1.7,42,0.99,0.07,-0.01,0.13
1697352993.66,-0.05,0.21,1.07,0.2,1.5,42.1,0.99,0.07,-0.01,0.13
1697352993.67,-0.02,0.22,1.03,0.2,1.5,42.1,0.99,0.07,-0.01,0.13
1697352993.68,-0.03,0.23,1.1,0.3,1.6,42.5,0.99,0.07,-0.01,0.14
1697352993.69,0.04,0.22,0.82,0.6,1.6,42.8,0.99,0.07,-0.01,0.14
1697352993.7,-0.01,0.23,1.16,0.5,1.4,43,0.99,0.07,-0.01,0.14
1697352993.71,-0.02,0.23,0.98,0.5,1.4,43,0.99,0.07,-0.01,0.14
1697352993.72,0.05,0.22,0.9,0.5,1.5,43,0.99,0.07,-0.01,0.15
1697352993.73,0,0.21,1.05,0.8,1.3,42.9,0.99,0.07,-0.01,0.15
1697352993.74,0.08,0.24,0.89,0.9,1.2,42.9,0.98,0.07,-0.01,0.16
1697352993.75,0.08,0.24,0.89,0.9,1.2,42.9,0.98,0.07,-0.01,0.16
1697352993.76,0.02,0.23,1.02,1,0.4,42.6,0.98,0.07,-0.01,0.17
1697352993.77,0.02,0.23,1.02,1,0.4,42.6,0.98,0.07,-0.01,0.17
1697352993.78,0.02,0.27,1.02,-0.3,0,42.7,0.98,0.07,-0.01,0.17
1697352993.79,0.01,0.27,0.94,-0.3,0,42.7,0.98,0.07,-0.01,0.17
1697352993.8,0.02,0.24,0.96,-0.1,0.3,43,0.98,0.07,-0.01,0.18
1697352993.81,0.04,0.21,0.97,0,0.5,43.3,0.98,0.07,-0.01,0.18
1697352993.82,0.04,0.21,0.97,0,0.5,43.3,0.98,0.07,-0.01,0.18
1697352993.83,0.04,0.21,0.97,0,0.5,43.3,0.98,0.07,-0.01,0.18
1697352993.84,0.04,0.21,0.97,0,0.5,43.3,0.98,0.07,-0.01,0.18
1697352993.85,0.04,0.21,0.97,0,0.5,43.3,0.98,0.07,-0.01,0.18
1697352993.86,0.04,0.21,0.97,0,0.5,43.3,0.98,0.07,-0.01,0.18
1697352993.87,0.04,0.21,0.97,0,0.5,43.3,0.98,0.07,-0.01,0.18
1697352993.88,0.04,0.21,0.97,0,0.5,43.3,0.98,0.07,-0.01,0.18
1697352993.89,0.04,0.21,0.97,0,0.5,43.3,0.98,0.07,-0.01,0.18
1697352993.9,0.04,0.21,0.97,0,0.5,43.3,0.98,0.07,-0.01,0.18
1697352993.91,0.04,0.21,0.97,0,0.5,43.3,0.98,0.07,-0.01,0.18
1697352993.92,0.04,0.21,0.97,0,0.5,43.3,0.98,0.07,-0.01,0.18
1697352993.93,0.04,0.21,0.97,0,0.5,43.3,0.98,0.07,-0.01,0.18
1697352993.94,0.04,0.21,0.97,0,0.5,43.3,0.98,0.07,-0.01,0.18
1697352993.95,0.04,0.21,0.97,0,0.5,43.3,0.98,0.07,-0.01,0.18
1697352993.96,0.04,0.21,0.97,0,0.5,43.3,0.98,0.07,-0.01,0.18
1697352993.97,0.04,0.21,0.97,0,0.5,43.3,0.98,0.07,-0.01,0.18
1697352993.98,0.04,0.21,0.97,0,0.5,43.3,0.98,0.07,-0.01,0.18
1697352993.99,0.04,0.21,0.97,0,0.5,43.3,0.98,0.07,-0.01,0.18
1697352994,0.04,0.21,0.97,0,0.5,43.3,0.98,0.07,-0.01,0.18
1697352994.01,0.04,0.21,0.97,0,0.5,43.3,0.98,0.07,-0.01,0.18
1697352994.02,0.04,0.21,0.97,0,0.5,43.3,0.98,0.07,-0.01,0.18
1697352994.03,0.04,0.21,0.97,0,0.5,43.3,0.98,0.07,-0.01,0.18
1697352994.04,0.04,0.21,0.97,0,0.5,43.3,0.98,0.07,-0.01,0.18
1697352994.05,0.04,0.21,0.97,0,0.5,43.3,0.98,0.07,-0.01,0.18
1697352994.06,0.04,0.21,0.97,0,0.5,43.3,0.98,0.07,-0.01,0.18
1697352994.07,0.04,0.21,0.97,0,0.5,43.3,0.98,0.07,-0.01,0.18
1697352994.08,0.04,0.21,0.97,0,0.5,43.3,0.98,0.07,-0.01,0.18
1697352994.09,0.04,0.21,0.97,0,0.5,43.3,0.98,0.07,-0.01,0.18
1697352994.1,0.04,0.21,0.97,0,0.5,43.3,0.98,0.07,-0.01,0.18
1697352994.11,0.04,0.21,0.97,0,0.5,43.3,0.98,0.07,-0.01,0.18
1697352994.12,0.04,0.21,0.97,0,0.5,43.3,0.98,0.07,-0.01,0.18
1697352994.13,0.04,0.21,0.97,0,0.5,43.3,0.98,0.07,-0.01,0.18
1697352994.14,0.04,0.21,0.97,0,0.5,43.3,0.98,0.07,-0.01,0.18
1697352994.15,0.04,0.21,0.97,0,0.5,43.3,0.98,0.07,-0.01,0.18
1697352994.16,0.04,0.21,0.97,0,0.5,43.3,0.98,0.07,-0.01,0.18
1697352994.17,0.04,0.21,0.97,0,0.5,43.3,0.98,0.07,-0.01,0.18
1697352994.18,0.06,0.25,1.02,0.9,0.1,46.2,0.94,0.07,-0.02,0.32
1697352994.19,0.06,0.25,1.02,1.3,0.1,46.2,0.94,0.07,-0.02,0.33
1697352994.2,0.1,0.28,0.72,1.4,0.1,46.3,0.94,0.07,-0.02,0.33
1697352994.21,-0.05,0.22,1.3,0.6,-0.5,46.5,0.94,0.07,-0.02,0.33
1697352994.22,0.1,0.29,0.76,0,-0.6,46.7,0.94,0.07,-0.02,0.34
1697352994.23,0.01,0.26,1.14,-0.1,-0.8,46.9,0.94,0.07,-0.02,0.34
1697352994.24,0,0.28,1.02,-0.2,-0.8,47.1,0.94,0.07,-0.02,0.35
1697352994.25,0.04,0.28,1.11,-0.2,-0.9,47.1,0.93,0.07,-0.02,0.35
1697352994.26,0.06,0.24,0.9,0,-0.9,47.2,0.93,0.07,-0.02,0.35
1697352994.27,0.05,0.26,1.16,0,-0.8,47.2,0.93,0.07,-0.02,0.36
1697352994.28,0.04,0.27,1.09,0,-0.4,47.2,0.93,0.07,-0.02,0.36
1697352994.29,0.03,0.26,0.96,-0.4,-0.1,47.2,0.93,0.07,-0.02,0.37
1697352994.3,-0.01,0.28,1.01,-0.3,0.2,47.2,0.93,0.07,-0.02,0.37
1697352994.31,0.04,0.26,0.97,0,0.8,47.2,0.92,0.07,-0.02,0.37
1697352994.32,-0,0.27,1.1,0.1,1.2,47.3,0.92,0.07,-0.02,0.37
1697352994.33,0.07,0.26,0.93,0,1.2,47.3,0.92,0.07,-0.02,0.38
1697352994.34,0.04,0.29,1.1,0,1.2,47.3,0.92,0.07,-0.02,0.38
1697352994.35,0.03,0.29,0.95,-1,0.8,47.8,0.92,0.07,-0.02,0.39
1697352994.36,0.02,0.3,0.95,-1.6,0.3,48,0.92,0.07,-0.02,0.39
1697352994.37,0.02,0.32,0.95,-1.1,0.1,48.2,0.92,0.07,-0.02,0.39
1697352994.38,0.02,0.32,0.95,-1.1,0.1,48.2,0.91,0.07,-0.02,0.4
1697352994.39,0.04,0.26,0.83,-0.7,-0.4,48.6,0.91,0.07,-0.02,0.41
1697352994.4,0.01,0.26,1.01,-0.7,-0.4,48.6,0.91,0.07,-0.02,0.41
1697352994.41,0.03,0.29,0.9,-0.7,-0.6,48.6,0.91,0.07,-0.02,0.41
1697352994.42,0.03,0.29,0.9,-0.7,-0.6,48.6,0.91,0.07,-0.02,0.41
1697352994.43,0.06,0.25,0.98,-0.7,-0.6,48.7,0.91,0.07,-0.02,0.42
1697352994.44,0.06,0.25,0.98,-1.1,-0.7,48.5,0.9,0.07,-0.02,0.42
1697352994.45,-0.03,0.31,1.19,-1.7,-0.6,48.4,0.9,0.07,-0.02,0.43
1697352994.46,-0.03,0.31,1.19,-1.4,-0.4,48.6,0.9,0.07,-0.02,0.43
1697352994.47,0.01,0.3,0.96,-0.2,-0.5,48.7,0.9,0.07,-0.02,0.43
1697352994.48,-0.01,0.26,1.03,0.3,0.3,48.9,0.9,0.07,-0.02,0.44
1697352994.49,-0.01,0.26,1.03,0.7,1.9,48.9,0.89,0.07,-0.02,0.44
1697352994.5,0.01,0.19,1,-0.4,2.4,49.2,0.89,0.07,-0.02,0.44
1697352994.51,0.04,0.26,1.07,-1.7,2.2,49.4,0.89,0.07,-0.02,0.45
1697352994.52,-0,0.3,1.05,-1.7,1.7,49.8,0.89,0.07,-0.02,0.45
1697352994.53,0.03,0.37,1.04,-0.7,1.1,50.1,0.89,0.07,-0.02,0.46
1697352994.54,0.05,0.35,1.1,0.2,0.5,50.2,0.88,0.07,-0.02,0.46
1697352994.55,0.01,0.32,1.01,0.7,0.2,50.4,0.88,0.07,-0.02,0.47
1697352994.56,0.02,0.23,1.05,0.6,0,50.5,0.88,0.07,-0.03,0.47
1697352994.57,-0.03,0.25,0.93,-0.1,0,50.3,0.88,0.07,-0.03,0.47
1697352994.58,-0.03,0.25,0.93,-0.1,0,50.3,0.88,0.07,-0.03,0.47
1697352994.59,-0.03,0.25,0.93,-0.1,0,50.3,0.88,0.07,-0.03,0.47
1697352994.6,-0.03,0.25,0.93,-0.1,0,50.3,0.88,0.07,-0.03,0.47
1697352994.61,-0.03,0.25,0.93,-0.1,0,50.3,0.88,0.07,-0.03,0.47
1697352994.62,-0.03,0.25,0.93,-0.1,0,50.3,0.88,0.07,-0.03,0.47
1697352994.63,-0.03,0.25,0.93,-0.1,0,50.3,0.88,0.07,-0.03,0.47
1697352994.64,-0.03,0.25,0.93,-0.1,0,50.3,0.88,0.07,-0.03,0.47
1697352994.65,-0.03,0.25,0.93,-0.1,0,50.3,0.88,0.07,-0.03,0.47
1697352994.66,-0.03,0.25,0.93,-0.1,0,50.3,0.88,0.07,-0.03,0.47
1697352994.67,-0.03,0.25,0.93,-0.1,0,50.3,0.88,0.07,-0.03,0.47
1697352994.68,-0.03,0.25,0.93,-0.1,0,50.3,0.88,0.07,-0.03,0.47
1697352994.69,-0.03,0.25,0.93,-0.1,0,50.3,0.88,0.07,-0.03,0.47
1697352994.7,-0.03,0.25,0.93,-0.1,0,50.3,0.88,0.07,-0.03,0.47
1697352994.71,-0.03,0.25,0.93,-0.1,0,50.3,0.88,0.07,-0.03,0.47
1697352994.72,0.04,0.31,0.99,1.3,1,50.7,0.85,0.07,-0.03,0.53
1697352994.73,-0,0.36,1.06,0.1,1.5,51.6,0.84,0.07,-0.03,0.53
1697352994.74,0.08,0.31,0.98,0.1,1.5,51.6,0.84,0.07,-0.03,0.53
1697352994.75,0.04,0.34,0.96,0.3,1.6,52.3,0.84,0.07,-0.03,0.54
1697352994.76,0.04,0.36,1.11,0.3,1.6,52.3,0.84,0.07,-0.03,0.54
1697352994.77,0.04,0.36,1.11,0.1,1.2,52.5,0.83,0.07,-0.03,0.55
1697352994.78,0.04,0.38,1.04,0,0.5,52.5,0.83,0.07,-0.03,0.55
1697352994.79,-0.01,0.31,1.04,0,0.5,52.5,0.83,0.07,-0.03,0.55
1697352994.8,0.03,0.32,1.03,-0.6,0.4,52.2,0.83,0.07,-0.03,0.56
1697352994.81,0,0.33,0.97,-0.6,0.4,52.2,0.82,0.07,-0.03,0.56
1697352994.82,0,0.33,0.97,-1.1,0.4,52.1,0.82,0.07,-0.03,0.57
1697352994.83,0.03,0.4,1.18,-1.1,0.2,51.9,0.82,0.07,-0.03,0.57
1697352994.84,0.03,0.4,1.18,0.2,0,51.9,0.82,0.07,-0.03,0.57
1697352994.85,0.07,0.33,0.96,1,-0.4,51.9,0.81,0.07,-0.03,0.58
1697352994.86,0.03,0.27,0.98,2.1,-0.5,51.9,0.81,0.07,-0.03,0.58
1697352994.87,0.03,0.32,0.82,-0.2,0.5,52.9,0.81,0.07,-0.03,0.59
1697352994.88,0,0.27,1.04,-0.2,0.5,52.9,0.8,0.07,-0.03,0.59
1697352994.89,0.06,0.38,0.81,-1.5,0.9,53.2,0.8,0.07,-0.03,0.59
1697352994.9,0,0.4,0.98,-1.6,1.6,54.4,0.8,0.07,-0.03,0.6
1697352994.91,-0.06,0.37,1.33,-0.3,2.1,54.7,0.8,0.07,-0.03,0.6
1697352994.92,0.06,0.41,0.87,0.5,2.1,54.8,0.79,0.07,-0.03,0.6
1697352994.93,0.01,0.31,1.19,0.7,1.7,55,0.79,0.07,-0.03,0.61
1697352994.94,0.07,0.32,1.02,0.4,1.4,54.7,0.79,0.07,-0.03,0.61
1697352994.95,0.12,0.38,1.09,0.3,1.1,54.6,0.78,0.07,-0.03,0.62
1697352994.96,0.11,0.35,0.96,0.7,0,54.4,0.78,0.07,-0.03,0.62
1697352994.97,0.03,0.37,1.09,0.7,0,54.4,0.78,0.07,-0.03,0.62
1697352994.98,0.08,0.3,0.96,1.3,-1.3,54,0.77,0.07,-0.03,0.63
1697352994.99,0.08,0.3,0.96,1.3,-1.3,54,0.77,0.07,-0.03,0.63
1697352995,0.04,0.28,1.03,-1.1,-1,53.4,0.77,0.07,-0.03,0.63
1697352995.01,0.04,0.28,1.03,-1.1,-1,53.4,0.77,0.07,-0.03,0.63
1697352995.02,0.04,0.35,0.78,-2.9,0.6,53.5,0.76,0.07,-0.03,0.64
1697352995.03,0.03,0.41,0.83,-2.9,0.6,53.5,0.76,0.07,-0.03,0.64
1697352995.04,0.07,0.47,0.8,2.6,1.8,54,0.76,0.07,-0.03,0.65
1697352995.05,0.06,0.41,1.04,3.6,1.8,54.4,0.76,0.07,-0.03,0.65
1697352995.06,0.02,0.31,1.09,2.7,1.8,54.8,0.75,0.07,-0.03,0.66
1697352995.07,0.02,0.29,0.98,1,1.6,55.2,0.75,0.07,-0.03,0.66
1697352995.08,0.06,0.3,0.95,-0.6,1.2,55.5,0.74,0.07,-0.03,0.66
1697352995.09,0.03,0.38,1.09,-1.4,0.5,55.7,0.74,0.07,-0.04,0.67
1697352995.1,0.1,0.38,1.14,-1.1,0,55.7,0.74,0.07,-0.04,0.67
1697352995.11,0.06,0.35,1.18,-0.2,-0.6,55.2,0.73,0.07,-0.04,0.68
1697352995.12,0.06,0.35,1.18,-0.2,-0.6,55.2,0.73,0.07,-0.04,0.68
1697352995.13,0.06,0.35,1.18,-0.2,-0.6,55.2,0.73,0.07,-0.04,0.68
1697352995.14,0.06,0.35,1.18,-0.2,-0.6,55.2,0.73,0.07,-0.04,0.68
1697352995.15,0.06,0.35,1.18,-0.2,-0.6,55.2,0.73,0.07,-0.04,0.68
1697352995.16,0.06,0.35,1.18,-0.2,-0.6,55.2,0.73,0.07,-0.04,0.68
1697352995.17,0.06,0.35,1.18,-0.2,-0.6,55.2,0.73,0.07,-0.04,0.68
1697352995.18,0.06,0.35,1.18,-0.2,-0.6,55.2,0.73,0.07,-0.04,0.68
1697352995.19,0.06,0.35,1.18,-0.2,-0.6,55.2,0.73,0.07,-0.04,0.68
1697352995.2,0.06,0.35,1.18,-0.2,-0.6,55.2,0.73,0.07,-0.04,0.68
1697352995.21,0.06,0.35,1.18,-0.2,-0.6,55.2,0.73,0.07,-0.04,0.68
1697352995.22,0.06,0.35,1.18,-0.2,-0.6,55.2,0.73,0.07,-0.04,0.68
1697352995.23,0.06,0.35,1.18,-0.2,-0.6,55.2,0.73,0.07,-0.04,0.68
1697352995.24,0.06,0.35,1.18,-0.2,-0.6,55.2,0.73,0.07,-0.04,0.68
1697352995.25,0.06,0.35,1.18,-0.2,-0.6,55.2,0.73,0.07,-0.04,0.68
1697352995.26,0.06,0.35,1.18,-0.2,-0.6,55.2,0.73,0.07,-0.04,0.68
1697352995.27,0.06,0.35,1.18,-0.2,-0.6,55.2,0.73,0.07,-0.04,0.68
1697352995.28,0.06,0.35,1.18,-0.2,-0.6,55.2,0.73,0.07,-0.04,0.68
1697352995.29,0.06,0.35,1.18,-0.2,-0.6,55.2,0.73,0.07,-0.04,0.68
1697352995.3,0.06,0.35,1.18,-0.2,-0.6,55.2,0.73,0.07,-0.04,0.68
1697352995.31,0.06,0.35,1.18,-0.2,-0.6,55.2,0.73,0.07,-0.04,0.68
1697352995.32,0.06,0.35,1.18,-0.2,-0.6,55.2,0.73,0.07,-0.04,0.68
1697352995.33,0.06,0.35,1.18,-0.2,-0.6,55.2,0.73,0.07,-0.04,0.68
1697352995.34,0.06,0.35,1.18,-0.2,-0.6,55.2,0.73,0.07,-0.04,0.68
1697352995.35,0.06,0.35,1.18,-0.2,-0.6,55.2,0.73,0.07,-0.04,0.68
1697352995.36,0.06,0.35,1.18,-0.2,-0.6,55.2,0.73,0.07,-0.04,0.68
1697352995.37,0.06,0.35,1.18,-0.2,-0.6,55.2,0.73,0.07,-0.04,0.68
1697352995.38,0.06,0.35,1.18,-0.2,-0.6,55.2,0.73,0.07,-0.04,0.68
1697352995.39,0.06,0.35,1.18,-0.2,-0.6,55.2,0.73,0.07,-0.04,0.68
1697352995.4,0.06,0.35,1.18,-0.2,-0.6,55.2,0.73,0.07,-0.04,0.68
1697352995.41,0.06,0.35,1.18,-0.2,-0.6,55.2,0.73,0.07,-0.04,0.68
1697352995.42,0.06,0.35,1.18,-0.2,-0.6,55.2,0.73,0.07,-0.04,0.68
1697352995.43,0.06,0.35,1.18,-0.2,-0.6,55.2,0.73,0.07,-0.04,0.68
1697352995.44,0.06,0.35,1.18,-0.2,-0.6,55.2,0.73,0.07,-0.04,0.68
1697352995.45,0.06,0.35,1.18,-0.2,-0.6,55.2,0.73,0.07,-0.04,0.68
1697352995.46,0.06,0.35,1.18,-0.2,-0.6,55.2,0.73,0.07,-0.04,0.68
1697352995.47,0.06,0.35,1.18,-0.2,-0.6,55.2,0.73,0.07,-0.04,0.68
1697352995.48,0.06,0.35,1.18,-0.2,-0.6,55.2,0.73,0.07,-0.04,0.68
1697352995.49,0.06,0.35,1.18,-0.2,-0.6,55.2,0.73,0.07,-0.04,0.68
1697352995.5,0.06,0.35,1.18,-0.2,-0.6,55.2,0.73,0.07,-0.04,0.68
1697352995.51,0.19,-0.11,0.83,-0.2,-1.1,23.5,0.64,0.06,-0.04,0.76
1697352995.52,0.12,-0.05,0.94,-1.1,-1,23.4,0.64,0.06,-0.05,0.77
1697352995.53,0.18,0.15,0.92,-3.6,-0.6,22.3,0.64,0.06,-0.05,0.77
1697352995.54,0.2,0.16,0.76,-3.5,-0.2,21.4,0.63,0.06,-0.05,0.77
1697352995.55,0.12,0.09,0.91,-1,-0.1,21,0.63,0.06,-0.05,0.77
1697352995.56,0.14,-0.1,0.96,2.5,-0.1,20.4,0.63,0.06,-0.05,0.77
1697352995.57,0.25,-0.2,0.73,5,-0.4,19.9,0.63,0.06,-0.05,0.77
1697352995.58,0.18,-0.11,0.98,4.3,-0.7,19.1,0.63,0.06,-0.05,0.77
1697352995.59,0.13,0.04,1.09,1.3,-0.9,18.3,0.63,0.06,-0.05,0.78
1697352995.6,0.21,0.19,0.64,-2.1,-1.2,17.3,0.63,0.06,-0.05,0.78
1697352995.61,0.15,0.09,0.96,-2.9,-1.4,16.6,0.62,0.06,-0.05,0.78
1697352995.62,0.15,0.09,0.96,-2.9,-1.4,16.6,0.62,0.06,-0.05,0.78
1697352995.63,0.21,-0.21,0.87,3.8,0,14.8,0.62,0.06,-0.05,0.78
1697352995.64,0.21,-0.21,0.87,4.1,0.1,13.6,0.62,0.06,-0.05,0.78
1697352995.65,0.16,-0.31,0.9,1.2,-0.2,12.2,0.62,0.06,-0.05,0.78
1697352995.66,0.13,-0.18,0.74,-3.3,-0.2,10.7,0.62,0.06,-0.05,0.78
1697352995.67,0.13,0.01,0.75,-6.8,0.5,9.2,0.62,0.06,-0.05,0.78
1697352995.68,0.14,-0.02,0.94,-6.6,1.2,8.1,0.62,0.06,-0.05,0.78
1697352995.69,0.17,-0.03,0.89,-6.6,1.2,8.1,0.62,0.06,-0.05,0.78
1697352995.7,0.17,-0.3,1.13,1.1,1.5,1.7,0.62,0.06,-0.05,0.78
1697352995.71,0.17,-0.3,1.13,1.1,1.5,1.7,0.62,0.06,-0.05,0.78
1697352995.72,0.14,-0.4,1,-1.2,1.5,-0.5,0.62,0.06,-0.05,0.78
1697352995.73,0.15,-0.31,1.1,-3.7,1.4,-2.2,0.62,0.06,-0.05,0.78
1697352995.74,0.14,-0.15,1.15,-4.1,1.3,-3.8,0.62,0.06,-0.05,0.78
1697352995.75,0.11,-0.14,1.17,-3.1,1.5,-4.6,0.62,0.06,-0.05,0.78
1697352995.76,0.1,-0.21,1.16,-0.6,1.4,-5.1,0.62,0.06,-0.05,0.78
1697352995.77,0.12,-0.3,1.14,0.9,1.8,-5.6,0.62,0.06,-0.05,0.78
1697352995.78,0.15,-0.42,1.1,0.5,2,-6.1,0.62,0.06,-0.05,0.78
1697352995.79,0.15,-0.42,1.1,0.5,2,-6.1,0.62,0.06,-0.05,0.78
1697352995.8,0.2,-0.31,0.96,-1.7,2,-7.3,0.62,0.06,-0.05,0.78
1697352995.81,0.2,-0.31,0.96,-3,1.7,-8.3,0.62,0.06,-0.05,0.78
1697352995.82,0.13,-0.23,1.11,-2.6,1,-9.5,0.62,0.06,-0.05,0.78
1697352995.83,0.13,-0.26,0.85,-0.3,0.2,-10.4,0.62,0.06,-0.05,0.78
1697352995.84,0.13,-0.26,0.85,1.7,-0.3,-11.2,0.62,0.06,-0.05,0.78
1697352995.85,0.13,-0.33,0.86,2.2,-1.4,-13,0.63,0.06,-0.05,0.78
1697352995.86,0.12,-0.29,0.83,0.6,-1.6,-13.6,0.63,0.06,-0.05,0.78
1697352995.87,0.1,-0.24,0.91,-0.3,-1.7,-13.9,0.63,0.06,-0.05,0.78
1697352995.88,0.07,-0.18,1.14,0,-1.7,-14.2,0.63,0.06,-0.05,0.77
1697352995.89,0.11,-0.13,1.17,1.4,-1.5,-14.1,0.63,0.06,-0.05,0.77
1697352995.9,0.11,-0.13,1.17,1.4,-1.5,-14.1,0.63,0.06,-0.05,0.77
1697352995.91,0.11,-0.13,1.17,1.4,-1.5,-14.1,0.63,0.06,-0.05,0.77
1697352995.92,0.11,-0.13,1.17,1.4,-1.5,-14.1,0.63,0.06,-0.05,0.77
1697352995.93,0.11,-0.13,1.17,1.4,-1.5,-14.1,0.63,0.06,-0.05,0.77
1697352995.94,0.11,-0.13,1.17,1.4,-1.5,-14.1,0.63,0.06,-0.05,0.77
1697352995.95,0.11,-0.13,1.17,1.4,-1.5,-14.1,0.63,0.06,-0.05,0.77
1697352995.96,0.11,-0.13,1.17,1.4,-1.5,-14.1,0.63,0.06,-0.05,0.77
1697352995.97,0.11,-0.13,1.17,1.4,-1.5,-14.1,0.63,0.06,-0.05,0.77
1697352995.98,0.11,-0.13,1.17,1.4,-1.5,-14.1,0.63,0.06,-0.05,0.77
1697352995.99,0.11,-0.13,1.17,1.4,-1.5,-14.1,0.63,0.06,-0.05,0.77
1697352996,0.11,-0.13,1.17,1.4,-1.5,-14.1,0.63,0.06,-0.05,0.77
1697352996.01,0.11,-0.13,1.17,1.4,-1.5,-14.1,0.63,0.06,-0.05,0.77
1697352996.02,0.11,-0.13,1.17,1.4,-1.5,-14.1,0.63,0.06,-0.05,0.77
1697352996.03,0.11,-0.45,0.83,-0.7,-1.9,-23.5,0.65,0.06,-0.05,0.76
1697352996.04,0.11,-0.45,0.83,-0.7,-1.9,-23.5,0.65,0.06,-0.05,0.76
1697352996.05,0.03,-0.35,1.25,-1.2,-1.6,-24.9,0.65,0.06,-0.05,0.76
1697352996.06,0.03,-0.35,1.25,-1.2,-1.6,-24.9,0.65,0.06,-0.05,0.76
1697352996.07,0.06,-0.36,1.19,1.5,-1.3,-26.4,0.65,0.06,-0.05,0.75
1697352996.08,0.05,-0.39,0.82,1.5,-1.3,-26.4,0.65,0.06,-0.05,0.75
1697352996.09,0.07,-0.47,0.91,0.7,-1,-27.5,0.66,0.06,-0.05,0.75
1697352996.1,0.07,-0.47,0.91,0.7,-1,-27.5,0.66,0.06,-0.05,0.75
1697352996.11,0.05,-0.38,1.21,-1.6,-1.6,-28.3,0.66,0.06,-0.05,0.75
1697352996.12,0.03,-0.08,1.43,-1.6,-1.6,-28.3,0.66,0.06,-0.05,0.75
1697352996.13,0.14,-0.26,1.3,1.7,0.1,-29.2,0.67,0.06,-0.05,0.74
1697352996.14,0.18,-0.24,0.89,1.7,0.1,-29.2,0.67,0.06,-0.05,0.74
1697352996.15,0.06,-0.38,0.94,1.4,1.6,-29.2,0.67,0.06,-0.05,0.74
1697352996.16,0.06,-0.41,0.86,0,2.4,-29.3,0.67,0.06,-0.05,0.74
1697352996.17,0.06,-0.41,0.86,-0.1,2.5,-30.2,0.67,0.06,-0.05,0.74
1697352996.18,0.04,-0.38,1.21,-0.4,2.1,-30.6,0.67,0.06,-0.05,0.74
1697352996.19,0.1,-0.39,1.42,-0.7,1.4,-30.8,0.68,0.06,-0.05,0.73
1697352996.2,0.18,-0.3,1.22,-0.4,0.3,-31.3,0.68,0.06,-0.05,0.73
1697352996.21,0.19,-0.29,1.16,-0.7,-1.1,-31.5,0.68,0.06,-0.05,0.73
1697352996.22,0.12,-0.33,1.09,-1.1,-2.3,-31.7,0.68,0.06,-0.05,0.73
1697352996.23,0.09,-0.37,1.07,-1.1,-2.6,-31.6,0.68,0.06,-0.05,0.73
1697352996.24,0.09,-0.33,0.98,-1.1,-3.1,-31.4,0.69,0.06,-0.05,0.72
1697352996.25,0.03,-0.33,0.88,-0.4,-2.6,-31.3,0.69,0.06,-0.05,0.72
1697352996.26,0.08,-0.38,0.76,0.1,-2,-31.6,0.69,0.06,-0.05,0.72
1697352996.27,0.08,-0.39,0.95,-0.1,-0.9,-31.5,0.69,0.06,-0.05,0.72
1697352996.28,0.09,-0.35,1.02,-1,0,-31.4,0.69,0.06,-0.05,0.72
1697352996.29,0.01,-0.31,1.4,-1.8,0.7,-31.6,0.7,0.06,-0.05,0.71
1697352996.3,0.13,-0.33,1.16,-2.2,1.3,-31.8,0.7,0.06,-0.05,0.71
1697352996.31,0.07,-0.31,1.18,-1.7,1.3,-31.8,0.7,0.06,-0.05,0.71
1697352996.32,0.08,-0.4,0.97,-0.6,1.2,-32,0.7,0.06,-0.05,0.71
1697352996.33,0.03,-0.37,1.34,0.5,1.2,-32.3,0.7,0.06,-0.04,0.71
1697352996.34,0.13,-0.39,1.16,0.5,1.2,-32.3,0.7,0.06,-0.04,0.71
1697352996.35,0.12,-0.45,0.96,1.9,0.5,-32.4,0.71,0.06,-0.04,0.7
1697352996.36,0.11,-0.4,0.86,1.5,-0.1,-32.4,0.71,0.06,-0.04,0.7
1697352996.37,0.06,-0.35,1,0,-0.1,-32.2,0.71,0.06,-0.04,0.7
1697352996.38,0.14,-0.43,1,-0.5,-0.8,-32.2,0.71,0.06,-0.04,0.7
1697352996.39,0.07,-0.47,1.01,0.5,-0.8,-32.1,0.71,0.06,-0.04,0.7
1697352996.4,0.15,-0.33,0.79,0,-0.6,-32.2,0.72,0.06,-0.04,0.69
1697352996.41,0.1,-0.22,0.87,-2.9,-0.7,-32,0.72,0.06,-0.04,0.69
1697352996.42,0.1,-0.22,0.87,-2.9,-0.7,-32,0.72,0.06,-0.04,0.69
1697352996.43,0.1,-0.22,0.87,-2.9,-0.7,-32,0.72,0.06,-0.04,0.69
1697352996.44,0.1,-0.22,0.87,-2.9,-0.7,-32,0.72,0.06,-0.04,0.69
1697352996.45,0.1,-0.22,0.87,-2.9,-0.7,-32,0.72,0.06,-0.04,0.69
1697352996.46,0.1,-0.22,0.87,-2.9,-0.7,-32,0.72,0.06,-0.04,0.69
1697352996.47,0.1,-0.22,0.87,-2.9,-0.7,-32,0.72,0.06,-0.04,0.69
1697352996.48,0.1,-0.22,0.87,-2.9,-0.7,-32,0.72,0.06,-0.04,0.69
1697352996.49,0.1,-0.22,0.87,-2.9,-0.7,-32,0.72,0.06,-0.04,0.69
1697352996.5,0.1,-0.22,0.87,-2.9,-0.7,-32,0.72,0.06,-0.04,0.69
1697352996.51,0.1,-0.22,0.87,-2.9,-0.7,-32,0.72,0.06,-0.04,0.69
1697352996.52,0.1,-0.22,0.87,-2.9,-0.7,-32,0.72,0.06,-0.04,0.69
1697352996.53,0.1,-0.22,0.87,-2.9,-0.7,-32,0.72,0.06,-0.04,0.69
1697352996.54,0.1,-0.22,0.87,-2.9,-0.7,-32,0.72,0.06,-0.04,0.69
1697352996.55,0.1,-0.4,1.41,0.2,-0.3,-35.3,0.75,0.07,-0.04,0.66
1697352996.56,0.18,-0.55,0.84,-1.5,-0.8,-35.6,0.75,0.07,-0.04,0.66
1697352996.57,0.02,-0.53,0.67,-3.7,-0.5,-35.8,0.75,0.07,-0.04,0.66
1697352996.58,0.05,-0.32,0.98,-4.2,0.1,-35.4,0.75,0.07,-0.04,0.65
1697352996.59,0.11,-0.37,1.05,-2.9,0,-35.6,0.76,0.07,-0.04,0.65
1697352996.6,0.08,-0.38,1.11,-0.6,0,-35.7,0.76,0.07,-0.04,0.65
1697352996.61,0.08,-0.28,0.72,1.3,0.7,-35.2,0.76,0.07,-0.04,0.65
1697352996.62,0.04,-0.46,0.75,2.2,1.7,-35.3,0.76,0.07,-0.04,0.64
1697352996.63,0.14,-0.64,0.71,0.5,2.2,-35.9,0.76,0.07,-0.04,0.64
1697352996.64,0.1,-0.66,0.93,-2.3,1.8,-36,0.77,0.07,-0.04,0.64
1697352996.65,0.14,-0.57,0.95,-2.3,1.8,-36,0.77,0.07,-0.04,0.64
1697352996.66,0.1,-0.44,1.2,-3.2,0.4,-37.3,0.77,0.07,-0.04,0.63
1697352996.67,0.11,-0.26,0.92,-0.9,0,-37.2,0.77,0.07,-0.04,0.63
1697352996.68,0.1,-0.35,0.85,1.2,-0.3,-37.3,0.77,0.07,-0.04,0.63
1697352996.69,0.1,-0.35,0.85,1.2,-0.3,-37.3,0.77,0.07,-0.04,0.63
1697352996.7,0.11,-0.5,0.98,-0.4,-0.7,-37.9,0.78,0.07,-0.04,0.62
1697352996.71,0.11,-0.5,0.98,-0.4,-0.7,-37.9,0.78,0.07,-0.04,0.62
1697352996.72,0.09,-0.43,1.06,-4,-0.6,-38.4,0.78,0.07,-0.04,0.62
1697352996.73,0.09,-0.43,1.06,-4,-0.6,-38.4,0.78,0.07,-0.04,0.62
1697352996.74,0.11,-0.34,0.91,-3.1,-0.3,-38.1,0.78,0.07,-0.04,0.61
1697352996.75,0.12,-0.41,0.92,-0.4,0,-37.9,0.79,0.07,-0.04,0.61
1697352996.76,0.08,-0.48,1.11,1.7,-0.3,-37.8,0.79,0.07,-0.04,0.61
1697352996.77,0.08,-0.53,1.06,1.9,0,-37.7,0.79,0.07,-0.04,0.6
1697352996.78,-0.06,-0.52,1.04,1,0.6,-38,0.79,0.07,-0.04,0.6
1697352996.79,-0.06,-0.52,1.04,1,0.6,-38,0.79,0.07,-0.04,0.6
1697352996.8,0.06,-0.47,0.96,0.2,1.7,-38.1,0.8,0.07,-0.04,0.6
1697352996.81,0.1,-0.47,1.07,-0.7,2.4,-38.1,0.8,0.07,-0.04,0.6
1697352996.82,0.1,-0.47,1.07,-2.4,2.6,-38.1,0.8,0.07,-0.04,0.59
1697352996.83,0.14,-0.33,0.81,-2.6,2.5,-38.5,0.8,0.07,-0.04,0.59
1697352996.84,0.14,-0.33,0.81,-1.9,1.7,-38.6,0.81,0.07,-0.04,0.59
1697352996.85,0.11,-0.42,1.01,-0.9,1.1,-38.7,0.81,0.07,-0.04,0.58
1697352996.86,0.03,-0.46,0.98,-1.1,0.3,-39.2,0.81,0.07,-0.04,0.58
1697352996.87,0.07,-0.39,0.93,-2.4,-0.2,-39.7,0.81,0.07,-0.04,0.58
1697352996.88,0.08,-0.5,1.11,-2.3,-0.4,-40.3,0.81,0.07,-0.03,0.58
1697352996.89,0.14,-0.37,0.87,0,-0.5,-40.7,0.82,0.07,-0.03,0.57
1697352996.9,0.14,-0.55,0.91,1.2,-0.4,-40.8,0.82,0.07,-0.03,0.57
1697352996.91,-0.02,-0.59,1.06,0.9,-0.2,-40.8,0.82,0.07,-0.03,0.57
1697352996.92,0.03,-0.49,0.97,1.2,0.2,-40.7,0.82,0.07,-0.03,0.56
1697352996.93,0.07,-0.61,1.2,1.4,0.8,-40.7,0.82,0.07,-0.03,0.56
1697352996.94,0.12,-0.57,0.92,0.6,1.4,-40.9,0.82,0.07,-0.03,0.56
1697352996.95,0.12,-0.57,0.92,0.6,1.4,-40.9,0.82,0.07,-0.03,0.56
1697352996.96,0.12,-0.57,0.92,0.6,1.4,-40.9,0.82,0.07,-0.03,0.56
1697352996.97,0.12,-0.57,0.92,0.6,1.4,-40.9,0.82,0.07,-0.03,0.56
1697352996.98,0.12,-0.57,0.92,0.6,1.4,-40.9,0.82,0.07,-0.03,0.56
1697352996.99,0.12,-0.57,0.92,0.6,1.4,-40.9,0.82,0.07,-0.03,0.56
1697352997,0.12,-0.57,0.92,0.6,1.4,-40.9,0.82,0.07,-0.03,0.56
1697352997.01,0.12,-0.57,0.92,0.6,1.4,-40.9,0.82,0.07,-0.03,0.56
1697352997.02,0.12,-0.57,0.92,0.6,1.4,-40.9,0.82,0.07,-0.03,0.56
1697352997.03,0.12,-0.57,0.92,0.6,1.4,-40.9,0.82,0.07,-0.03,0.56
1697352997.04,0.12,-0.57,0.92,0.6,1.4,-40.9,0.82,0.07,-0.03,0.56
1697352997.05,0.12,-0.57,0.92,0.6,1.4,-40.9,0.82,0.07,-0.03,0.56
1697352997.06,0.12,-0.57,0.92,0.6,1.4,-40.9,0.82,0.07,-0.03,0.56
1697352997.07,0.12,-0.57,0.92,0.6,1.4,-40.9,0.85,0.07,-0.03,0.52
1697352997.08,0.02,-0.48,0.96,0.6,-1.6,-42,0.85,0.07,-0.03,0.52
1697352997.09,0.02,-0.48,0.96,0.6,-1.6,-42,0.85,0.07,-0.03,0.51
1697352997.1,-0.02,-0.49,0.91,1.4,-1.3,-42.6,0.86,0.07,-0.03,0.51
1697352997.11,-0.02,-0.49,0.91,1.4,-1.3,-42.6,0.86,0.07,-0.03,0.51
1697352997.12,0.16,-0.49,0.91,-1.2,0,-42.8,0.86,0.07,-0.03,0.51
1697352997.13,0.02,-0.47,0.86,-1.2,0,-42.8,0.86,0.07,-0.03,0.5
1697352997.14,0.02,-0.47,0.86,-2,0.8,-42.6,0.86,0.07,-0.03,0.5
1697352997.15,0.09,-0.49,0.99,-1.6,1.7,-42.4,0.87,0.07,-0.03,0.49
1697352997.16,0.12,-0.57,0.97,-0.4,1.9,-42.3,0.87,0.07,-0.03,0.49
1697352997.17,0.05,-0.55,1.07,-0.3,1.9,-42.3,0.87,0.07,-0.03,0.49
1697352997.18,0.09,-0.55,0.91,-0.6,1.8,-42.4,0.87,0.07,-0.03,0.49
1697352997.19,0.09,-0.55,0.91,-0.3,1.4,-42.5,0.87,0.07,-0.03,0.48
1697352997.2,0.09,-0.51,0.93,-0.4,1.1,-42.7,0.87,0.07,-0.03,0.48
1697352997.21,0.06,-0.45,1.03,0.5,0.6,-42.7,0.88,0.07,-0.02,0.48
1697352997.22,0.05,-0.57,0.83,1.8,0.5,-42.7,0.88,0.07,-0.02,0.47
1697352997.23,-0.01,-0.55,1.01,1.5,0.3,-42.7,0.88,0.07,-0.02,0.47
1697352997.24,0.17,-0.61,0.73,0.6,-0.3,-42.7,0.88,0.07,-0.02,0.47
1697352997.25,0.14,-0.48,1.36,0.5,-0.8,-42.8,0.88,0.07,-0.02,0.46
1697352997.26,0.12,-0.59,0.97,1.5,-1.8,-42.8,0.89,0.07,-0.02,0.46
1697352997.27,0.11,-0.58,1.1,2,-1.9,-42.6,0.89,0.07,-0.02,0.45
1697352997.28,-0,-0.58,1.14,2.1,-1.8,-42.8,0.89,0.07,-0.02,0.45
1697352997.29,0.05,-0.62,0.86,0.4,-0.5,-43.1,0.89,0.07,-0.02,0.45
1697352997.3,0.04,-0.51,1.1,-0.3,0.1,-43.2,0.89,0.07,-0.02,0.44
1697352997.31,0.01,-0.47,0.9,-1.6,1.3,-43.5,0.89,0.07,-0.02,0.44
1697352997.32,0.09,-0.42,1.07,-2.3,2.1,-43.7,0.9,0.07,-0.02,0.44
1697352997.33,0.16,-0.33,0.98,-2.3,2.6,-43.9,0.9,0.07,-0.02,0.43
1697352997.34,0.06,-0.4,1.17,0.8,2.2,-43.7,0.9,0.07,-0.02,0.43
1697352997.35,0.15,-0.46,1.17,4.4,0.8,-43.4,0.9,0.07,-0.02,0.43
1697352997.36,-0.01,-0.84,1.22,7.5,-1.4,-43.6,0.9,0.07,-0.02,0.43
1697352997.37,0.15,-0.8,0.58,6.7,-3.4,-44.7,0.9,0.07,-0.02,0.42
1697352997.38,0.06,-0.7,1.04,0.4,-4.4,-45.2,0.9,0.07,-0.02,0.42
1697352997.39,0.13,-0.5,0.68,-5.7,-4.1,-45.1,0.91,0.07,-0.02,0.42
1697352997.4,0.09,-0.24,0.7,-8.3,-2.9,-44.9,0.91,0.07,-0.02,0.41
1697352997.41,0.08,-0.18,0.8,-6.5,-1.8,-44.1,0.91,0.07,-0.02,0.41
1697352997.42,0.1,-0.29,0.9,0.2,-0.2,-42.5,0.91,0.07,-0.02,0.41
1697352997.43,0.13,-0.54,0.83,2.6,0.5,-42.1,0.91,0.07,-0.02,0.4
1697352997.44,0.05,-0.66,1.03,2.1,1.3,-41.9,0.91,0.07,-0.02,0.4
1697352997.45,0.09,-0.67,0.79,0.3,2.1,-42.3,0.92,0.07,-0.02,0.4
1697352997.46,0.09,-0.67,0.79,0.3,2.1,-42.3,0.92,0.07,-0.02,0.39
1697352997.47,0.09,-0.67,0.79,0.3,2.1,-42.3,0.92,0.07,-0.02,0.39
1697352997.48,0.09,-0.67,0.79,0.3,2.1,-42.3,0.92,0.07,-0.02,0.39
1697352997.49,0.09,-0.67,0.79,0.3,2.1,-42.3,0.92,0.07,-0.02,0.39
1697352997.5,0.09,-0.67,0.79,0.3,2.1,-42.3,0.92,0.07,-0.02,0.39
1697352997.51,0.09,-0.67,0.79,0.3,2.1,-42.3,0.92,0.07,-0.02,0.39
1697352997.52,0.09,-0.67,0.79,0.3,2.1,-42.3,0.92,0.07,-0.02,0.39
1697352997.53,0.09,-0.67,0.79,0.3,2.1,-42.3,0.92,0.07,-0.02,0.39
1697352997.54,0.09,-0.67,0.79,0.3,2.1,-42.3,0.92,0.07,-0.02,0.39
1697352997.55,0.09,-0.67,0.79,0.3,2.1,-42.3,0.92,0.07,-0.02,0.39
1697352997.56,0.09,-0.67,0.79,0.3,2.1,-42.3,0.92,0.07,-0.02,0.39
1697352997.57,0.09,-0.67,0.79,0.3,2.1,-42.3,0.92,0.07,-0.02,0.39
1697352997.58,0.09,-0.67,0.79,0.3,2.1,-42.3,0.92,0.07,-0.02,0.39
1697352997.59,0.13,-0.43,0.93,5.7,6,-35.5,0.93,0.08,-0.01,0.35
1697352997.6,0.24,-0.25,0.97,-0.9,3.2,-33.4,0.94,0.08,-0.01,0.35
1697352997.61,0.24,-0.25,0.97,-0.9,3.2,-33.4,0.94,0.08,-0.01,0.34
1697352997.62,0.19,-0.23,0.86,-0.5,0.6,-32.3,0.94,0.08,-0.01,0.34
1697352997.63,0.25,-0.23,0.83,0.9,-1.2,-31.9,0.94,0.08,-0.01,0.34
1697352997.64,0.16,-0.25,0.89,2.6,-2.5,-31.6,0.94,0.08,-0.01,0.33
1697352997.65,0.12,-0.29,1,3.1,-3.4,-31.7,0.94,0.08,-0.01,0.33
1697352997.66,0.15,-0.39,0.96,1.9,-3.7,-31.7,0.94,0.08,-0.01,0.33
1697352997.67,0.18,-0.32,0.86,0.6,-3.5,-31.7,0.94,0.08,-0.01,0.33
1697352997.68,0.1,-0.29,1.07,-0.6,-2.9,-31.4,0.94,0.08,-0.01,0.32
1697352997.69,0.06,-0.19,1.16,-0.6,-2,-30.8,0.94,0.08,-0.01,0.32
1697352997.7,0.13,-0.21,1.08,0,-0.7,-30.3,0.94,0.08,-0.01,0.32
1697352997.71,0.11,-0.25,1.21,0.7,0.8,-29.2,0.94,0.08,-0.01,0.32
1697352997.72,0.04,-0.23,1.1,1.4,1.5,-28.7,0.95,0.08,-0.01,0.32
1697352997.73,0.01,-0.28,1.28,1.9,2.1,-28,0.95,0.08,-0.01,0.31
1697352997.74,0.08,-0.31,1.06,2,2.2,-27.3,0.95,0.08,-0.01,0.31
1697352997.75,0.15,-0.25,1.05,1.2,1.6,-26.4,0.95,0.08,-0.01,0.31
1697352997.76,0.15,-0.19,1.04,1,0.6,-25.1,0.95,0.08,-0.01,0.31
1697352997.77,0.15,-0.25,1.01,1.8,-0.4,-24.1,0.95,0.08,-0.01,0.3
1697352997.78,0.16,-0.22,0.95,1.8,-1.4,-23,0.95,0.08,-0.01,0.3
1697352997.79,0.17,-0.16,0.88,1.4,-2.1,-22,0.95,0.08,-0,0.3
1697352997.8,0.18,-0.22,0.95,0.7,-2.4,-20.9,0.95,0.08,-0,0.3
1697352997.81,0.12,-0.09,0.85,0.7,-2.4,-20.9,0.95,0.08,-0,0.3
1697352997.82,0.11,-0.26,1.08,0.9,-1.8,-19.6,0.95,0.08,-0,0.3
1697352997.83,0.02,-0.22,0.92,0.4,-1.1,-19.4,0.95,0.08,-0.01,0.29
1697352997.84,0.09,-0.27,1.04,0,0.1,-19.7,0.95,0.08,-0,0.29
1697352997.85,0.01,-0.19,0.79,-1,1,-19.9,0.95,0.08,-0,0.29
1697352997.86,0.07,-0.25,0.9,-1.5,2.2,-20.3,0.95,0.08,-0,0.29
1697352997.87,0.05,-0.21,1.36,-1.9,2.6,-20.8,0.95,0.08,-0,0.29
1697352997.88,0.21,-0.19,0.95,-2,3,-20.8,0.96,0.08,-0,0.29
1697352997.89,0.21,-0.19,0.95,-2,3,-20.8,0.96,0.08,-0,0.28
1697352997.9,0.12,-0.29,1.05,0.1,2.8,-20.8,0.96,0.08,-0,0.28
1697352997.91,0.12,-0.29,1.05,0.1,2.8,-20.8,0.96,0.08,-0,0.28
1697352997.92,0.21,-0.33,0.86,-1,2.4,-20.7,0.96,0.08,-0,0.28
1697352997.93,0.22,-0.29,0.91,-1.6,2.5,-20.3,0.96,0.08,-0,0.28
1697352997.94,0.22,-0.29,0.91,-1.6,2.5,-20.3,0.96,0.08,-0,0.28
1697352997.95,0.1,-0.28,1.13,-1.1,2.5,-20.4,0.96,0.08,-0,0.27
1697352997.96,0.09,-0.21,1.17,-0.3,3.5,-19.7,0.96,0.08,-0,0.27
1697352997.97,0.2,-0.23,0.94,-0.3,3.5,-19.7,0.96,0.08,-0,0.27
1697352997.98,0.2,-0.23,0.94,0.9,3.2,-19.3,0.96,0.08,-0,0.27
1697352997.99,0.2,-0.23,0.94,0.9,3.2,-19.3,0.96,0.08,-0,0.27
1697352998,0.2,-0.23,0.94,0.9,3.2,-19.3,0.96,0.08,-0,0.27
1697352998.01,0.2,-0.23,0.94,0.9,3.2,-19.3,0.96,0.08,-0,0.27
1697352998.02,0.2,-0.23,0.94,0.9,3.2,-19.3,0.96,0.08,-0,0.27
1697352998.03,0.2,-0.23,0.94,0.9,3.2,-19.3,0.96,0.08,-0,0.27
1697352998.04,0.2,-0.23,0.94,0.9,3.2,-19.3,0.96,0.08,-0,0.27
1697352998.05,0.2,-0.23,0.94,0.9,3.2,-19.3,0.96,0.08,-0,0.27
1697352998.06,0.2,-0.23,0.94,0.9,3.2,-19.3,0.96,0.08,-0,0.27
1697352998.07,0.2,-0.23,0.94,0.9,3.2,-19.3,0.96,0.08,-0,0.27
1697352998.08,0.2,-0.23,0.94,0.9,3.2,-19.3,0.96,0.08,-0,0.27
1697352998.09,0.2,-0.23,0.94,0.9,3.2,-19.3,0.96,0.08,-0,0.27
1697352998.1,0.2,-0.23,0.94,0.9,3.2,-19.3,0.96,0.08,-0,0.27
1697352998.11,0.2,-0.23,0.94,0.9,3.2,-19.3,0.96,0.08,-0,0.27
1697352998.12,0.18,-0.26,0.76,0.9,3.2,-19.3,0.97,0.08,0,0.25
1697352998.13,0.23,-0.19,1.11,0.8,3,-15.3,0.97,0.08,0,0.25
1697352998.14,0.08,-0.23,0.74,-1.7,2.9,-14.8,0.97,0.08,0,0.25
1697352998.15,0.11,-0.18,1.19,-2.9,2.5,-14.6,0.97,0.08,0,0.24
1697352998.16,0.2,0.02,1.14,-2.9,2.5,-14.6,0.97,0.08,0,0.24
1697352998.17,0.09,0.03,1.21,0.9,1.7,-13,0.97,0.08,0,0.24
1697352998.18,0.17,-0.01,1.06,0.9,1.7,-13,0.97,0.08,0,0.24
1697352998.19,0.15,-0.24,0.93,1.4,1.9,-11.8,0.97,0.08,0,0.24
1697352998.2,0.12,-0.18,0.85,-0.4,1.7,-11.7,0.97,0.08,0,0.24
1697352998.21,0.12,-0.11,1.27,-1,1.3,-11.2,0.97,0.08,0,0.24
1697352998.22,0.1,-0.16,1.32,-0.9,1,-10.7,0.97,0.07,0.01,0.24
1697352998.23,0.24,0.04,1.1,0.5,1,-9.9,0.97,0.07,0.01,0.23
1697352998.24,0.09,0.09,1.13,0.5,1,-9.9,0.97,0.07,0.01,0.23
1697352998.25,0.23,0.03,0.79,3.8,0.3,-7.1,0.97,0.08,0.01,0.23
1697352998.26,0.14,-0.1,0.67,2.4,0.3,-6.1,0.97,0.08,0.01,0.23
1697352998.27,0.11,-0.06,1.22,1,0.5,-5.4,0.97,0.08,0.01,0.23
1697352998.28,0.22,-0.16,0.99,0.3,0.5,-5,0.97,0.08,0.01,0.23
1697352998.29,0.18,-0,0.73,0.3,0.5,-5,0.97,0.08,0.01,0.23
1697352998.3,0.21,0.09,0.82,2.8,0.2,-4,0.97,0.08,0.01,0.23
1697352998.31,0.15,-0.05,1.16,2.8,0.2,-4,0.97,0.08,0.01,0.23
1697352998.32,0.25,-0.16,0.73,3,-0.4,-3.5,0.97,0.08,0.01,0.23
1697352998.33,0.25,-0.16,0.73,1.3,-1.2,-3.8,0.97,0.08,0.01,0.23
1697352998.34,0.15,-0.02,1.43,-1.1,-1.5,-3.7,0.97,0.08,0.01,0.23
1697352998.35,0.18,-0.07,0.87,-2.5,-1.7,-3.7,0.97,0.08,0.01,0.23
1697352998.36,0.1,0.14,0.82,-2.5,-1.7,-3.7,0.97,0.08,0.01,0.23
1697352998.37,0.18,0.17,1.15,-1.6,-1.4,-3.3,0.97,0.08,0.01,0.23
1697352998.38,0.24,0.07,1.28,1,-1.3,-3,0.97,0.08,0.01,0.23
1697352998.39,0.11,-0.14,0.69,3.3,-1.5,-2.9,0.97,0.08,0.01,0.23
1697352998.4,0.09,-0.11,0.97,0.1,-1.7,-2.8,0.97,0.08,0.01,0.23
1697352998.41,0.16,-0.09,1.23,-1.3,-1.6,-3.1,0.97,0.08,0.01,0.23
1697352998.42,0.08,0.05,1.23,-0.6,-1,-2.8,0.97,0.08,0.01,0.23
1697352998.43,0.1,0.14,1.36,1.7,0.6,-2,0.97,0.08,0.01,0.23
1697352998.44,0.19,0.03,0.67,2.9,2,-1.6,0.97,0.08,0.01,0.23
1697352998.45,0.19,0,0.84,2.4,2.7,-1.6,0.97,0.08,0.01,0.23
1697352998.46,0.21,-0.15,1.35,0,2.6,-1.4,0.97,0.08,0.01,0.23
1697352998.47,0.19,-0.06,0.76,-1.6,1.8,-1.2,0.97,0.08,0.01,0.23
1697352998.48,0.15,0.06,0.99,-2.5,0.5,-0.9,0.97,0.08,0.01,0.23
1697352998.49,0.17,0.06,1.25,-2.8,-0.5,-0.3,0.97,0.08,0.01,0.23
1697352998.5,0.17,0.06,1.25,-2.8,-0.5,-0.3,0.97,0.08,0.01,0.23
1697352998.51,0.17,0.06,1.25,-2.8,-0.5,-0.3,0.97,0.08,0.01,0.23
1697352998.52,0.17,0.06,1.25,-2.8,-0.5,-0.3,0.97,0.08,0.01,0.23
1697352998.53,0.17,0.06,1.25,-2.8,-0.5,-0.3,0.97,0.08,0.01,0.23
1697352998.54,0.17,0.06,1.25,-2.8,-0.5,-0.3,0.97,0.08,0.01,0.23
1697352998.55,0.17,0.06,1.25,-2.8,-0.5,-0.3,0.97,0.08,0.01,0.23
1697352998.56,0.17,0.06,1.25,-2.8,-0.5,-0.3,0.97,0.08,0.01,0.23
1697352998.57,0.17,0.06,1.25,-2.8,-0.5,-0.3,0.97,0.08,0.01,0.23
1697352998.58,0.17,0.06,1.25,-2.8,-0.5,-0.3,0.97,0.08,0.01,0.23
1697352998.59,0.17,0.06,1.25,-2.8,-0.5,-0.3,0.97,0.08,0.01,0.23
1697352998.6,0.17,0.06,1.25,-2.8,-0.5,-0.3,0.97,0.08,0.01,0.23
1697352998.61,0.17,0.06,1.25,-2.8,-0.5,-0.3,0.97,0.08,0.01,0.23
1697352998.62,0.17,0.06,1.25,-2.8,-0.5,-0.3,0.97,0.08,0.01,0.23
1697352998.63,0.17,0.06,1.25,-2.8,-0.5,-0.3,0.97,0.08,0.01,0.23
1697352998.64,0.17,0.06,1.25,-2.8,-0.5,-0.3,0.97,0.08,0.01,0.23
1697352998.65,0.17,0.06,1.25,-2.8,-0.5,-0.3,0.97,0.08,0.01,0.23
1697352998.66,0.17,0.06,1.25,-2.8,-0.5,-0.3,0.97,0.08,0.01,0.23
1697352998.67,0.17,0.06,1.25,-2.8,-0.5,-0.3,0.97,0.08,0.01,0.23
1697352998.68,0.17,0.06,1.25,-2.8,-0.5,-0.3,0.97,0.08,0.01,0.23
1697352998.69,0.17,0.06,1.25,-2.8,-0.5,-0.3,0.97,0.08,0.01,0.23
1697352998.7,0.17,0.06,1.25,-2.8,-0.5,-0.3,0.97,0.08,0.01,0.23
1697352998.71,0.17,0.06,1.25,-2.8,-0.5,-0.3,0.97,0.08,0.01,0.23
1697352998.72,0.17,0.06,1.25,-2.8,-0.5,-0.3,0.97,0.08,0.01,0.23
1697352998.73,0.17,0.06,1.25,-2.8,-0.5,-0.3,0.97,0.08,0.01,0.23
1697352998.74,0.17,0.06,1.25,-2.8,-0.5,-0.3,0.97,0.08,0.01,0.23
1697352998.75,-0.1,-0.19,1.74,-1.2,2,4,0.97,0.08,0,0.24
1697352998.76,-0.04,-0.04,0.77,-2.8,1.9,3.6,0.97,0.08,0,0.24
1697352998.77,-0.07,0.04,0.73,-3.7,2.1,3.7,0.97,0.08,0,0.24
1697352998.78,-0.08,-0.08,1.41,-3.1,2.2,3.7,0.97,0.08,0,0.24
1697352998.79,-0.04,0.22,1.32,-2,1.6,3.4,0.97,0.08,0,0.24
1697352998.8,0.01,0.07,0.7,0,1.4,4,0.97,0.08,0,0.24
1697352998.81,-0.15,-0.04,1.39,3.4,1.4,4.1,0.97,0.08,0,0.24
1697352998.82,-0.17,-0.1,0.79,1.8,0.6,3.9,0.97,0.08,0,0.24
1697352998.83,-0.41,-0.02,0.83,0.4,0.8,4.1,0.97,0.08,0,0.24
1697352998.84,-0.39,-0.11,0.89,0.1,1.5,3.5,0.97,0.08,0.01,0.24
1697352998.85,-0.37,0.14,0.87,0.4,1.3,3.6,0.97,0.08,0.01,0.24
1697352998.86,-0.38,0.15,1.14,2,1.3,3.1,0.97,0.08,0.01,0.24
1697352998.87,-0.19,0.12,1.01,1,1.6,3.3,0.97,0.08,0.01,0.24
1697352998.88,0.07,0.12,0.67,0.2,1.3,3.8,0.97,0.08,0.01,0.24
1697352998.89,-0.02,0.06,1.53,0.1,0,4.1,0.97,0.08,0.01,0.24
1697352998.9,0.12,0.1,0.64,0,-0.6,4,0.97,0.08,0.01,0.24
1697352998.91,-0.1,0.13,1.13,-0.5,-0.9,4.5,0.97,0.08,0.01,0.24
1697352998.92,-0.01,0.06,1.31,-0.5,-0.9,4.5,0.97,0.08,0.01,0.24
1697352998.93,-0.06,0.07,0.5,-0.3,-0.6,4.3,0.97,0.08,0.01,0.24
1697352998.94,-0.11,0.05,1.62,-0.7,-0.2,4.1,0.97,0.08,0.01,0.24
1697352998.95,-0.06,0.08,1.07,0,0.1,3.6,0.97,0.08,0.01,0.24
1697352998.96,-0.06,0.08,1.07,0,0.1,3.6,0.97,0.08,0.01,0.24
1697352998.97,-0.09,-0,0.72,0.8,0.5,3.5,0.97,0.08,0.01,0.24
1697352998.98,-0.07,0.21,0.89,0.6,0.6,3.2,0.97,0.08,0.01,0.24
1697352998.99,-0.19,0.12,1.27,0,1.1,3.1,0.97,0.08,0.01,0.24
1697352999,-0.06,-0.08,1.14,2.6,0.8,3,0.97,0.08,0.01,0.24
1697352999.01,-0.06,-0.08,1.14,3.5,0.3,3.5,0.97,0.08,0.01,0.24
1697352999.02,-0.12,-0.02,1,2.8,0.1,3.2,0.97,0.08,0.01,0.24
1697352999.03,0.03,0.1,0.93,-2.8,0,2.8,0.97,0.08,0.01,0.24
1697352999.04,0.03,0.1,0.93,-2.8,0,2.8,0.97,0.08,0.01,0.24
1697352999.05,-0.06,0.15,1.07,-3.5,0.2,2.7,0.97,0.08,0.01,0.24
1697352999.06,-0.09,0.14,0.85,-1.9,0.6,2.9,0.97,0.08,0.01,0.24
1697352999.07,-0.24,0.05,0.77,-0.9,1.2,2.9,0.97,0.08,0.01,0.24
1697352999.08,-0.18,0.07,0.96,-1.7,1.6,2.2,0.97,0.08,0.01,0.25
1697352999.09,-0.17,0.01,0.96,-2.7,2,2.5,0.97,0.08,0.01,0.25
1697352999.1,-0.1,0,0.98,-3,0.8,2.1,0.97,0.08,0.01,0.25
1697352999.11,0.04,0.08,1.3,-2.8,-0.5,2,0.97,0.08,0.01,0.25
1697352999.12,0.01,0.09,1.1,-2.5,-2.5,2.8,0.97,0.08,0.01,0.25
1697352999.13,0,0.07,0.82,-1.1,-4.1,3.1,0.97,0.08,0.01,0.25
1697352999.14,-0.04,0.02,1.54,-1.1,-4.1,3.1,0.97,0.08,0.01,0.25
1697352999.15,-0.04,0.02,1.54,-1.1,-4.1,3.1,0.97,0.08,0.01,0.25
1697352999.16,-0.04,0.02,1.54,-1.1,-4.1,3.1,0.97,0.08,0.01,0.25
1697352999.17,-0.04,0.02,1.54,-1.1,-4.1,3.1,0.97,0.08,0.01,0.25
1697352999.18,-0.04,0.02,1.54,-1.1,-4.1,3.1,0.97,0.08,0.01,0.25
1697352999.19,-0.04,0.02,1.54,-1.1,-4.1,3.1,0.97,0.08,0.01,0.25
1697352999.2,-0.04,0.02,1.54,-1.1,-4.1,3.1,0.97,0.08,0.01,0.25
1697352999.21,-0.04,0.02,1.54,-1.1,-4.1,3.1,0.97,0.08,0.01,0.25
1697352999.22,-0.04,0.02,1.54,-1.1,-4.1,3.1,0.97,0.08,0.01,0.25
1697352999.23,-0.04,0.02,1.54,-1.1,-4.1,3.1,0.97,0.08,0.01,0.25
1697352999.24,-0.04,0.02,1.54,-1.1,-4.1,3.1,0.97,0.08,0.01,0.25
1697352999.25,-0.04,0.02,1.54,-1.1,-4.1,3.1,0.97,0.08,0.01,0.25
1697352999.26,-0.04,0.02,1.54,-1.1,-4.1,3.1,0.97,0.08,0.01,0.25
1697352999.27,-0.04,0.02,1.54,-1.1,-4.1,3.1,0.97,0.08,0.01,0.25
1697352999.28,-0.04,0.02,1.54,-1.1,-4.1,3.1,0.97,0.08,0.01,0.25
1697352999.29,-0.04,0.02,1.54,-1.1,-4.1,3.1,0.97,0.08,0.01,0.25
1697352999.3,-0.04,0.02,1.54,-1.1,-4.1,3.1,0.97,0.08,0.01,0.25
1697352999.31,-0.04,0.02,1.54,-1.1,-4.1,3.1,0.97,0.08,0.01,0.25
1697352999.32,-0.04,0.02,1.54,-1.1,-4.1,3.1,0.97,0.08,0.01,0.25
1697352999.33,-0.32,0.2,1.09,-1.5,2.3,5,0.96,0.08,-0,0.25
1697352999.34,-0.32,0.2,1.09,-1.5,2.3,5,0.96,0.08,-0,0.25
1697352999.35,-0.15,-0.07,1.43,0,2.7,4.9,0.96,0.08,-0,0.25
1697352999.36,-0.15,-0.07,1.43,0.3,2.8,4.6,0.96,0.08,-0,0.26
1697352999.37,-0.1,-0.07,1.02,-0.4,2.7,4.1,0.96,0.08,-0,0.26
1697352999.38,-0.1,-0.07,1.02,-1.5,2,4,0.96,0.08,-0,0.26
1697352999.39,0.03,0.04,0.99,-1,1.4,4.2,0.96,0.08,-0,0.26
1697352999.4,-0.02,0.14,0.72,0.6,0.7,4.7,0.96,0.08,-0,0.26
1697352999.41,-0.07,0.04,1.39,1.4,0.1,5.3,0.96,0.08,-0,0.26
1697352999.42,-0.01,0.09,1,1.8,0.1,5.7,0.96,0.08,-0,0.26
1697352999.43,-0.08,-0.04,0.68,0.5,-0.1,5.8,0.96,0.08,-0,0.26
1697352999.44,-0.23,0.01,1.29,0,-0.1,5.7,0.96,0.08,-0,0.26
1697352999.45,-0.05,0.09,0.6,-1.7,-0.1,5.9,0.96,0.08,-0,0.26
1697352999.46,-0.06,0.1,0.75,-2.2,-0.1,6.1,0.96,0.08,-0,0.26
1697352999.47,-0.15,0.14,1.32,-1.3,0.2,5.7,0.96,0.08,-0,0.26
1697352999.48,-0.03,0.12,0.8,0.4,0.3,5.5,0.96,0.08,-0,0.26
1697352999.49,0,0.04,0.62,1.4,1.1,5.5,0.96,0.08,-0,0.26
1697352999.5,-0.15,-0.01,0.85,1.7,1.4,5.2,0.96,0.08,-0,0.26
1697352999.51,-0.17,-0.01,1.26,0.2,1.7,5,0.96,0.08,-0,0.26
1697352999.52,-0.07,0.1,0.92,-1,1.5,4.8,0.96,0.08,-0,0.26
1697352999.53,-0.13,0.12,0.78,-1.5,1.5,4.8,0.96,0.08,-0,0.26
1697352999.54,-0.11,0.14,0.95,-1.2,1.3,4.9,0.96,0.08,-0,0.26
1697352999.55,-0.16,0.16,1.46,-0.9,0.5,5.1,0.96,0.08,-0,0.26
1697352999.56,0.06,0.23,0.8,0,-0.3,5.4,0.96,0.08,-0,0.26
1697352999.57,-0.12,0.23,0.95,2,-1.3,6.3,0.96,0.08,-0,0.26
1697352999.58,-0.12,0.15,0.78,3.8,-1.9,7.2,0.96,0.08,-0,0.27
1697352999.59,-0.14,0.17,1.15,3.8,-1.9,7.2,0.96,0.08,-0,0.27
1697352999.6,-0.22,0.39,0.95,3.9,-1.6,7.8,0.96,0.08,-0,0.27
1697352999.61,-0.22,0.39,0.95,1.5,-1.3,9.8,0.96,0.08,-0,0.27
1697352999.62,-0.19,0.55,1.11,2.5,1.4,15.7,0.96,0.08,-0,0.27
1697352999.63,-0.19,0.55,1.11,2.5,1.4,15.7,0.96,0.08,-0,0.27
1697352999.64,-0.23,0.46,0.86,3.8,2.3,17.5,0.96,0.08,-0,0.27
1697352999.65,-0.14,0.45,0.67,3.4,2.7,19.1,0.96,0.08,-0,0.27
1697352999.66,-0.36,0.34,1.53,2.4,2.3,19.9,0.96,0.08,-0,0.27
1697352999.67,-0.25,0.22,0.84,-0.2,2.6,20.1,0.96,0.08,-0,0.28
1697352999.68,-0.22,0.32,0.88,-2.8,3.3,20.4,0.96,0.08,-0,0.28
1697352999.69,-0.16,0.44,0.84,-2.7,3.7,20.5,0.96,0.08,-0,0.28
1697352999.7,-0.23,0.43,0.75,-2.7,3.7,20.5,0.96,0.08,-0,0.28
1697352999.71,-0.3,0.31,1.18,0.2,3.4,19.2,0.96,0.08,-0,0.28
1697352999.72,-0.3,0.31,1.18,0.2,3.4,19.2,0.96,0.08,-0,0.28
1697352999.73,-0.3,0.31,1.18,0.2,3.4,19.2,0.96,0.08,-0,0.28
1697352999.74,-0.3,0.31,1.18,0.2,3.4,19.2,0.96,0.08,-0,0.28
1697352999.75,-0.3,0.31,1.18,0.2,3.4,19.2,0.96,0.08,-0,0.28
1697352999.76,-0.3,0.31,1.18,0.2,3.4,19.2,0.96,0.08,-0,0.28
1697352999.77,-0.3,0.31,1.18,0.2,3.4,19.2,0.96,0.08,-0,0.28
1697352999.78,-0.3,0.31,1.18,0.2,3.4,19.2,0.96,0.08,-0,0.28
1697352999.79,-0.3,0.31,1.18,0.2,3.4,19.2,0.96,0.08,-0,0.28
1697352999.8,-0.3,0.31,1.18,0.2,3.4,19.2,0.96,0.08,-0,0.28
1697352999.81,-0.3,0.31,1.18,0.2,3.4,19.2,0.96,0.08,-0,0.28
1697352999.82,-0.3,0.31,1.18,0.2,3.4,19.2,0.96,0.08,-0,0.28
1697352999.83,-0.3,0.31,1.18,0.2,3.4,19.2,0.96,0.08,-0,0.28
1697352999.84,-0.3,0.31,1.18,0.2,3.4,19.2,0.96,0.08,-0,0.28
1697352999.85,-0.3,0.31,1.18,0.2,3.4,19.2,0.96,0.08,-0,0.28
1697352999.86,-0.3,0.31,1.18,0.2,3.4,19.2,0.96,0.08,-0,0.28
1697352999.87,-0.3,0.31,1.18,0.2,3.4,19.2,0.96,0.08,-0,0.28
1697352999.88,-0.3,0.31,1.18,0.2,3.4,19.2,0.96,0.08,-0,0.28
1697352999.89,-0.3,0.31,1.18,0.2,3.4,19.2,0.96,0.08,-0,0.28
1697352999.9,-0.3,0.31,1.18,0.2,3.4,19.2,0.96,0.08,-0,0.28
1697352999.91,-0.3,0.31,1.18,0.2,3.4,19.2,0.96,0.08,-0,0.28
1697352999.92,-0.16,0.46,0.85,1.9,-0.4,23.4,0.95,0.08,-0,0.32
1697352999.93,-0.3,0.36,1.06,1.5,-0.7,24,0.94,0.08,-0,0.32
1697352999.94,-0.28,0.43,0.97,0.4,-0.8,25.1,0.94,0.08,-0,0.32
1697352999.95,-0.33,0.46,1.21,-0.2,-0.7,26.4,0.94,0.08,-0,0.32
1697352999.96,-0.31,0.6,1.07,-0.2,-0.7,26.4,0.94,0.08,-0,0.33
1697352999.97,-0.36,0.63,1.23,0,0,27.7,0.94,0.08,-0,0.33
1697352999.98,-0.26,0.54,0.87,1.6,0.5,29.3,0.94,0.08,-0,0.33
1697352999.99,-0.28,0.4,1.18,2.6,0.7,30.4,0.94,0.08,-0,0.33
1697353000,-0.28,0.34,0.99,1.6,0.7,31.3,0.94,0.08,-0,0.34
1697353000.01,-0.23,0.39,0.95,-0.9,1.3,31.9,0.94,0.08,-0,0.34
1697353000.02,-0.36,0.48,1.23,-2.8,1.4,32.2,0.94,0.08,-0,0.34
1697353000.03,-0.19,0.54,0.86,-2.5,1.6,32.9,0.94,0.08,-0,0.35
1697353000.04,-0.35,0.56,1.15,-0.5,1.7,33,0.93,0.08,-0,0.35
1697353000.05,-0.22,0.43,0.99,1.2,1.7,33.2,0.93,0.08,-0,0.35
1697353000.06,-0.27,0.4,1.07,2.1,1.6,33.2,0.93,0.08,-0,0.35
1697353000.07,-0.26,0.41,1.01,1.7,1.6,33.2,0.93,0.08,-0,0.36
1697353000.08,-0.18,0.39,0.81,0.8,1.4,33.1,0.93,0.08,-0,0.36
1697353000.09,-0.15,0.42,0.9,-0.4,1.2,33,0.93,0.08,-0,0.36
1697353000.1,-0.23,0.49,0.86,-0.3,0.6,33,0.93,0.08,-0,0.36
1697353000.11,-0.14,0.51,1.06,0,0,33.5,0.93,0.08,-0,0.37
1697353000.12,-0.11,0.42,1.1,1.2,-0.7,34.2,0.93,0.08,-0,0.37
1697353000.13,-0.13,0.35,0.84,1.8,-0.9,34.4,0.92,0.08,-0,0.37
1697353000.14,-0.2,0.32,0.98,1.1,-1,34.8,0.92,0.08,-0,0.37
1697353000.15,-0.13,0.34,0.91,0.1,-0.6,34.9,0.92,0.08,-0,0.38
1697353000.16,-0.12,0.4,0.92,0,0.2,35,0.92,0.08,-0,0.38
1697353000.17,-0.1,0.44,1.04,0.7,1,35.1,0.92,0.08,-0,0.38
1697353000.18,-0.1,0.39,1.14,1.9,1.6,35.5,0.92,0.08,-0,0.39
1697353000.19,-0.02,0.42,1.02,2.9,1.8,35.6,0.92,0.08,-0,0.39
1697353000.2,-0.09,0.36,1.18,2.9,1.8,35.6,0.92,0.08,-0,0.39
1697353000.21,-0.11,0.4,0.95,2.9,1.7,36,0.92,0.08,-0,0.39
1697353000.22,-0.11,0.4,0.95,2.1,1,36,0.91,0.08,-0,0.4
1697353000.23,-0.17,0.51,1.12,1,0.6,36.2,0.91,0.08,-0,0.4
1697353000.24,-0.17,0.51,1.12,0.6,0.2,36.5,0.91,0.08,-0,0.4
1697353000.25,-0.12,0.51,1.11,0.9,0,36.9,0.91,0.08,-0.01,0.41
1697353000.26,-0.14,0.51,0.99,1.1,-0.1,37.2,0.91,0.08,-0.01,0.41
1697353000.27,-0.14,0.45,1,0.9,0.1,37.4,0.91,0.08,-0.01,0.41
1697353000.28,-0.09,0.55,0.88,0.3,0.2,37.7,0.91,0.08,-0.01,0.41
1697353000.29,-0.18,0.54,1.12,0.2,0.3,38,0.91,0.08,-0.01,0.42
1697353000.3,-0.07,0.62,0.98,0.6,0.5,38.6,0.9,0.08,-0.01,0.42
1697353000.31,-0.07,0.62,0.98,0.6,0.5,38.6,0.9,0.08,-0.01,0.42
1697353000.32,-0.07,0.62,0.98,0.6,0.5,38.6,0.9,0.08,-0.01,0.42
1697353000.33,-0.07,0.62,0.98,0.6,0.5,38.6,0.9,0.08,-0.01,0.42
1697353000.34,-0.07,0.62,0.98,0.6,0.5,38.6,0.9,0.08,-0.01,0.42
1697353000.35,-0.07,0.62,0.98,0.6,0.5,38.6,0.9,0.08,-0.01,0.42
1697353000.36,-0.07,0.62,0.98,0.6,0.5,38.6,0.9,0.08,-0.01,0.42
1697353000.37,-0.07,0.62,0.98,0.6,0.5,38.6,0.9,0.08,-0.01,0.42
1697353000.38,-0.07,0.62,0.98,0.6,0.5,38.6,0.9,0.08,-0.01,0.42
1697353000.39,-0.07,0.62,0.98,0.6,0.5,38.6,0.9,0.08,-0.01,0.42
1697353000.4,-0.07,0.62,0.98,0.6,0.5,38.6,0.9,0.08,-0.01,0.42
1697353000.41,-0.07,0.62,0.98,0.6,0.5,38.6,0.9,0.08,-0.01,0.42
1697353000.42,-0.07,0.62,0.98,0.6,0.5,38.6,0.9,0.08,-0.01,0.42
1697353000.43,-0.07,0.62,0.98,0.6,0.5,38.6,0.9,0.08,-0.01,0.42
1697353000.44,-0.18,0.66,1,-0.8,-0.3,50.3,0.88,0.08,-0.01,0.47
1697353000.45,-0.17,0.68,0.96,-0.8,-0.6,50.7,0.88,0.08,-0.01,0.47
1697353000.46,-0.13,0.67,1.08,-0.5,-0.6,50.9,0.87,0.08,-0.01,0.48
1697353000.47,-0.07,0.64,0.89,-0.2,-0.5,51,0.87,0.08,-0.01,0.48
1697353000.48,-0.12,0.64,1.21,-0.1,-0.4,50.9,0.87,0.08,-0.01,0.49
1697353000.49,-0.17,0.59,0.95,-0.3,0,50.9,0.87,0.08,-0.01,0.49
1697353000.5,-0.2,0.6,1,-0.4,0.6,51.2,0.87,0.08,-0.01,0.49
1697353000.51,-0.16,0.66,1.02,0.1,1,51.6,0.86,0.08,-0.01,0.5
1697353000.52,-0.18,0.62,1,1.2,1.2,52.1,0.86,0.08,-0.01,0.5
1697353000.53,-0.11,0.57,0.81,1.1,1.3,52.5,0.86,0.08,-0.01,0.51
1697353000.54,-0.15,0.52,1.33,0.5,1.1,52.7,0.86,0.08,-0.01,0.51
1697353000.55,-0.12,0.48,0.9,-0.9,1,52.9,0.85,0.08,-0.01,0.51
1697353000.56,-0.18,0.59,0.95,-0.9,1,52.9,0.85,0.08,-0.01,0.51
1697353000.57,-0.16,0.66,1.22,0,-0.5,53.5,0.85,0.08,-0.01,0.52
1697353000.58,-0.09,0.63,0.92,0.4,-0.7,53.5,0.85,0.08,-0.02,0.53
1697353000.59,-0.15,0.56,1.12,1.7,-1.2,53.6,0.84,0.08,-0.02,0.53
1697353000.6,-0.11,0.5,1.02,2.1,-1.6,53.5,0.84,0.08,-0.02,0.54
1697353000.61,-0.11,0.5,1.02,2.1,-1.6,53.5,0.84,0.08,-0.02,0.54
1697353000.62,-0.17,0.52,0.73,1.2,-1.5,53.1,0.84,0.08,-0.02,0.54
1697353000.63,-0.19,0.56,1.03,1.2,-1.5,53.1,0.84,0.08,-0.02,0.54
1697353000.64,-0.19,0.56,1.03,0.9,-0.9,53.2,0.83,0.08,-0.02,0.55
1697353000.65,-0.2,0.63,1.12,0.4,-0.3,53.4,0.83,0.08,-0.02,0.55
1697353000.66,-0.2,0.63,1.12,1.1,1.1,54.5,0.83,0.08,-0.02,0.56
1697353000.67,-0.16,0.62,0.99,0.6,1.5,55.2,0.82,0.08,-0.02,0.56
1697353000.68,-0.16,0.62,0.99,0.6,1.5,55.2,0.82,0.08,-0.02,0.56
1697353000.69,-0.23,0.59,1.08,-1.2,1.5,56,0.82,0.08,-0.02,0.57
1697353000.7,-0.11,0.63,0.82,-2.1,1.2,56.3,0.82,0.08,-0.02,0.57
1697353000.71,-0.15,0.64,0.93,-2,0.8,56.3,0.81,0.08,-0.02,0.58
1697353000.72,-0.12,0.68,0.94,-1.9,0.1,56.1,0.81,0.08,-0.02,0.58
1697353000.73,-0.1,0.64,0.96,-1.2,-0.4,55.9,0.81,0.08,-0.02,0.58
1697353000.74,-0.15,0.66,1.14,-1,-0.3,55.7,0.8,0.08,-0.02,0.59
1697353000.75,-0.12,0.56,0.76,-0.7,-0.7,55.4,0.8,0.08,-0.02,0.59
1697353000.76,-0.22,0.55,0.9,-0.8,-0.6,55,0.8,0.08,-0.02,0.6
1697353000.77,-0.2,0.58,1.15,-1.3,-0.2,54.7,0.8,0.08,-0.02,0.6
1697353000.78,-0.19,0.6,0.95,-1.6,0.5,54.7,0.79,0.08,-0.02,0.6
1697353000.79,-0.17,0.61,1.12,-1.1,1.5,54.7,0.79,0.08,-0.02,0.61
1697353000.8,-0.15,0.6,1,-0.5,2,55.1,0.79,0.08,-0.02,0.61
1697353000.81,-0.17,0.53,1.17,0,2.4,55.4,0.78,0.08,-0.02,0.62
1697353000.82,-0.17,0.52,1.16,0.2,2.1,55.5,0.78,0.08,-0.02,0.62
1697353000.83,-0.13,0.49,0.83,0.2,2.1,55.5,0.78,0.08,-0.02,0.62
1697353000.84,-0.13,0.5,0.99,-0.3,1.7,55.5,0.78,0.07,-0.02,0.63
1697353000.85,-0.13,0.5,0.99,-0.3,1.7,55.5,0.78,0.07,-0.02,0.63
1697353000.86,-0.13,0.5,0.99,-0.3,1.7,55.5,0.78,0.07,-0.02,0.63
1697353000.87,-0.13,0.5,0.99,-0.3,1.7,55.5,0.78,0.07,-0.02,0.63
1697353000.88,-0.13,0.5,0.99,-0.3,1.7,55.5,0.78,0.07,-0.02,0.63
1697353000.89,-0.13,0.5,0.99,-0.3,1.7,55.5,0.78,0.07,-0.02,0.63
1697353000.9,-0.13,0.5,0.99,-0.3,1.7,55.5,0.78,0.07,-0.02,0.63
1697353000.91,-0.13,0.5,0.99,-0.3,1.7,55.5,0.78,0.07,-0.02,0.63
1697353000.92,-0.13,0.5,0.99,-0.3,1.7,55.5,0.78,0.07,-0.02,0.63
1697353000.93,-0.13,0.5,0.99,-0.3,1.7,55.5,0.78,0.07,-0.02,0.63
1697353000.94,-0.13,0.5,0.99,-0.3,1.7,55.5,0.78,0.07,-0.02,0.63
1697353000.95,-0.13,0.5,0.99,-0.3,1.7,55.5,0.78,0.07,-0.02,0.63
1697353000.96,-0.13,0.5,0.99,-0.3,1.7,55.5,0.78,0.07,-0.02,0.63
1697353000.97,-0.13,0.5,0.99,-0.3,1.7,55.5,0.74,0.07,-0.03,0.67
1697353000.98,-0.18,0.52,1.01,-1,0.4,54.6,0.73,0.07,-0.03,0.68
1697353000.99,-0.11,0.58,0.97,-1,0.4,54.6,0.73,0.07,-0.03,0.68
1697353001,-0.14,0.59,1.17,-1.5,0.3,54.4,0.73,0.07,-0.03,0.68
1697353001.01,-0.14,0.59,1.17,-1.2,0.3,54.3,0.72,0.07,-0.03,0.69
1697353001.02,-0.11,0.55,1.03,-0.5,0.5,54.2,0.72,0.07,-0.03,0.69
1697353001.03,-0.12,0.54,0.75,0.5,0.7,54,0.72,0.07,-0.03,0.69
1697353001.04,-0.05,0.48,1.22,0.5,0.8,54,0.71,0.07,-0.03,0.7
1697353001.05,0.11,0.46,1.29,0.3,0.8,53.5,0.71,0.07,-0.03,0.7
1697353001.06,0.14,0.53,0.85,-0.8,0.5,52.8,0.71,0.07,-0.03,0.7
1697353001.07,0.1,0.51,0.97,-1.3,0.1,52.2,0.7,0.07,-0.03,0.71
1697353001.08,0.05,0.64,1.03,-0.7,0.4,52.5,0.7,0.07,-0.03,0.71
1697353001.09,-0.11,0.61,0.7,0.2,1.3,53.8,0.7,0.07,-0.03,0.71
1697353001.1,-0.17,0.6,0.85,0.2,1.8,54.9,0.69,0.07,-0.03,0.72
1697353001.11,-0.11,0.52,0.97,0.2,1.8,54.9,0.69,0.07,-0.03,0.72
1697353001.12,-0.2,0.54,1.1,0.5,2,55.7,0.69,0.07,-0.03,0.72
1697353001.13,-0.08,0.49,0.88,0.4,2.5,56.6,0.68,0.07,-0.03,0.73
1697353001.14,-0.12,0.54,0.97,0.8,2.1,56.7,0.68,0.07,-0.03,0.73
1697353001.15,-0.11,0.51,1.14,1,1.7,56.5,0.67,0.07,-0.03,0.73
1697353001.16,-0.09,0.47,1.11,1,1.3,56.2,0.67,0.07,-0.03,0.74
1697353001.17,-0.15,0.5,1.02,0.7,0.9,55.7,0.67,0.07,-0.03,0.74
1697353001.18,-0.05,0.54,1.11,0.4,0.4,54.8,0.66,0.07,-0.03,0.74
1697353001.19,0.15,0.62,0.78,0.7,-0.3,54,0.66,0.07,-0.03,0.75
1697353001.2,0.13,0.6,1.08,1.1,-0.9,53.3,0.66,0.07,-0.03,0.75
1697353001.21,0.13,0.56,0.87,1.4,-1.1,52.5,0.65,0.07,-0.03,0.75
1697353001.22,0.01,0.58,0.99,0.9,-1.1,52.1,0.65,0.07,-0.04,0.76
1697353001.23,-0.07,0.61,0.96,0,-0.6,52.3,0.65,0.07,-0.04,0.76
1697353001.24,-0.21,0.62,1,-0.7,0.3,52.9,0.64,0.07,-0.04,0.76
1697353001.25,-0.23,0.59,1,-1.6,1.4,54,0.64,0.07,-0.04,0.77
1697353001.26,-0.14,0.63,0.91,-1.5,2.2,55.2,0.63,0.07,-0.04,0.77
1697353001.27,-0.09,0.55,0.86,-1.5,2.2,55.2,0.63,0.07,-0.04,0.77
1697353001.28,-0.06,0.52,1.17,0,3.5,56.5,0.63,0.07,-0.04,0.78
1697353001.29,-0.06,0.52,1.17,0,3.5,56.5,0.63,0.07,-0.04,0.78
1697353001.3,0,0.47,0.96,0.9,0.7,55,0.62,0.07,-0.04,0.78
1697353001.31,0,0.47,0.96,0.9,0.7,55,0.62,0.07,-0.04,0.78
1697353001.32,0.11,0.49,1.11,2.1,-1.2,52.8,0.61,0.07,-0.04,0.79
1697353001.33,0.11,0.49,1.11,2.1,-1.2,52.8,0.61,0.07,-0.04,0.79
1697353001.34,-0.01,0.64,1.03,1.5,-1.5,52,0.61,0.07,-0.04,0.79
1697353001.35,-0.01,0.64,1.03,0.3,-0.7,52,0.6,0.07,-0.04,0.79
1697353001.36,-0.04,0.58,0.94,-0.1,0,52.5,0.6,0.07,-0.04,0.8
1697353001.37,-0.23,0.64,1.21,-0.1,0,52.5,0.6,0.07,-0.04,0.8
1697353001.38,-0.23,0.64,1.21,-0.1,0,52.5,0.6,0.07,-0.04,0.8
1697353001.39,-0.23,0.64,1.21,-0.1,0,52.5,0.6,0.07,-0.04,0.8
1697353001.4,-0.23,0.64,1.21,-0.1,0,52.5,0.6,0.07,-0.04,0.8
1697353001.41,-0.23,0.64,1.21,-0.1,0,52.5,0.6,0.07,-0.04,0.8
1697353001.42,-0.23,0.64,1.21,-0.1,0,52.5,0.6,0.07,-0.04,0.8
1697353001.43,-0.23,0.64,1.21,-0.1,0,52.5,0.6,0.07,-0.04,0.8
1697353001.44,-0.23,0.64,1.21,-0.1,0,52.5,0.6,0.07,-0.04,0.8
1697353001.45,-0.23,0.64,1.21,-0.1,0,52.5,0.6,0.07,-0.04,0.8
1697353001.46,-0.23,0.64,1.21,-0.1,0,52.5,0.6,0.07,-0.04,0.8
1697353001.47,-0.23,0.64,1.21,-0.1,0,52.5,0.6,0.07,-0.04,0.8
1697353001.48,-0.23,0.64,1.21,-0.1,0,52.5,0.6,0.07,-0.04,0.8
1697353001.49,-0.23,0.64,1.21,-0.1,0,52.5,0.6,0.07,-0.04,0.8
1697353001.5,-0.09,0.54,0.98,0,1.4,50.9,0.55,0.06,-0.04,0.83
1697353001.51,-0.08,0.5,1.07,-0.8,2.6,52.5,0.54,0.06,-0.04,0.84
1697353001.52,-0.1,0.52,1.01,-0.7,2.7,52.6,0.54,0.06,-0.04,0.84
1697353001.53,0.04,0.5,1.11,0,2.2,52.1,0.53,0.06,-0.04,0.84
1697353001.54,0.05,0.46,1.12,0.7,1.3,51.2,0.53,0.06,-0.04,0.84
1697353001.55,0.06,0.34,0.83,1.3,0.5,49.8,0.53,0.06,-0.04,0.85
1697353001.56,0.03,0.43,0.89,1.1,0.2,48.4,0.52,0.06,-0.04,0.85
1697353001.57,0.07,0.39,0.89,0.7,-0.2,47.1,0.52,0.06,-0.04,0.85
1697353001.58,-0.01,0.48,0.91,0.2,-0.1,46.4,0.52,0.06,-0.04,0.85
1697353001.59,-0.09,0.46,1.05,-0.2,0.1,46,0.51,0.06,-0.04,0.86
1697353001.6,-0.13,0.47,1.11,-0.5,0.5,46.3,0.51,0.06,-0.04,0.86
1697353001.61,-0.09,0.44,0.97,-0.1,0.6,46.3,0.51,0.06,-0.04,0.86
1697353001.62,-0.07,0.38,1.01,-0.8,0.5,46.3,0.5,0.06,-0.04,0.86
1697353001.63,-0.09,0.32,1.07,-2.3,0.4,45.9,0.5,0.06,-0.04,0.86
1697353001.64,-0.03,0.36,1.08,-3.9,0.4,45.2,0.5,0.06,-0.04,0.86
1697353001.65,0.04,0.34,1.07,-3.9,0.4,45.2,0.49,0.06,-0.05,0.87
1697353001.66,0.05,0.44,1.14,-4.3,0.1,44.2,0.49,0.06,-0.05,0.87
1697353001.67,0.02,0.4,1.05,-2.7,-0.8,43,0.49,0.06,-0.05,0.87
1697353001.68,0.09,0.38,0.86,-0.7,-1.8,42.1,0.49,0.06,-0.05,0.87
1697353001.69,0.02,0.34,1.03,-0.7,-1.8,42.1,0.48,0.06,-0.05,0.87
1697353001.7,-0.02,0.23,1.12,0.5,-2.1,41.2,0.48,0.06,-0.05,0.87
1697353001.71,-0.02,0.23,1.12,0.5,-2.3,40.5,0.48,0.06,-0.05,0.88
1697353001.72,-0.07,0.24,0.84,-0.6,-1.6,39.6,0.47,0.06,-0.05,0.88
1697353001.73,-0.08,0.19,1.04,-1.5,-0.6,38.7,0.47,0.06,-0.05,0.88
1697353001.74,-0.02,0.25,1,-2.1,0.5,37.9,0.47,0.06,-0.05,0.88
1697353001.75,0.03,0.21,0.9,-1.8,1.4,37,0.46,0.06,-0.05,0.88
1697353001.76,0.04,0.2,0.93,-0.3,1.9,36,0.46,0.06,-0.05,0.88
1697353001.77,0.06,0.17,1.03,1.2,1.5,33.5,0.46,0.06,-0.05,0.89
1697353001.78,0.11,0.1,1,0.2,1,31.8,0.45,0.06,-0.05,0.89
1697353001.79,0.15,0.12,1.02,-1.3,0.3,30.7,0.45,0.06,-0.05,0.89
1697353001.8,0.13,0.19,0.72,-2.1,-0.2,29.4,0.45,0.05,-0.05,0.89
1697353001.81,-0.02,0.17,1.27,-1.6,-0.5,28.5,0.45,0.05,-0.05,0.89
1697353001.82,-0.07,0.18,1.47,-0.6,-0.3,27.7,0.45,0.05,-0.05,0.89
1697353001.83,0.1,0.22,0.64,0,0.1,27,0.44,0.05,-0.05,0.89
1697353001.84,-0.12,0.06,1.09,-0.1,0.7,25.6,0.44,0.05,-0.05,0.89
1697353001.85,0.07,-0.07,0.89,-1.8,1.3,23.5,0.44,0.05,-0.05,0.9
1697353001.86,0.08,-0.15,1.07,-4,1.6,21,0.44,0.05,-0.05,0.9
1697353001.87,0.04,-0.23,1.12,-5.5,1.8,17.3,0.44,0.05,-0.05,0.9
1697353001.88,0.01,-0.19,1.01,-6,1.6,14,0.43,0.05,-0.05,0.9
1697353001.89,0.01,-0.19,1.01,-6,1.6,14,0.43,0.05,-0.05,0.9
1697353001.9,0.01,-0.19,1.01,-6,1.6,14,0.43,0.05,-0.05,0.9
1697353001.91,0.01,-0.19,1.01,-6,1.6,14,0.43,0.05,-0.05,0.9
1697353001.92,0.01,-0.19,1.01,-6,1.6,14,0.43,0.05,-0.05,0.9
1697353001.93,0.01,-0.19,1.01,-6,1.6,14,0.43,0.05,-0.05,0.9
1697353001.94,0.01,-0.19,1.01,-6,1.6,14,0.43,0.05,-0.05,0.9
1697353001.95,0.01,-0.19,1.01,-6,1.6,14,0.43,0.05,-0.05,0.9
1697353001.96,0.01,-0.19,1.01,-6,1.6,14,0.43,0.05,-0.05,0.9
1697353001.97,0.01,-0.19,1.01,-6,1.6,14,0.43,0.05,-0.05,0.9
1697353001.98,0.01,-0.19,1.01,-6,1.6,14,0.43,0.05,-0.05,0.9
1697353001.99,0.01,-0.19,1.01,-6,1.6,14,0.43,0.05,-0.05,0.9
1697353002,0.01,-0.19,1.01,-6,1.6,14,0.43,0.05,-0.05,0.9
1697353002.01,0.01,-0.19,1.01,-6,1.6,14,0.43,0.05,-0.05,0.9
1697353002.02,-0.07,-0.48,0.87,-1.8,0,-14.8,0.44,0.05,-0.06,0.9
1697353002.03,-0.07,-0.48,0.87,-0.7,0.6,-17.1,0.44,0.05,-0.06,0.9
1697353002.04,-0.03,-0.5,0.78,-0.4,0.7,-20,0.44,0.05,-0.06,0.89
1697353002.05,0.03,-0.59,0.87,-0.6,0.6,-22.6,0.44,0.05,-0.06,0.89
1697353002.06,-0.13,-0.61,1.08,-1.2,0.3,-25.1,0.44,0.05,-0.06,0.89
1697353002.07,-0.07,-0.47,1.22,-1.4,0,-27.2,0.45,0.05,-0.06,0.89
1697353002.08,-0.35,-0.46,1.14,-1,0.5,-28.9,0.45,0.05,-0.06,0.89
1697353002.09,-0.36,-0.55,0.88,-0.2,1.5,-30.4,0.45,0.05,-0.06,0.89
1697353002.1,-0.39,-0.43,1.02,0.2,2,-31.1,0.45,0.05,-0.06,0.89
1697353002.11,-0.29,-0.52,0.85,-0.7,2.1,-31.1,0.46,0.05,-0.06,0.89
1697353002.12,-0.13,-0.51,1.21,-2,1.3,-32.5,0.46,0.05,-0.06,0.89
1697353002.13,-0.03,-0.4,1.15,-2.3,-0.2,-33.4,0.46,0.05,-0.06,0.88
1697353002.14,-0.01,-0.35,1.06,-0.8,-1.6,-34.1,0.46,0.05,-0.06,0.88
1697353002.15,-0.07,-0.28,1.1,0.4,-2.7,-34.4,0.47,0.05,-0.06,0.88
1697353002.16,-0.12,-0.29,0.99,1.4,-2.9,-34.5,0.47,0.05,-0.06,0.88
1697353002.17,-0.07,-0.34,0.99,0.7,-2.5,-34.4,0.47,0.05,-0.06,0.88
1697353002.18,-0.09,-0.37,1.13,-0.3,-1.9,-33.9,0.47,0.05,-0.06,0.88
1697353002.19,-0.04,-0.37,0.86,-1.4,-0.6,-33.6,0.48,0.05,-0.06,0.88
1697353002.2,-0.03,-0.34,1.18,-1.9,0.1,-33.1,0.48,0.05,-0.06,0.87
1697353002.21,0.12,-0.29,0.73,-1.5,0.4,-32.3,0.48,0.05,-0.06,0.87
1697353002.22,0.13,-0.3,1.12,-0.2,0.5,-31.5,0.49,0.05,-0.06,0.87
1697353002.23,0.23,-0.3,0.93,0.1,0.2,-30.5,0.49,0.05,-0.06,0.87
1697353002.24,0.19,-0.36,1.02,0,0.5,-30.2,0.49,0.05,-0.06,0.87
1697353002.25,-0.01,-0.4,1.35,0,0.7,-30.8,0.49,0.05,-0.06,0.87
1697353002.26,-0,-0.44,0.87,-0.7,0.9,-32,0.49,0.05,-0.06,0.87
1697353002.27,-0.1,-0.39,1.14,-1,1.4,-33.4,0.5,0.05,-0.05,0.86
1697353002.28,-0.07,-0.29,1,-1,1.4,-33.4,0.5,0.05,-0.05,0.86
1697353002.29,-0.14,-0.29,0.84,2,1.6,-34.9,0.5,0.05,-0.05,0.86
1697353002.3,-0.18,-0.35,1.04,3.2,1.1,-35.1,0.51,0.05,-0.05,0.86
1697353002.31,-0.02,-0.36,1.17,3.2,1.1,-35.1,0.51,0.05,-0.05,0.86
1697353002.32,0.04,-0.54,0.81,2.8,0,-34.7,0.51,0.05,-0.05,0.86
1697353002.33,0.12,-0.38,0.69,0,-0.8,-35,0.51,0.05,-0.05,0.86
1697353002.34,0.16,-0.31,0.75,-3.1,-0.8,-34.3,0.51,0.05,-0.05,0.85
1697353002.35,0.13,-0.22,1.23,-4.5,-1,-32.8,0.52,0.05,-0.05,0.85
1697353002.36,0.13,-0.22,1.23,-4.5,-1,-32.8,0.52,0.05,-0.05,0.85
1697353002.37,0.15,-0.32,1.04,0.5,-1.2,-31.1,0.52,0.05,-0.05,0.85
1697353002.38,0.15,-0.32,1.04,0.5,-1.2,-31.1,0.52,0.05,-0.05,0.85
1697353002.39,-0.07,-0.61,0.91,2.2,-1.1,-30.6,0.53,0.05,-0.05,0.85
1697353002.4,-0.07,-0.61,0.91,2.2,-0.3,-31.5,0.53,0.05,-0.05,0.85
1697353002.41,-0.06,-0.53,0.69,-1.9,1.4,-34.3,0.53,0.05,-0.05,0.84
1697353002.42,-0.11,-0.34,1.01,-2,2.1,-35.5,0.53,0.05,-0.05,0.84
1697353002.43,-0.11,-0.34,1.01,-2,2.1,-35.5,0.53,0.05,-0.05,0.84
1697353002.44,-0.11,-0.34,1.01,-2,2.1,-35.5,0.53,0.05,-0.05,0.84
1697353002.45,-0.11,-0.34,1.01,-2,2.1,-35.5,0.53,0.05,-0.05,0.84
1697353002.46,-0.11,-0.34,1.01,-2,2.1,-35.5,0.53,0.05,-0.05,0.84
1697353002.47,-0.11,-0.34,1.01,-2,2.1,-35.5,0.53,0.05,-0.05,0.84
1697353002.48,-0.11,-0.34,1.01,-2,2.1,-35.5,0.53,0.05,-0.05,0.84
1697353002.49,-0.11,-0.34,1.01,-2,2.1,-35.5,0.53,0.05,-0.05,0.84
1697353002.5,-0.11,-0.34,1.01,-2,2.1,-35.5,0.53,0.05,-0.05,0.84
1697353002.51,-0.11,-0.34,1.01,-2,2.1,-35.5,0.53,0.05,-0.05,0.84
1697353002.52,-0.11,-0.34,1.01,-2,2.1,-35.5,0.53,0.05,-0.05,0.84
1697353002.53,-0.11,-0.34,1.01,-2,2.1,-35.5,0.53,0.05,-0.05,0.84
1697353002.54,-0.11,-0.34,1.01,-2,2.1,-35.5,0.53,0.05,-0.05,0.84
1697353002.55,-0.11,-0.34,1.01,-2,2.1,-35.5,0.53,0.05,-0.05,0.84
1697353002.56,-0.11,-0.34,1.01,-2,2.1,-35.5,0.53,0.05,-0.05,0.84
1697353002.57,0,-0.39,1.05,4.1,2.6,-37.8,0.57,0.06,-0.05,0.82
1697353002.58,-0.03,-0.46,1.06,4.4,2.7,-38.1,0.57,0.06,-0.05,0.81
1697353002.59,0.13,-0.46,1.03,1.9,2.1,-37.9,0.58,0.06,-0.05,0.81
1697353002.6,0.2,-0.4,0.91,-0.6,1.2,-37.4,0.58,0.06,-0.05,0.81
1697353002.61,0.25,-0.31,0.82,-2.6,-0.7,-35.6,0.58,0.06,-0.05,0.81
1697353002.62,0.12,-0.36,1.03,-2,-1.5,-35.1,0.59,0.06,-0.05,0.81
1697353002.63,0.12,-0.33,0.81,-1,-1.7,-34.9,0.59,0.06,-0.05,0.81
1697353002.64,0.08,-0.49,1.09,-0.7,-1.3,-35.5,0.59,0.06,-0.05,0.8
1697353002.65,-0.02,-0.53,0.93,-1.2,-1.1,-36.8,0.59,0.06,-0.05,0.8
1697353002.66,-0.12,-0.51,1.11,-1.9,-0.1,-37.9,0.59,0.06,-0.05,0.8
1697353002.67,-0.09,-0.47,0.99,-1.4,0.8,-39,0.6,0.06,-0.05,0.8
1697353002.68,-0.08,-0.44,0.97,-0.7,1,-39.7,0.6,0.06,-0.05,0.8
1697353002.69,0.04,-0.35,1.22,-0.5,1.1,-39.8,0.6,0.06,-0.05,0.8
1697353002.7,0.06,-0.2,1.32,0.2,1.1,-39.4,0.6,0.06,-0.05,0.79
1697353002.71,0.14,-0.31,1.64,1.1,0.3,-38.8,0.61,0.06,-0.05,0.79
1697353002.72,0.18,-0.6,0.84,2.6,-1,-38.2,0.61,0.06,-0.05,0.79
1697353002.73,0.08,-0.55,0.97,1.4,-1.3,-38,0.61,0.06,-0.05,0.79
1697353002.74,0,-0.46,1.42,1.4,-1.3,-38,0.62,0.06,-0.05,0.78
1697353002.75,0.06,-0.34,0.84,-2.9,1,-37.5,0.62,0.06,-0.05,0.78
1697353002.76,0.06,-0.34,0.84,-2.9,1,-37.5,0.62,0.06,-0.05,0.78
1697353002.77,-0.01,-0.42,0.96,0,1.5,-38.2,0.62,0.06,-0.05,0.78
1697353002.78,-0.01,-0.42,0.96,2.7,1.9,-38.5,0.63,0.06,-0.05,0.78
1697353002.79,0.01,-0.51,1.08,3.2,1.9,-38.7,0.63,0.06,-0.05,0.77
1697353002.8,0.1,-0.55,0.84,3.3,1.8,-39.3,0.63,0.06,-0.05,0.77
1697353002.81,0.11,-0.52,0.89,1.9,1.1,-39.6,0.63,0.06,-0.05,0.77
1697353002.82,0.11,-0.44,1.08,-0.1,0.1,-39.6,0.64,0.06,-0.05,0.77
1697353002.83,0.16,-0.33,1.02,-1.2,-0.9,-39.2,0.64,0.06,-0.05,0.76
1697353002.84,0.21,-0.38,0.94,-0.9,-1.5,-38.6,0.64,0.06,-0.05,0.76
1697353002.85,0.15,-0.38,1.02,-0.9,-1.5,-38.6,0.64,0.06,-0.05,0.76
1697353002.86,-0,-0.46,0.56,-0.3,-1.6,-37.7,0.65,0.06,-0.05,0.76
1697353002.87,-0.04,-0.36,0.83,-0.1,-1.2,-38,0.65,0.06,-0.05,0.76
1697353002.88,-0.03,-0.41,0.74,-0.6,-0.6,-38.3,0.65,0.06,-0.04,0.75
1697353002.89,0.02,-0.4,0.63,-0.3,0,-38.8,0.65,0.06,-0.04,0.75
1697353002.9,-0.01,-0.41,0.89,-0.2,0.7,-39.4,0.66,0.06,-0.04,0.75
1697353002.91,0.03,-0.4,0.98,-0.5,0.8,-39.8,0.66,0.06,-0.04,0.75
1697353002.92,0.08,-0.45,1.1,-0.9,1.2,-39.9,0.66,0.06,-0.04,0.74
1697353002.93,0.14,-0.42,1,-1,0.5,-39.9,0.67,0.06,-0.04,0.74
1697353002.94,0.12,-0.44,0.98,-1.3,0.5,-39.7,0.67,0.06,-0.04,0.74
1697353002.95,0.17,-0.43,1.03,-0.8,0.3,-39.3,0.67,0.06,-0.04,0.74
1697353002.96,0.17,-0.43,1.03,-0.8,0.3,-39.3,0.67,0.06,-0.04,0.74
1697353002.97,0.17,-0.43,1.03,-0.8,0.3,-39.3,0.67,0.06,-0.04,0.74
1697353002.98,0.17,-0.43,1.03,-0.8,0.3,-39.3,0.67,0.06,-0.04,0.74
1697353002.99,0.17,-0.43,1.03,-0.8,0.3,-39.3,0.67,0.06,-0.04,0.74
1697353003,0.17,-0.43,1.03,-0.8,0.3,-39.3,0.67,0.06,-0.04,0.74
1697353003.01,0.17,-0.43,1.03,-0.8,0.3,-39.3,0.67,0.06,-0.04,0.74
1697353003.02,0.17,-0.43,1.03,-0.8,0.3,-39.3,0.67,0.06,-0.04,0.74
1697353003.03,0.17,-0.43,1.03,-0.8,0.3,-39.3,0.67,0.06,-0.04,0.74
1697353003.04,0.17,-0.43,1.03,-0.8,0.3,-39.3,0.67,0.06,-0.04,0.74
1697353003.05,0.17,-0.43,1.03,-0.8,0.3,-39.3,0.67,0.06,-0.04,0.74
1697353003.06,0.17,-0.43,1.03,-0.8,0.3,-39.3,0.67,0.06,-0.04,0.74
1697353003.07,0.17,-0.43,1.03,-0.8,0.3,-39.3,0.67,0.06,-0.04,0.74
1697353003.08,0.17,-0.43,1.03,-0.8,0.3,-39.3,0.67,0.06,-0.04,0.74
1697353003.09,0.02,-0.43,0.93,3.6,-1.8,-39.4,0.71,0.06,-0.04,0.7
1697353003.1,-0.08,-0.58,1.22,2.4,-1.3,-40.4,0.71,0.06,-0.04,0.7
1697353003.11,-0.09,-0.55,0.9,-1.6,0.4,-41.1,0.71,0.06,-0.04,0.7
1697353003.12,0.07,-0.47,0.91,-4.6,2,-40.8,0.71,0.06,-0.04,0.7
1697353003.13,0.12,-0.33,0.8,-4.3,2.5,-40.9,0.71,0.06,-0.04,0.7
1697353003.14,0,-0.22,1.25,-1,2.7,-40.9,0.72,0.06,-0.04,0.69
1697353003.15,0.15,-0.41,0.99,2.8,1.9,-40.5,0.72,0.06,-0.04,0.69
1697353003.16,0.15,-0.41,0.99,2.8,1.9,-40.5,0.72,0.06,-0.04,0.69
1697353003.17,0.03,-0.65,1.19,2.4,0.9,-40.3,0.72,0.06,-0.04,0.68
1697353003.18,0.03,-0.65,1.19,2.4,0.9,-40.3,0.73,0.06,-0.04,0.68
1697353003.19,0.03,-0.47,0.9,-3.9,0.1,-41.2,0.73,0.06,-0.04,0.68
1697353003.2,0.03,-0.47,0.9,-3.9,0.1,-41.2,0.73,0.06,-0.04,0.68
1697353003.21,-0.01,-0.42,1.02,-4.3,0,-41.3,0.73,0.06,-0.04,0.67
1697353003.22,-0.04,-0.36,0.97,0.9,0.2,-41.3,0.74,0.06,-0.04,0.67
1697353003.23,-0.01,-0.42,1.03,1.9,0.2,-41.4,0.74,0.06,-0.04,0.67
1697353003.24,0.06,-0.56,0.83,3.6,1,-41.3,0.74,0.06,-0.04,0.67
1697353003.25,0.01,-0.61,0.99,2.9,1.5,-41.2,0.74,0.07,-0.04,0.66
1697353003.26,0.21,-0.58,0.76,0.7,1.4,-41.3,0.75,0.07,-0.04,0.66
1697353003.27,0.1,-0.4,1.03,0.7,1.4,-41.3,0.75,0.07,-0.04,0.66
1697353003.28,0.07,-0.52,1.04,0.7,0.3,-40.8,0.75,0.07,-0.03,0.66
1697353003.29,0.14,-0.51,0.89,2.5,-0.1,-40.6,0.75,0.07,-0.03,0.65
1697353003.3,0.1,-0.55,1.11,3.3,-0.4,-40.8,0.76,0.07,-0.03,0.65
1697353003.31,0,-0.53,1.13,2.1,-0.5,-40.9,0.76,0.07,-0.03,0.65
1697353003.32,-0.03,-0.42,0.97,1,0,-41.2,0.76,0.07,-0.03,0.64
1697353003.33,0.01,-0.48,1,1,1,-41.4,0.76,0.07,-0.03,0.64
1697353003.34,0.01,-0.52,1.08,0.9,1.7,-41.6,0.77,0.07,-0.03,0.64
1697353003.35,0,-0.43,0.94,-1.8,1.6,-41.6,0.77,0.07,-0.03,0.64
1697353003.36,0.11,-0.31,1.11,-3,1.1,-41.7,0.77,0.07,-0.03,0.63
1697353003.37,0.16,-0.36,0.97,-3,1.1,-41.7,0.77,0.07,-0.03,0.63
1697353003.38,0.27,-0.39,0.97,-0.5,-1,-40.7,0.77,0.07,-0.03,0.63
1697353003.39,0.12,-0.48,0.95,0.1,-2.1,-40.1,0.78,0.07,-0.03,0.63
1697353003.4,0,-0.37,1.07,-0.3,-2.2,-39.5,0.78,0.07,-0.03,0.62
1697353003.41,0.05,-0.32,0.98,-0.3,-2.2,-39.5,0.78,0.07,-0.03,0.62
1697353003.42,0.05,-0.25,0.92,-0.5,-0.7,-38.1,0.78,0.07,-0.03,0.62
1697353003.43,0.08,-0.3,0.98,1.2,0.2,-37,0.78,0.07,-0.03,0.62
1697353003.44,0.03,-0.36,1.06,3.5,1.1,-36.2,0.79,0.07,-0.03,0.61
1697353003.45,0.11,-0.4,0.96,3.5,1.1,-36.2,0.79,0.07,-0.03,0.61
1697353003.46,0.14,-0.33,1.05,2.3,2.6,-34.1,0.79,0.07,-0.03,0.61
1697353003.47,0.15,-0.26,1.22,0.5,3.1,-32.9,0.79,0.07,-0.03,0.61
1697353003.48,0.15,-0.26,1.22,0.5,3.1,-32.9,0.79,0.07,-0.03,0.61
1697353003.49,0.15,-0.26,1.22,0.5,3.1,-32.9,0.79,0.07,-0.03,0.61
1697353003.5,0.15,-0.26,1.22,0.5,3.1,-32.9,0.79,0.07,-0.03,0.61
1697353003.51,0.15,-0.26,1.22,0.5,3.1,-32.9,0.79,0.07,-0.03,0.61
1697353003.52,0.15,-0.26,1.22,0.5,3.1,-32.9,0.79,0.07,-0.03,0.61
1697353003.53,0.15,-0.26,1.22,0.5,3.1,-32.9,0.79,0.07,-0.03,0.61
1697353003.54,0.15,-0.26,1.22,0.5,3.1,-32.9,0.79,0.07,-0.03,0.61
1697353003.55,0.15,-0.26,1.22,0.5,3.1,-32.9,0.79,0.07,-0.03,0.61
1697353003.56,0.15,-0.26,1.22,0.5,3.1,-32.9,0.79,0.07,-0.03,0.61
1697353003.57,0.15,-0.26,1.22,0.5,3.1,-32.9,0.79,0.07,-0.03,0.61
1697353003.58,0.15,-0.26,1.22,0.5,3.1,-32.9,0.79,0.07,-0.03,0.61
1697353003.59,0.15,-0.26,1.22,0.5,3.1,-32.9,0.79,0.07,-0.03,0.61
1697353003.6,0.15,-0.26,1.22,0.5,3.1,-32.9,0.79,0.07,-0.03,0.61
1697353003.61,0.13,0.1,1.02,2.7,0.4,-13.3,0.81,0.07,-0.03,0.58
1697353003.62,0.09,-0.05,0.98,1.4,2,-11.5,0.81,0.07,-0.03,0.58
1697353003.63,0.16,0.15,0.82,-0.2,2.9,-9.7,0.81,0.07,-0.03,0.58
1697353003.64,0.12,0.35,1.09,-0.6,3.8,-8.3,0.81,0.07,-0.03,0.58
1697353003.65,0.15,0.22,1.08,-0.2,3.9,-5.6,0.81,0.07,-0.03,0.58
1697353003.66,0.2,0.42,1.01,2.4,4,-4,0.81,0.07,-0.02,0.58
1697353003.67,0.2,0.21,0.91,3.6,3.6,-1.3,0.81,0.07,-0.02,0.58
1697353003.68,0.21,0.16,1,4.7,2.8,0.8,0.81,0.07,-0.02,0.58
1697353003.69,0.2,0.23,1.2,3.6,1.7,2.8,0.81,0.07,-0.02,0.58
1697353003.7,0.13,0.18,1.09,1.1,-0.1,5.6,0.81,0.07,-0.02,0.58
1697353003.71,0.25,0.26,0.94,0.5,-0.7,6.8,0.81,0.07,-0.02,0.58
1697353003.72,0.2,0.34,1.08,1,-0.5,8,0.81,0.07,-0.02,0.58
1697353003.73,0.18,0.39,0.86,2.2,-0.3,8.9,0.81,0.07,-0.02,0.58
1697353003.74,0.12,0.42,0.93,3,-0.2,10.1,0.81,0.07,-0.02,0.58
1697353003.75,0.2,0.32,1.14,3.1,0,10.8,0.81,0.07,-0.02,0.58
1697353003.76,0.11,0.29,1.1,2.1,0.1,11.4,0.81,0.07,-0.02,0.59
1697353003.77,0.19,0.24,0.89,0.7,0.6,12.1,0.81,0.07,-0.02,0.59
1697353003.78,0.14,0.3,0.89,-0.9,0.9,12.9,0.81,0.07,-0.02,0.59
1697353003.79,0.12,0.44,1.31,-0.9,0.9,12.9,0.81,0.07,-0.02,0.59
1697353003.8,0.12,0.44,1.31,-1.6,1,14,0.81,0.07,-0.02,0.59
1697353003.81,0.15,0.34,1.01,-0.2,0.9,14.6,0.8,0.07,-0.02,0.59
1697353003.82,0.14,0.25,1.15,0.9,-0.1,16,0.8,0.07,-0.02,0.59
1697353003.83,0.14,0.25,1.15,0.9,-0.1,16,0.8,0.07,-0.02,0.59
1697353003.84,0.22,0.2,0.81,-2.7,-1.3,15.9,0.8,0.07,-0.02,0.59
1697353003.85,0.14,0.25,0.95,-2.7,-1.3,15.9,0.8,0.07,-0.02,0.59
1697353003.86,0.22,0.25,0.88,-3.1,-1.2,16,0.8,0.07,-0.02,0.6
1697353003.87,0.2,0.32,0.96,-3.1,-1.2,16,0.8,0.07,-0.02,0.6
1697353003.88,0.22,0.32,1.07,-2,-0.9,16.3,0.8,0.07,-0.03,0.6
1697353003.89,0.16,0.25,1.05,1.3,-0.6,16.2,0.8,0.07,-0.03,0.6
1697353003.9,0.16,0.25,1.05,1.3,-0.6,16.2,0.8,0.07,-0.03,0.6
1697353003.91,0.32,0.08,0.87,2,0.7,16.8,0.8,0.07,-0.03,0.6
1697353003.92,0.05,0.1,1.14,1,1.3,16.8,0.79,0.07,-0.03,0.6
1697353003.93,0.2,0.18,1.22,-0.3,1.9,17,0.79,0.07,-0.03,0.6
1697353003.94,0.2,0.18,1.22,-0.6,1.6,17.3,0.79,0.07,-0.03,0.6
1697353003.95,0.32,0.24,0.93,1.1,1.1,17.9,0.79,0.07,-0.03,0.61
1697353003.96,0.19,0.35,0.94,3.3,0.3,18.6,0.79,0.07,-0.03,0.61
1697353003.97,0.24,0.23,1.28,4.3,-0.4,18.9,0.79,0.07,-0.03,0.61
1697353003.98,0.21,0.12,0.69,3.5,-1,18.9,0.79,0.07,-0.03,0.61
1697353003.99,0.21,0.14,1.11,1.1,-1.4,18.6,0.79,0.07,-0.03,0.61
1697353004,0.14,0.23,1.12,-0.9,-1.8,18.2,0.79,0.07,-0.03,0.61
1697353004.01,0.14,0.23,1.12,-0.9,-1.8,18.2,0.79,0.07,-0.03,0.61
1697353004.02,0.14,0.23,1.12,-0.9,-1.8,18.2,0.79,0.07,-0.03,0.61
1697353004.03,0.14,0.23,1.12,-0.9,-1.8,18.2,0.79,0.07,-0.03,0.61
1697353004.04,0.14,0.23,1.12,-0.9,-1.8,18.2,0.79,0.07,-0.03,0.61
1697353004.05,0.14,0.23,1.12,-0.9,-1.8,18.2,0.79,0.07,-0.03,0.61
1697353004.06,0.14,0.23,1.12,-0.9,-1.8,18.2,0.79,0.07,-0.03,0.61
1697353004.07,0.14,0.23,1.12,-0.9,-1.8,18.2,0.79,0.07,-0.03,0.61
1697353004.08,0.14,0.23,1.12,-0.9,-1.8,18.2,0.79,0.07,-0.03,0.61
1697353004.09,0.14,0.23,1.12,-0.9,-1.8,18.2,0.79,0.07,-0.03,0.61
1697353004.1,0.14,0.23,1.12,-0.9,-1.8,18.2,0.79,0.07,-0.03,0.61
1697353004.11,0.14,0.23,1.12,-0.9,-1.8,18.2,0.79,0.07,-0.03,0.61
1697353004.12,0.14,0.23,1.12,-0.9,-1.8,18.2,0.79,0.07,-0.03,0.61
1697353004.13,0.14,0.23,1.12,-0.9,-1.8,18.2,0.79,0.07,-0.03,0.61
1697353004.14,0.23,0.23,0.94,-0.4,0.5,18,0.77,0.07,-0.03,0.63
1697353004.15,0.22,0.29,0.9,0.4,0.4,18.1,0.77,0.07,-0.03,0.63
1697353004.16,0.25,0.18,0.93,1.2,0.2,18.1,0.77,0.07,-0.03,0.63
1697353004.17,0.23,0.23,0.93,1.8,-0.2,17.8,0.77,0.07,-0.03,0.63
1697353004.18,0.18,0.16,1.25,1.4,-0.7,17.5,0.77,0.07,-0.03,0.63
1697353004.19,0.26,0.07,1.01,0.6,-1.3,16.8,0.77,0.07,-0.03,0.63
1697353004.2,0.21,0.14,0.68,-1.2,-1.5,16.1,0.77,0.07,-0.03,0.64
1697353004.21,0.21,0.14,0.68,-1.2,-1.5,16.1,0.77,0.07,-0.03,0.64
1697353004.22,0.24,0.27,0.64,-1.2,-1.3,14.8,0.77,0.07,-0.03,0.64
1697353004.23,0.24,0.27,0.64,-1.2,-1.3,14.8,0.77,0.07,-0.03,0.64
1697353004.24,0.22,0.2,0.66,-0.3,-0.5,14.2,0.76,0.07,-0.03,0.64
1697353004.25,0.22,0.2,0.66,-0.3,-0.5,14.2,0.76,0.07,-0.03,0.64
1697353004.26,0.36,0.24,0.86,-1.3,0,13.8,0.76,0.07,-0.03,0.64
1697353004.27,0.36,0.24,0.86,-1.8,0.6,14,0.76,0.07,-0.03,0.64
1697353004.28,0.13,0.29,0.8,-0.6,0.4,14.1,0.76,0.07,-0.03,0.64
1697353004.29,0.15,0.26,1.03,0,0.2,14.6,0.76,0.07,-0.03,0.64
1697353004.3,0.15,0.22,1.31,0.4,0.4,14.9,0.76,0.07,-0.03,0.65
1697353004.31,0.24,0.09,0.56,2,0.8,14.8,0.76,0.07,-0.03,0.65
1697353004.32,0.29,0.13,1.25,2,0.8,14.8,0.76,0.07,-0.03,0.65
1697353004.33,0.2,0.11,1.15,0.1,1,14.9,0.76,0.07,-0.03,0.65
1697353004.34,0.29,0.21,0.79,0.1,0.7,14.6,0.76,0.07,-0.03,0.65
1697353004.35,0.21,0.18,1.44,0.1,0.7,14.6,0.76,0.07,-0.03,0.65
1697353004.36,0.23,0.21,1.12,0.5,0.5,14.5,0.75,0.07,-0.03,0.65
1697353004.37,0.22,0.24,1.16,1.2,0.4,14.7,0.75,0.07,-0.03,0.65
1697353004.38,0.23,0.25,0.71,2.5,0.3,14.4,0.75,0.07,-0.03,0.65
1697353004.39,0.14,0.19,1.27,2.1,0.4,14.3,0.75,0.07,-0.03,0.65
1697353004.4,0.33,0.1,0.97,2.1,0.4,14.3,0.75,0.07,-0.03,0.65
1697353004.41,0.25,0.15,0.54,-1.4,-0.4,13.5,0.75,0.07,-0.03,0.66
1697353004.42,0.29,0.18,1.22,-1.4,-0.4,13.5,0.75,0.07,-0.03,0.66
1697353004.43,0.24,0.34,0.71,-1.8,-0.5,13.4,0.75,0.07,-0.03,0.66
1697353004.44,0.33,0.27,0.95,-2.8,-0.7,12.5,0.75,0.07,-0.03,0.66
1697353004.45,0.18,0.21,1.02,-1,-1,12,0.75,0.07,-0.03,0.66
1697353004.46,0.18,0.21,1.02,-1,-1,12,0.75,0.07,-0.03,0.66
1697353004.47,0.25,0.2,0.81,0,-0.2,11.5,0.75,0.07,-0.03,0.66
1697353004.48,0.25,0.2,0.81,0,-0.2,11.5,0.75,0.07,-0.03,0.66
1697353004.49,0.24,0.18,1.17,0.9,0,11.4,0.75,0.07,-0.03,0.66
1697353004.5,0.25,0.12,1.01,0.9,-0.1,11.8,0.74,0.07,-0.03,0.66
1697353004.51,0.29,0.09,1.07,1.2,0,12,0.74,0.07,-0.03,0.66
1697353004.52,0.2,0.12,0.83,0.9,-0.1,12.2,0.74,0.07,-0.03,0.66
1697353004.53,0.29,0.26,1.17,0.9,-0.1,12.2,0.74,0.07,-0.03,0.66
1697353004.54,0.29,0.26,1.17,0.1,-0.1,12.6,0.74,0.07,-0.03,0.66
1697353004.55,0.29,0.26,1.17,0.1,-0.1,12.6,0.74,0.07,-0.03,0.66
1697353004.56,0.29,0.26,1.17,0.1,-0.1,12.6,0.74,0.07,-0.03,0.66
1697353004.57,0.29,0.26,1.17,0.1,-0.1,12.6,0.74,0.07,-0.03,0.66
1697353004.58,0.29,0.26,1.17,0.1,-0.1,12.6,0.74,0.07,-0.03,0.66
1697353004.59,0.29,0.26,1.17,0.1,-0.1,12.6,0.74,0.07,-0.03,0.66
1697353004.6,0.29,0.26,1.17,0.1,-0.1,12.6,0.74,0.07,-0.03,0.66
1697353004.61,0.29,0.26,1.17,0.1,-0.1,12.6,0.74,0.07,-0.03,0.66
1697353004.62,0.29,0.26,1.17,0.1,-0.1,12.6,0.74,0.07,-0.03,0.66
1697353004.63,0.29,0.26,1.17,0.1,-0.1,12.6,0.74,0.07,-0.03,0.66
1697353004.64,0.29,0.26,1.17,0.1,-0.1,12.6,0.74,0.07,-0.03,0.66
1697353004.65,0.29,0.26,1.17,0.1,-0.1,12.6,0.74,0.07,-0.03,0.66
1697353004.66,0.29,0.26,1.17,0.1,-0.1,12.6,0.74,0.07,-0.03,0.66
1697353004.67,0.23,0.25,1.17,0.9,0.6,11.8,0.73,0.07,-0.03,0.68
1697353004.68,0.23,0.16,0.99,1.1,0.5,12,0.73,0.07,-0.03,0.68
1697353004.69,0.27,0.14,0.92,1,0.4,12.1,0.73,0.07,-0.03,0.68
1697353004.7,0.3,0.11,1.23,0.5,0.3,12.6,0.73,0.07,-0.03,0.68
1697353004.71,0.26,0.19,0.9,0,0.1,12.9,0.73,0.07,-0.03,0.68
1697353004.72,0.27,0.12,1.15,-0.6,-0.3,13.2,0.73,0.07,-0.03,0.68
1697353004.73,0.23,0.14,0.89,-0.9,-0.5,13.3,0.73,0.07,-0.03,0.68
1697353004.74,0.22,0.23,1.18,-1.4,0,13,0.73,0.07,-0.03,0.68
1697353004.75,0.36,0.19,0.89,-1.3,0.7,13.1,0.73,0.07,-0.03,0.68
1697353004.76,0.19,0.35,1.05,-0.3,1.2,12.8,0.72,0.07,-0.03,0.69
1697353004.77,0.25,0.15,1.21,1.8,1.1,12.5,0.72,0.07,-0.03,0.69
1697353004.78,0.25,0.15,1.21,1.8,1.1,12.5,0.72,0.07,-0.03,0.69
1697353004.79,0.23,0.12,0.96,2.8,0.6,11.8,0.72,0.07,-0.03,0.69
1697353004.8,0.29,0.17,1.01,1.4,0.1,11.3,0.72,0.07,-0.03,0.69
1697353004.81,0.29,0.17,1.01,-0.6,-0.4,10.7,0.72,0.07,-0.03,0.69
1697353004.82,0.22,0.18,1.06,-2,-0.8,9.4,0.72,0.07,-0.03,0.69
1697353004.83,0.22,0.18,1.06,-0.4,-0.9,8.9,0.72,0.07,-0.03,0.69
1697353004.84,0.29,0.16,0.92,1.3,-0.4,8.2,0.72,0.07,-0.03,0.69
1697353004.85,0.28,0.12,0.73,2.7,0.7,7.6,0.72,0.07,-0.03,0.69
1697353004.86,0.28,-0.12,1.34,1,1.6,6.2,0.72,0.07,-0.03,0.69
1697353004.87,0.26,-0.24,0.94,1,1.6,6.2,0.72,0.07,-0.03,0.69
1697353004.88,0.27,-0.04,1.24,-3.3,1.6,5.2,0.72,0.07,-0.03,0.69
1697353004.89,0.28,0.04,1.24,-6,0.6,4.9,0.72,0.07,-0.03,0.69
1697353004.9,0.23,0.24,1.02,-5.7,-0.3,4.7,0.72,0.07,-0.03,0.69
1697353004.91,0.28,0.13,1.18,-3.2,-1.4,4.7,0.72,0.07,-0.03,0.69
1697353004.92,0.41,-0.03,0.7,-0.1,-2.7,4.8,0.72,0.07,-0.03,0.69
1697353004.93,0.24,-0.05,1.27,0.9,-3.6,4.2,0.72,0.07,-0.03,0.69
1697353004.94,0.28,-0.16,0.96,1.2,-4.6,3.4,0.72,0.07,-0.03,0.69
1697353004.95,0.01,-0.13,1.35,-0.5,-4.4,2.6,0.72,0.07,-0.03,0.69
1697353004.96,0.29,0.02,0.49,-1.9,-1.9,1.9,0.72,0.07,-0.04,0.69
1697353004.97,0.17,0.08,1.41,-0.6,-1,1.8,0.72,0.07,-0.04,0.69
1697353004.98,0.31,0.14,0.9,0.8,-0.1,2.4,0.72,0.07,-0.04,0.69
1697353004.99,0.28,0.05,0.61,1.8,0,2.7,0.72,0.07,-0.04,0.69
1697353005,0.17,0.09,1.22,3.7,-0.2,3.2,0.72,0.07,-0.04,0.69
1697353005.01,0.33,-0.07,0.75,3.8,-0.6,3.4,0.72,0.07,-0.04,0.69
1697353005.02,0.14,-0.1,1.06,1.7,-1.3,3.4,0.72,0.07,-0.04,0.69
1697353005.03,0.24,-0.07,1.12,-0.9,-1.3,3.5,0.71,0.07,-0.04,0.69
1697353005.04,0.1,-0.01,1.41,-2.4,-1.4,3.2,0.71,0.07,-0.04,0.69
1697353005.05,0.1,-0.01,1.41,-2.4,-1.4,3.2,0.71,0.07,-0.04,0.69
1697353005.06,0.33,0.13,0.93,-2.6,-0.5,3.1,0.71,0.07,-0.04,0.7
1697353005.07,0.33,0.13,0.93,-2.6,-0.5,3.1,0.71,0.07,-0.04,0.7
1697353005.08,0.33,0.13,0.93,-2.6,-0.5,3.1,0.71,0.07,-0.04,0.7
1697353005.09,0.33,0.13,0.93,-2.6,-0.5,3.1,0.71,0.07,-0.04,0.7
1697353005.1,0.33,0.13,0.93,-2.6,-0.5,3.1,0.71,0.07,-0.04,0.7
1697353005.11,0.33,0.13,0.93,-2.6,-0.5,3.1,0.71,0.07,-0.04,0.7
1697353005.12,0.33,0.13,0.93,-2.6,-0.5,3.1,0.71,0.07,-0.04,0.7
1697353005.13,0.33,0.13,0.93,-2.6,-0.5,3.1,0.71,0.07,-0.04,0.7
1697353005.14,0.33,0.13,0.93,-2.6,-0.5,3.1,0.71,0.07,-0.04,0.7
1697353005.15,0.33,0.13,0.93,-2.6,-0.5,3.1,0.71,0.07,-0.04,0.7
1697353005.16,0.33,0.13,0.93,-2.6,-0.5,3.1,0.71,0.07,-0.04,0.7
1697353005.17,0.33,0.13,0.93,-2.6,-0.5,3.1,0.71,0.07,-0.04,0.7
1697353005.18,0.33,0.13,0.93,-2.6,-0.5,3.1,0.71,0.07,-0.04,0.7
1697353005.19,0.33,0.13,0.93,-2.6,-0.5,3.1,0.71,0.07,-0.04,0.7
1697353005.2,0.32,-0.01,1,-2.9,-1.6,3.4,0.71,0.07,-0.04,0.7
1697353005.21,0.15,0.12,1.21,-2.6,-1.4,3.6,0.71,0.07,-0.04,0.7
1697353005.22,0.17,0.11,0.97,-1.2,-0.9,3.5,0.71,0.07,-0.04,0.7
1697353005.23,0.11,0.14,1.13,0.6,-0.3,3.8,0.71,0.07,-0.04,0.7
1697353005.24,0.17,0.04,1.04,1,-0.2,3.9,0.71,0.07,-0.04,0.7
1697353005.25,0.38,-0.04,0.91,0.3,0.5,3.7,0.71,0.07,-0.04,0.7
1697353005.26,0.14,-0.05,1.28,0.3,0.5,3.7,0.71,0.07,-0.04,0.7
1697353005.27,0.19,-0.01,1.14,-0.7,1.2,2.7,0.71,0.07,-0.04,0.7
1697353005.28,0.25,0.02,0.87,-0.7,1.2,2.7,0.71,0.07,-0.04,0.7
1697353005.29,0.29,0.1,0.69,-1.3,1.6,2.1,0.71,0.07,-0.04,0.7
1697353005.3,0.26,0.04,1.18,-1.3,1.6,2.1,0.71,0.07,-0.04,0.7
1697353005.31,0.35,0.09,0.72,0.2,1.6,1.5,0.71,0.07,-0.04,0.7
1697353005.32,0.22,-0.06,1.01,0.2,1.6,1.5,0.71,0.07,-0.04,0.7
1697353005.33,0.22,-0.15,0.98,1.9,0.9,1.3,0.71,0.07,-0.04,0.7
1697353005.34,0.33,-0.06,0.98,-1.5,-1.2,0.1,0.71,0.07,-0.04,0.7
1697353005.35,0.33,0.15,1.02,-0.9,-1.6,-0.1,0.71,0.07,-0.04,0.7
1697353005.36,0.22,-0.06,1,0.2,-1.6,0,0.71,0.07,-0.04,0.7
1697353005.37,0.22,-0.06,1,0.2,-1.6,0,0.71,0.07,-0.04,0.7
1697353005.38,0.23,-0.07,1.16,-0.9,-1.5,0.1,0.71,0.07,-0.04,0.7
1697353005.39,0.03,0.15,1.26,-1.4,-0.7,0,0.71,0.07,-0.04,0.7
1697353005.4,0.03,-0.07,0.96,-1.4,-0.5,0.5,0.71,0.07,-0.04,0.7
1697353005.41,0.06,0.09,1.16,0.1,0.4,0.3,0.71,0.07,-0.04,0.7
1697353005.42,-0.07,-0.05,1.03,1.4,1.3,0.2,0.71,0.07,-0.04,0.7
1697353005.43,0.03,-0.18,0.77,0,2.8,0,0.71,0.07,-0.04,0.7
1697353005.44,-0,-0.08,1.03,-1,3.4,-0.4,0.71,0.07,-0.04,0.7
1697353005.45,-0,-0.08,1.03,-1,3.4,-0.4,0.71,0.07,-0.04,0.7
1697353005.46,0.11,0.01,0.84,0,3.5,-1.3,0.71,0.07,-0.04,0.7
1697353005.47,0.11,0.01,0.84,0,3.5,-1.3,0.71,0.07,-0.04,0.7
1697353005.48,0.08,-0.13,1.02,1.9,2.6,-1.2,0.71,0.07,-0.04,0.7
1697353005.49,-0.07,-0.17,1.03,2.6,1.6,-1.7,0.71,0.07,-0.04,0.7
1697353005.5,0.14,-0.21,0.78,0.1,-0.9,-2.9,0.71,0.07,-0.04,0.7
1697353005.51,0.14,-0.21,0.78,0.1,-0.9,-2.9,0.71,0.07,-0.04,0.7
1697353005.52,0.05,0.1,1.23,-3.1,-2.5,-3.5,0.71,0.07,-0.04,0.7
1697353005.53,0.05,0.1,1.23,-3.1,-2.5,-3.5,0.71,0.07,-0.04,0.7
1697353005.54,-0.17,0.05,1.17,-1.3,-2.4,-3.6,0.71,0.07,-0.04,0.7
1697353005.55,-0.16,-0.13,1.08,1.1,-2.5,-3.5,0.71,0.07,-0.04,0.7
1697353005.56,0.04,-0.22,1.11,3,-1.7,-3.2,0.71,0.07,-0.04,0.7
1697353005.57,0.04,-0.22,1.11,1.3,-0.5,-3.1,0.71,0.07,-0.04,0.7
1697353005.58,-0.27,-0.17,1.29,1.3,-0.5,-3.1,0.71,0.07,-0.04,0.7
1697353005.59,-0.21,-0.06,1.5,-2.5,0.4,-2.6,0.71,0.07,-0.04,0.7
1697353005.6,-0.21,-0.06,1.5,-2.5,0.4,-2.6,0.71,0.07,-0.04,0.7
1697353005.61,-0.21,-0.06,1.5,-2.5,0.4,-2.6,0.71,0.07,-0.04,0.7
1697353005.62,-0.21,-0.06,1.5,-2.5,0.4,-2.6,0.71,0.07,-0.04,0.7
1697353005.63,-0.21,-0.06,1.5,-2.5,0.4,-2.6,0.71,0.07,-0.04,0.7
1697353005.64,-0.21,-0.06,1.5,-2.5,0.4,-2.6,0.71,0.07,-0.04,0.7
1697353005.65,-0.21,-0.06,1.5,-2.5,0.4,-2.6,0.71,0.07,-0.04,0.7
1697353005.66,-0.21,-0.06,1.5,-2.5,0.4,-2.6,0.71,0.07,-0.04,0.7
1697353005.67,-0.21,-0.06,1.5,-2.5,0.4,-2.6,0.71,0.07,-0.04,0.7
1697353005.68,-0.21,-0.06,1.5,-2.5,0.4,-2.6,0.71,0.07,-0.04,0.7
1697353005.69,-0.21,-0.06,1.5,-2.5,0.4,-2.6,0.71,0.07,-0.04,0.7
1697353005.7,-0.21,-0.06,1.5,-2.5,0.4,-2.6,0.71,0.07,-0.04,0.7
1697353005.71,-0.21,-0.06,1.5,-2.5,0.4,-2.6,0.71,0.07,-0.04,0.7
1697353005.72,-0.21,-0.06,1.5,-2.5,0.4,-2.6,0.71,0.07,-0.04,0.7
1697353005.73,0,0.19,1.11,-2.2,1,-2.3,0.71,0.07,-0.04,0.7
1697353005.74,-0.12,0.12,1.18,1.7,1.7,-2.5,0.71,0.07,-0.04,0.7
1697353005.75,0.03,-0.1,0.91,3.6,1.7,-2.3,0.71,0.07,-0.04,0.7
1697353005.76,-0.07,-0.14,1.07,2.7,1.5,-2.8,0.71,0.07,-0.04,0.7
1697353005.77,-0.09,-0.14,1.02,-1.4,0.9,-3,0.71,0.07,-0.04,0.7
1697353005.78,0.08,0,0.99,-1.4,0.9,-3,0.71,0.07,-0.04,0.7
1697353005.79,0.09,0.06,0.74,-4.2,-3.1,-2.7,0.71,0.07,-0.04,0.7
1697353005.8,-0.08,0.1,1.12,-0.1,-4.6,-2.4,0.71,0.07,-0.04,0.7
1697353005.81,0.08,-0.18,0.64,3.3,-5,-2.5,0.71,0.07,-0.04,0.69
1697353005.82,-0.25,-0.16,1.34,3,-4.6,-2.9,0.72,0.07,-0.04,0.69
1697353005.83,-0.06,-0.2,0.97,3,-4.6,-2.9,0.72,0.07,-0.04,0.69
1697353005.84,-0.12,-0.12,1.14,-1.2,-1.7,-2.9,0.72,0.07,-0.04,0.69
1697353005.85,-0.12,-0.12,1.14,-1.2,-1.7,-2.9,0.72,0.07,-0.04,0.69
1697353005.86,-0.23,-0.04,1.08,-1.5,-0.4,-3.4,0.72,0.07,-0.04,0.69
1697353005.87,-0.23,-0.04,1.08,-0.9,0.8,-3.2,0.72,0.07,-0.04,0.69
1697353005.88,-0.23,0.05,1.33,0.2,2.5,-3.2,0.72,0.07,-0.04,0.69
1697353005.89,0.08,-0.08,0.75,1.8,3.6,-3.4,0.72,0.07,-0.04,0.69
1697353005.9,-0.32,-0.13,1.38,2.4,3.9,-3.7,0.72,0.07,-0.04,0.69
1697353005.91,-0.18,-0.17,1,1.5,3.6,-3.9,0.72,0.07,-0.04,0.69
1697353005.92,-0.24,-0.17,1.11,-0.4,2.8,-4.3,0.72,0.07,-0.04,0.69
1697353005.93,0.07,-0.08,0.99,-1.4,2.2,-4.5,0.72,0.07,-0.04,0.69
1697353005.94,-0.02,0.01,0.93,-2,1.5,-4.5,0.72,0.07,-0.04,0.69
1697353005.95,-0.07,-0.01,1.18,-0.2,0.4,-4.5,0.72,0.07,-0.04,0.69
1697353005.96,-0.04,-0.11,0.92,0.7,-0.4,-4.2,0.72,0.07,-0.04,0.69
1697353005.97,0.03,-0.03,0.76,0,-0.5,-4,0.72,0.07,-0.04,0.69
1697353005.98,0.04,-0.07,0.98,0,-0.8,-3.7,0.72,0.07,-0.04,0.69
1697353005.99,0.04,0.03,0.64,0.8,-1,-3.7,0.72,0.07,-0.04,0.69
1697353006,0.04,0.03,0.64,0.8,-1,-3.7,0.72,0.07,-0.04,0.69
1697353006.01,-0.1,-0.07,0.92,1.5,-0.3,-3,0.72,0.07,-0.04,0.69
1697353006.02,-0.13,0.1,0.87,-0.2,1,-2.5,0.72,0.07,-0.04,0.69
1697353006.03,-0.13,-0.05,1.25,0.6,1.5,-2,0.72,0.07,-0.04,0.69
1697353006.04,-0.04,-0.07,1.16,2.8,1.6,-1.9,0.72,0.07,-0.04,0.69
1697353006.05,0,-0.23,1.11,3.7,1.4,-2,0.72,0.07,-0.04,0.69
1697353006.06,-0.18,-0.09,0.93,2.2,1,-2.4,0.72,0.07,-0.04,0.69
1697353006.07,-0.15,0.1,1.25,-1.4,1.2,-2.3,0.72,0.07,-0.04,0.69
1697353006.08,-0.15,0.1,1.25,-1.4,1.2,-2.3,0.72,0.07,-0.04,0.69
1697353006.09,0.01,0.19,1.17,-0.9,1.2,-1.5,0.72,0.07,-0.04,0.69
1697353006.1,0.01,0.19,1.17,-0.9,1.2,-1.5,0.72,0.07,-0.04,0.69
1697353006.11,0.09,0.12,0.84,1.4,0.9,-1.1,0.72,0.07,-0.04,0.69
1697353006.12,0.09,0.12,0.84,1.4,0.9,-1.1,0.72,0.07,-0.04,0.69
1697353006.13,0.09,0.12,0.84,1.4,0.9,-1.1,0.72,0.07,-0.04,0.69
1697353006.14,0.09,0.12,0.84,1.4,0.9,-1.1,0.72,0.07,-0.04,0.69
1697353006.15,0.09,0.12,0.84,1.4,0.9,-1.1,0.72,0.07,-0.04,0.69
1697353006.16,0.09,0.12,0.84,1.4,0.9,-1.1,0.72,0.07,-0.04,0.69
1697353006.17,0.09,0.12,0.84,1.4,0.9,-1.1,0.72,0.07,-0.04,0.69
1697353006.18,0.09,0.12,0.84,1.4,0.9,-1.1,0.72,0.07,-0.04,0.69
1697353006.19,0.09,0.12,0.84,1.4,0.9,-1.1,0.72,0.07,-0.04,0.69
1697353006.2,0.09,0.12,0.84,1.4,0.9,-1.1,0.72,0.07,-0.04,0.69
1697353006.21,0.09,0.12,0.84,1.4,0.9,-1.1,0.72,0.07,-0.04,0.69
1697353006.22,0.09,0.12,0.84,1.4,0.9,-1.1,0.72,0.07,-0.04,0.69
1697353006.23,0.09,0.12,0.84,1.4,0.9,-1.1,0.72,0.07,-0.04,0.69
1697353006.24,-0.23,0.29,1.57,1.4,0.9,-1.1,0.72,0.07,-0.04,0.69
1697353006.25,0.17,0.25,0.5,-0.2,0.5,3.6,0.72,0.07,-0.04,0.69
1697353006.26,-0.03,-0.06,1.06,5,-1.2,4.1,0.72,0.07,-0.04,0.69
1697353006.27,-0.17,-0.12,1.2,5,-1.2,4.1,0.72,0.07,-0.04,0.69
1697353006.28,0.11,0.08,0.58,1.6,-1.9,4,0.72,0.07,-0.04,0.69
1697353006.29,0.11,0.08,0.58,-2.4,-2.4,3.6,0.72,0.07,-0.04,0.69
1697353006.3,-0.1,0.22,1.14,-4.5,-1.5,3.4,0.72,0.07,-0.04,0.69
1697353006.31,-0.14,0.26,1.23,-3,-0.6,3.7,0.72,0.07,-0.04,0.69
1697353006.32,0.06,0.13,0.71,0.1,-0.2,3.8,0.72,0.07,-0.04,0.69
1697353006.33,0.02,0.15,0.85,2,0.6,4,0.72,0.07,-0.04,0.69
1697353006.34,-0.15,-0.01,1,1.8,1.4,4.2,0.72,0.07,-0.04,0.69
1697353006.35,-0.13,-0.01,0.97,0.6,2.5,4.1,0.72,0.07,-0.04,0.69
1697353006.36,-0.14,0.05,1.1,-0.3,2.6,3.6,0.72,0.07,-0.04,0.69
1697353006.37,-0.01,0.05,0.99,-0.9,2.3,3.9,0.72,0.07,-0.04,0.69
1697353006.38,0.05,0.12,1.14,-0.7,1.4,4,0.72,0.07,-0.04,0.69
1697353006.39,-0.05,0.2,1.17,0.1,0.6,3.9,0.72,0.07,-0.04,0.69
1697353006.4,-0.01,0.16,1.21,1.6,-0.9,4.3,0.72,0.07,-0.04,0.69
1697353006.41,0,0.01,1.3,2.6,-2.4,4.6,0.72,0.07,-0.04,0.69
1697353006.42,0.04,0.02,0.83,2.6,-2.4,4.6,0.72,0.07,-0.04,0.69
1697353006.43,0.12,0.02,1.06,-0.1,-3.4,4.5,0.72,0.07,-0.04,0.69
1697353006.44,0.16,0.04,0.96,-2.1,-3.3,4.7,0.71,0.07,-0.04,0.69
1697353006.45,0.01,0.11,0.99,-2.7,-2.1,4.5,0.71,0.07,-0.04,0.7
1697353006.46,-0.01,0.2,0.96,-1,-0.6,4.4,0.71,0.07,-0.04,0.7
1697353006.47,-0.05,0.07,0.74,0.9,0.5,4,0.71,0.07,-0.04,0.7
1697353006.48,-0.25,0.03,1.26,0.9,0.5,4,0.71,0.07,-0.04,0.7
1697353006.49,-0,0.06,1.02,0.6,2.4,3.5,0.71,0.07,-0.04,0.7
1697353006.5,-0.14,0.07,0.7,0.1,2.5,3.4,0.71,0.07,-0.04,0.7
1697353006.51,-0.21,0.01,1.41,0.4,1.9,3.1,0.71,0.07,-0.04,0.7
1697353006.52,-0.21,0.01,1.41,0.4,1.9,3.1,0.71,0.07,-0.04,0.7
1697353006.53,0.13,0.03,0.64,0.3,1.3,3.1,0.71,0.07,-0.04,0.7
1697353006.54,-0.13,0.02,1.1,-0.1,0.2,3.4,0.71,0.07,-0.04,0.7
1697353006.55,-0.06,0.04,0.91,0.3,-0.6,3.3,0.71,0.07,-0.04,0.7
1697353006.56,0.03,0,0.78,1.1,-1.6,3.1,0.71,0.07,-0.04,0.7
1697353006.57,-0.13,-0.02,1.22,0.5,-2,3,0.71,0.07,-0.04,0.7
1697353006.58,0.02,-0.01,0.91,0.5,-2,3,0.71,0.07,-0.04,0.7
1697353006.59,0.18,0.03,0.57,-1.6,-2.1,2.9,0.71,0.07,-0.04,0.7
1697353006.6,-0.03,0.22,0.59,-2.6,-1.7,2.6,0.71,0.07,-0.04,0.7
1697353006.61,-0.23,0.1,1.26,1.7,0.2,2.9,0.71,0.07,-0.04,0.7
1697353006.62,-0.05,0.07,0.67,1.7,0.2,2.9,0.71,0.07,-0.04,0.7
1697353006.63,-0.05,0.07,0.67,1.7,0.2,2.9,0.71,0.07,-0.04,0.7
1697353006.64,-0.05,0.07,0.67,1.7,0.2,2.9,0.71,0.07,-0.04,0.7
1697353006.65,-0.05,0.07,0.67,1.7,0.2,2.9,0.71,0.07,-0.04,0.7
1697353006.66,-0.05,0.07,0.67,1.7,0.2,2.9,0.71,0.07,-0.04,0.7
1697353006.67,-0.05,0.07,0.67,1.7,0.2,2.9,0.71,0.07,-0.04,0.7
1697353006.68,-0.05,0.07,0.67,1.7,0.2,2.9,0.71,0.07,-0.04,0.7
1697353006.69,-0.05,0.07,0.67,1.7,0.2,2.9,0.71,0.07,-0.04,0.7
1697353006.7,-0.05,0.07,0.67,1.7,0.2,2.9,0.71,0.07,-0.04,0.7
1697353006.71,-0.05,0.07,0.67,1.7,0.2,2.9,0.71,0.07,-0.04,0.7
1697353006.72,-0.05,0.07,0.67,1.7,0.2,2.9,0.71,0.07,-0.04,0.7
1697353006.73,-0.05,0.07,0.67,1.7,0.2,2.9,0.71,0.07,-0.04,0.7
1697353006.74,-0.05,0.07,0.67,1.7,0.2,2.9,0.71,0.07,-0.04,0.7
1697353006.75,-0.05,0.07,0.67,1.7,0.2,2.9,0.71,0.07,-0.04,0.7
1697353006.76,0.05,0.12,0.66,-2.5,-0.5,2.2,0.71,0.07,-0.04,0.7
1697353006.77,-0.22,0.12,1.01,-2.1,1.5,2.2,0.71,0.07,-0.04,0.7
1697353006.78,-0.16,0.14,1.25,-0.8,2.6,2,0.71,0.07,-0.04,0.7
1697353006.79,0.1,0.04,0.33,0.5,3.6,1.7,0.71,0.07,-0.04,0.7
1697353006.8,-0.21,0.06,1.24,1.4,3.5,1.4,0.71,0.07,-0.04,0.7
1697353006.81,-0.01,-0.03,0.83,0.5,4.1,1,0.71,0.07,-0.04,0.7
1697353006.82,-0.08,-0.15,0.45,-1.9,4.5,0.7,0.71,0.07,-0.04,0.7
1697353006.83,-0.11,0.01,1.42,-4.4,4.4,0.7,0.71,0.07,-0.04,0.7
1697353006.84,-0.02,0.09,0.68,-5.1,3,1.1,0.71,0.07,-0.04,0.7
1697353006.85,-0.2,0.11,1.18,-2.9,2.2,1.1,0.71,0.07,-0.04,0.7
1697353006.86,-0.06,0.14,0.8,0.1,1.9,1.2,0.71,0.06,-0.04,0.7
1697353006.87,-0.01,-0.05,1.03,3.4,-0.1,1.1,0.71,0.06,-0.04,0.7
1697353006.88,-0.11,-0.09,1.19,3.2,-1.6,0.9,0.71,0.06,-0.04,0.7
1697353006.89,-0.16,-0.19,1.28,1.4,-2.2,0.7,0.71,0.07,-0.04,0.7
1697353006.9,-0.01,-0.2,0.97,0,-2.4,0.3,0.71,0.07,-0.04,0.7
1697353006.91,-0.1,-0.15,0.75,-1.7,-1.6,0,0.71,0.07,-0.04,0.7
1697353006.92,-0.09,-0.05,0.96,-1.7,-1.6,0,0.71,0.07,-0.04,0.7
1697353006.93,0.01,0.02,0.96,-1.7,0.1,-0.3,0.71,0.07,-0.04,0.7
1697353006.94,-0.25,0.12,1.16,-1.7,0.1,-0.3,0.71,0.07,-0.04,0.7
1697353006.95,-0.17,-0.01,1.18,0.2,0.5,-0.4,0.71,0.07,-0.04,0.7
1697353006.96,-0.11,-0.17,1.28,0.7,1.5,-1.5,0.71,0.07,-0.04,0.7
1697353006.97,0.08,-0.23,0.64,-1.8,0.9,-2.2,0.71,0.07,-0.04,0.7
1697353006.98,0.08,-0.23,0.64,-1.8,0.9,-2.2,0.71,0.07,-0.04,0.7
1697353006.99,0.01,0,0.84,-5.7,0,-3.8,0.71,0.06,-0.04,0.7
1697353007,0.01,0,0.84,-5.7,0,-3.8,0.71,0.06,-0.04,0.7
1697353007.01,-0.16,0.08,1.48,-1.7,-0.1,-3.7,0.71,0.06,-0.04,0.7
1697353007.02,-0.16,0.08,1.48,-1.7,-0.1,-3.7,0.71,0.06,-0.04,0.7
1697353007.03,-0.32,-0.21,1.38,2.2,-0.6,-3.7,0.71,0.06,-0.04,0.7
1697353007.04,-0.1,-0.31,1.03,3.3,-0.9,-3.9,0.71,0.06,-0.04,0.7
1697353007.05,-0.1,-0.31,1.03,1.6,-0.6,-4.4,0.71,0.06,-0.04,0.7
1697353007.06,-0.06,-0.18,1.06,-0.7,-1,-3.9,0.71,0.06,-0.04,0.7
1697353007.07,-0.17,-0.2,1.02,-1.2,-1.4,-4.3,0.71,0.06,-0.04,0.7
1697353007.08,-0.04,-0.1,0.72,-1.1,-0.7,-4.2,0.71,0.06,-0.04,0.7
1697353007.09,-0.28,-0.11,1.28,-1.1,0.5,-3.7,0.71,0.06,-0.04,0.7
1697353007.1,-0.09,-0.08,0.95,0,1.7,-3.4,0.71,0.06,-0.04,0.7
1697353007.11,-0.18,-0.13,0.7,0.5,2.6,-3.2,0.71,0.06,-0.04,0.7
1697353007.12,-0.25,-0.05,1.52,-0.3,3.3,-2.8,0.71,0.06,-0.04,0.7
1697353007.13,-0.02,-0,1.05,-0.5,3.1,-2.9,0.71,0.06,-0.04,0.7
1697353007.14,-0.03,-0.06,0.86,0.6,2,-2.8,0.71,0.06,-0.04,0.7
1697353007.15,-0.15,-0.13,1.45,0.6,1.4,-2.9,0.71,0.06,-0.04,0.7
1697353007.16,-0.15,-0.13,1.45,0.6,1.4,-2.9,0.71,0.06,-0.04,0.7
1697353007.17,-0.15,-0.13,1.45,0.6,1.4,-2.9,0.71,0.06,-0.04,0.7
1697353007.18,-0.15,-0.13,1.45,0.6,1.4,-2.9,0.71,0.06,-0.04,0.7
1697353007.19,-0.15,-0.13,1.45,0.6,1.4,-2.9,0.71,0.06,-0.04,0.7
1697353007.2,-0.15,-0.13,1.45,0.6,1.4,-2.9,0.71,0.06,-0.04,0.7
1697353007.21,-0.15,-0.13,1.45,0.6,1.4,-2.9,0.71,0.06,-0.04,0.7
1697353007.22,-0.15,-0.13,1.45,0.6,1.4,-2.9,0.71,0.06,-0.04,0.7
1697353007.23,-0.15,-0.13,1.45,0.6,1.4,-2.9,0.71,0.06,-0.04,0.7
1697353007.24,-0.15,-0.13,1.45,0.6,1.4,-2.9,0.71,0.06,-0.04,0.7
1697353007.25,-0.15,-0.13,1.45,0.6,1.4,-2.9,0.71,0.06,-0.04,0.7
1697353007.26,-0.15,-0.13,1.45,0.6,1.4,-2.9,0.71,0.06,-0.04,0.7
1697353007.27,-0.15,-0.13,1.45,0.6,1.4,-2.9,0.71,0.06,-0.04,0.7
1697353007.28,-0.15,-0.13,1.45,0.6,1.4,-2.9,0.71,0.06,-0.04,0.7
1697353007.29,-0.15,-0.13,1.45,0.6,1.4,-2.9,0.71,0.06,-0.04,0.7
1697353007.3,-0.15,-0.13,1.45,0.6,1.4,-2.9,0.71,0.06,-0.04,0.7
1697353007.31,0.03,-0.11,0.67,2.6,0,-3,0.72,0.06,-0.04,0.69
1697353007.32,-0.11,-0.22,1.18,2.5,-0.9,-3,0.72,0.06,-0.04,0.69
1697353007.33,-0.01,-0.17,1,1,-1.8,-3.1,0.72,0.06,-0.04,0.69
1697353007.34,-0.1,-0.07,0.68,-0.5,-2.1,-3,0.72,0.06,-0.04,0.69
1697353007.35,-0.18,0.03,1.42,-0.8,-1.6,-3,0.72,0.06,-0.04,0.69
1697353007.36,-0.04,-0.02,0.72,-0.8,-1.6,-3,0.72,0.06,-0.04,0.69
1697353007.37,-0.16,-0.01,1.33,0,-1.5,-2.8,0.72,0.06,-0.04,0.69
1697353007.38,-0.16,-0.01,1.33,0.2,-1.4,-2.9,0.72,0.06,-0.04,0.69
1697353007.39,-0.21,-0.14,1.38,-0.9,-1.1,-2.9,0.72,0.06,-0.04,0.69
1697353007.4,-0.21,-0.14,1.38,-0.9,-1.1,-2.9,0.72,0.06,-0.04,0.69
1697353007.41,-0.02,0.04,0.79,-1.8,0.1,-3.3,0.72,0.06,-0.04,0.69
1697353007.42,-0.02,0.04,0.79,-1.8,0.1,-3.3,0.72,0.06,-0.04,0.69
1697353007.43,-0.15,-0.02,1.15,0.1,2.4,-3.8,0.72,0.06,-0.04,0.69
1697353007.44,-0.15,-0.02,1.15,0.1,2.4,-3.8,0.72,0.06,-0.04,0.69
1697353007.45,-0.04,0.01,1.39,-0.2,2.8,-3.7,0.72,0.06,-0.04,0.69
1697353007.46,-0.03,0.03,1.08,0.6,2.7,-3.8,0.72,0.06,-0.04,0.69
1697353007.47,-0.07,-0.09,0.91,2.8,1.8,-3.8,0.72,0.06,-0.04,0.69
1697353007.48,0.03,-0.17,1.08,3.2,1.2,-3.8,0.72,0.06,-0.04,0.69
1697353007.49,-0.02,-0.21,0.66,0.9,0.3,-3.6,0.72,0.06,-0.04,0.69
1697353007.5,-0.08,-0.15,0.83,-1,-0.4,-3.5,0.72,0.06,-0.04,0.69
1697353007.51,-0.05,0,1.14,-1.9,-1.1,-3.6,0.72,0.06,-0.04,0.69
1697353007.52,-0.14,0.07,0.76,-1.1,-1.4,-3.2,0.72,0.06,-0.04,0.69
1697353007.53,-0.08,0.06,1.25,0.5,-2,-2.6,0.72,0.06,-0.04,0.69
1697353007.54,-0.02,0.05,0.59,1.3,-2.1,-2.1,0.72,0.06,-0.04,0.69
1697353007.55,-0.02,0.05,0.59,1.3,-2.1,-2.1,0.72,0.06,-0.04,0.69
1697353007.56,-0.1,-0,1.42,0.9,-0.8,-1.5,0.72,0.06,-0.04,0.69
1697353007.57,-0.1,-0,1.42,0.9,-0.8,-1.5,0.72,0.06,-0.04,0.69
1697353007.58,-0.14,0.07,1.08,-1,1.4,-0.2,0.72,0.06,-0.04,0.69
1697353007.59,-0.14,0.07,1.08,-1,1.4,-0.2,0.72,0.06,-0.04,0.69
1697353007.6,-0.12,0.24,0.96,-0.5,2,0.3,0.72,0.06,-0.04,0.69
1697353007.61,-0.12,0.24,0.96,-0.1,2.9,1,0.72,0.06,-0.04,0.69
1697353007.62,0.05,0.08,0.56,3.2,2.5,2.5,0.72,0.06,-0.04,0.69
1697353007.63,0.05,0.08,0.56,3.2,2.5,2.5,0.72,0.06,-0.04,0.69
1697353007.64,-0.01,0.03,0.9,3.4,2.3,3.4,0.72,0.06,-0.04,0.69
1697353007.65,-0.01,0.03,0.9,3.4,2.3,3.4,0.72,0.06,-0.04,0.69
1697353007.66,0.07,0.18,0.97,1.7,1.6,3.5,0.72,0.06,-0.03,0.69
1697353007.67,0.07,0.18,0.97,1.1,0.4,3.7,0.72,0.06,-0.03,0.69
1697353007.68,0.06,0.25,1.11,1.1,0.4,3.7,0.72,0.06,-0.03,0.69
1697353007.69,-0.1,0.25,1.27,0.2,-2,5.6,0.72,0.06,-0.03,0.69
1697353007.7,-0.1,0.25,1.27,0.2,-2,5.6,0.72,0.06,-0.03,0.69
1697353007.71,-0.1,0.25,1.27,0.2,-2,5.6,0.72,0.06,-0.03,0.69
1697353007.72,-0.1,0.25,1.27,0.2,-2,5.6,0.72,0.06,-0.03,0.69
1697353007.73,-0.1,0.25,1.27,0.2,-2,5.6,0.72,0.06,-0.03,0.69
1697353007.74,-0.1,0.25,1.27,0.2,-2,5.6,0.72,0.06,-0.03,0.69
1697353007.75,-0.1,0.25,1.27,0.2,-2,5.6,0.72,0.06,-0.03,0.69
1697353007.76,-0.1,0.25,1.27,0.2,-2,5.6,0.72,0.06,-0.03,0.69
1697353007.77,-0.1,0.25,1.27,0.2,-2,5.6,0.72,0.06,-0.03,0.69
1697353007.78,-0.1,0.25,1.27,0.2,-2,5.6,0.72,0.06,-0.03,0.69
1697353007.79,-0.1,0.25,1.27,0.2,-2,5.6,0.72,0.06,-0.03,0.69
1697353007.8,-0.1,0.25,1.27,0.2,-2,5.6,0.72,0.06,-0.03,0.69
1697353007.81,-0.1,0.25,1.27,0.2,-2,5.6,0.72,0.06,-0.03,0.69
1697353007.82,-0.1,0.25,1.27,0.2,-2,5.6,0.72,0.06,-0.03,0.69
1697353007.83,0.11,0.2,1.01,-0.8,-1.7,9.7,0.71,0.06,-0.04,0.7
1697353007.84,0.22,0.18,0.96,0,-3.1,9.7,0.71,0.06,-0.04,0.7
1697353007.85,-0.02,0.28,0.97,1,-3.4,9.6,0.71,0.06,-0.04,0.7
1697353007.86,0.01,0.11,0.95,1.1,-3.4,9.4,0.71,0.06,-0.04,0.7
1697353007.87,-0.13,0.09,1.18,1.1,-3.4,9.4,0.71,0.07,-0.04,0.7
1697353007.88,-0.08,0.06,1.39,-2,-1.1,9.5,0.71,0.07,-0.04,0.7
1697353007.89,-0.11,0.22,0.6,-2,-1.1,9.5,0.71,0.07,-0.04,0.7
1697353007.9,-0.11,0.21,1.25,-2.4,0.3,9.6,0.71,0.06,-0.04,0.7
1697353007.91,-0.14,0.21,1,-0.5,3.4,9.6,0.71,0.06,-0.04,0.7
1697353007.92,-0.08,0.13,0.96,-0.5,3.4,9.6,0.71,0.06,-0.04,0.7
1697353007.93,-0,0.03,1.2,0.3,4.1,9.3,0.71,0.06,-0.04,0.7
1697353007.94,-0.03,0.12,0.71,-0.1,4.2,8.7,0.7,0.06,-0.04,0.71
1697353007.95,0.02,0.07,0.69,-0.2,3,7.8,0.7,0.06,-0.04,0.71
1697353007.96,-0.11,0.07,1.5,-0.5,2.1,7.2,0.7,0.06,-0.04,0.71
1697353007.97,-0.02,0.03,0.7,0.2,1.1,6.6,0.7,0.06,-0.04,0.71
1697353007.98,-0.07,0.06,1.26,0.9,0,5.9,0.7,0.06,-0.04,0.71
1697353007.99,-0.07,0.06,1.26,0.7,-0.5,5.7,0.7,0.06,-0.04,0.71
1697353008,-0.01,0.05,0.78,0.1,-0.5,5.6,0.7,0.06,-0.04,0.71
1697353008.01,0.03,0.21,1.12,-0.6,-0.2,5.7,0.7,0.06,-0.04,0.71
1697353008.02,-0.12,0.08,0.95,0,0,5.7,0.7,0.06,-0.04,0.71
1697353008.03,-0.12,0.08,0.95,1.1,0.5,6.2,0.7,0.06,-0.04,0.71
1697353008.04,-0.06,0.06,1.4,0.6,0.7,6.4,0.7,0.06,-0.04,0.71
1697353008.05,0.02,0.09,0.73,-0.4,0.6,6.6,0.7,0.06,-0.04,0.71
1697353008.06,-0.16,0.04,1.2,-1,0.4,6.7,0.7,0.06,-0.04,0.71
1697353008.07,-0.05,0.17,1.01,-1.3,0,6.8,0.7,0.06,-0.04,0.71
1697353008.08,0.34,0.21,0.54,0,0,6.9,0.7,0.06,-0.04,0.71
1697353008.09,-0.13,0.22,1.32,1.7,0.3,7.4,0.7,0.06,-0.04,0.71
1697353008.1,-0.01,0.02,1.52,1.7,0.3,7.4,0.7,0.06,-0.04,0.71
1697353008.11,0.03,-0.03,1.17,2.4,-0.7,6.8,0.7,0.06,-0.04,0.71
1697353008.12,0.09,0.01,0.94,0,-0.2,6.8,0.7,0.06,-0.04,0.71
1697353008.13,-0.08,0.09,0.93,-1.4,0.1,6.6,0.7,0.06,-0.04,0.71
1697353008.14,-0.1,0.19,1.32,-1.6,1.1,7.1,0.7,0.06,-0.04,0.71
1697353008.15,-0.05,0.19,0.61,-0.3,1.4,7.4,0.7,0.06,-0.04,0.71
1697353008.16,-0.17,0.12,1.7,1.1,1.7,7.4,0.7,0.06,-0.04,0.71
1697353008.17,-0.06,0.08,0.79,0.7,1.5,7.3,0.7,0.06,-0.04,0.71
1697353008.18,-0.02,0.09,1.34,-0.4,1.1,7.4,0.7,0.06,-0.04,0.72
1697353008.19,-0.13,0.15,1.02,0.1,0.3,7.3,0.69,0.06,-0.04,0.72
1697353008.2,-0.04,0.14,1.15,0.1,0.3,7.3,0.69,0.06,-0.04,0.72
1697353008.21,-0.09,0.1,1.19,0.6,-0.9,6.6,0.69,0.06,-0.04,0.72
1697353008.22,-0.09,0.1,1.19,0.6,-0.9,6.6,0.69,0.06,-0.04,0.72
1697353008.23,-0.09,0.1,1.19,0.6,-0.9,6.6,0.69,0.06,-0.04,0.72
1697353008.24,-0.09,0.1,1.19,0.6,-0.9,6.6,0.69,0.06,-0.04,0.72
1697353008.25,-0.09,0.1,1.19,0.6,-0.9,6.6,0.69,0.06,-0.04,0.72
1697353008.26,-0.09,0.1,1.19,0.6,-0.9,6.6,0.69,0.06,-0.04,0.72
1697353008.27,-0.09,0.1,1.19,0.6,-0.9,6.6,0.69,0.06,-0.04,0.72
1697353008.28,-0.09,0.1,1.19,0.6,-0.9,6.6,0.69,0.06,-0.04,0.72
1697353008.29,-0.09,0.1,1.19,0.6,-0.9,6.6,0.69,0.06,-0.04,0.72
1697353008.3,-0.09,0.1,1.19,0.6,-0.9,6.6,0.69,0.06,-0.04,0.72
1697353008.31,-0.09,0.1,1.19,0.6,-0.9,6.6,0.69,0.06,-0.04,0.72
1697353008.32,-0.09,0.1,1.19,0.6,-0.9,6.6,0.69,0.06,-0.04,0.72
1697353008.33,-0.09,0.1,1.19,0.6,-0.9,6.6,0.69,0.06,-0.04,0.72
1697353008.34,-0.09,0.1,1.19,0.6,-0.9,6.6,0.69,0.06,-0.04,0.72
1697353008.35,-0.09,0.1,1.19,0.6,-0.9,6.6,0.69,0.06,-0.04,0.72
1697353008.36,-0.09,0.1,1.19,0.6,-0.9,6.6,0.69,0.06,-0.04,0.72
1697353008.37,-0.09,0.1,1.19,0.6,-0.9,6.6,0.69,0.06,-0.04,0.72
1697353008.38,-0.09,0.1,1.19,0.6,-0.9,6.6,0.69,0.06,-0.04,0.72
1697353008.39,-0.03,0.19,0.5,1.5,-1.1,11.5,0.68,0.06,-0.04,0.73
1697353008.4,0.01,0.17,0.18,1.1,-1.2,11.6,0.68,0.06,-0.04,0.73
1697353008.41,0.01,0.17,0.18,-0.2,-0.8,11.3,0.68,0.06,-0.04,0.73
1697353008.42,-0.06,0.12,1.42,-2.5,-0.4,11.1,0.68,0.06,-0.04,0.73
1697353008.43,-0.04,0.25,0.71,-3,0,10.9,0.68,0.06,-0.04,0.73
1697353008.44,-0.14,0.25,1.51,-1.7,0.6,10.4,0.68,0.06,-0.04,0.73
1697353008.45,0.01,0.36,0.76,-0.2,0.8,10.4,0.68,0.06,-0.04,0.73
1697353008.46,-0.13,0.17,1.38,0.6,0.9,10.5,0.68,0.06,-0.04,0.73
1697353008.47,-0,0.2,0.71,0,1.3,10.5,0.68,0.06,-0.04,0.73
1697353008.48,-0.12,0.13,1.37,-0.3,1.5,10.4,0.68,0.06,-0.04,0.73
1697353008.49,0,0.17,0.76,-1.6,1.4,10.9,0.68,0.06,-0.04,0.73
1697353008.5,0,0.17,0.76,-1.6,1.4,10.9,0.68,0.06,-0.04,0.73
1697353008.51,0,0.17,0.76,-1.6,1.4,10.9,0.68,0.06,-0.04,0.73
1697353008.52,0,0.17,0.76,-1.6,1.4,10.9,0.68,0.06,-0.04,0.73
1697353008.53,0,0.17,0.76,-1.6,1.4,10.9,0.68,0.06,-0.04,0.73
1697353008.54,0,0.17,0.76,-1.6,1.4,10.9,0.68,0.06,-0.04,0.73
1697353008.55,0,0.17,0.76,-1.6,1.4,10.9,0.68,0.06,-0.04,0.73
1697353008.56,0,0.17,0.76,-1.6,1.4,10.9,0.68,0.06,-0.04,0.73
1697353008.57,0,0.17,0.76,-1.6,1.4,10.9,0.68,0.06,-0.04,0.73
1697353008.58,0,0.17,0.76,-1.6,1.4,10.9,0.68,0.06,-0.04,0.73
1697353008.59,-0.16,0.48,0.99,0.6,-0.3,18.4,0.67,0.06,-0.04,0.74
1697353008.6,-0.16,0.48,0.99,0.6,-0.3,18.4,0.67,0.06,-0.04,0.74
1697353008.61,-0.07,0.44,1.14,0.5,1.1,21,0.67,0.06,-0.04,0.74
1697353008.62,-0.04,0.52,0.68,0.5,1.1,21,0.67,0.06,-0.04,0.74
1697353008.63,-0.03,0.46,1.15,-0.6,1.9,22.6,0.66,0.06,-0.04,0.74
1697353008.64,-0.03,0.46,1.15,-0.6,1.9,22.6,0.66,0.06,-0.04,0.74
1697353008.65,-0.03,0.57,1.29,-0.5,1.3,23.1,0.66,0.06,-0.04,0.75
1697353008.66,-0.03,0.57,1.29,0.3,0.8,23.8,0.66,0.06,-0.04,0.75
1697353008.67,-0.12,0.38,1.18,0.9,-0.1,23.9,0.66,0.06,-0.04,0.75
1697353008.68,0.1,0.35,0.82,0.9,-0.1,23.9,0.66,0.06,-0.04,0.75
1697353008.69,0.06,0.37,0.29,0,-0.5,23.7,0.65,0.06,-0.04,0.75
1697353008.7,-0.07,0.47,1.5,-1.5,-0.3,23.6,0.65,0.06,-0.04,0.75
1697353008.71,0.21,0.45,0.66,-1.3,-0.5,23.3,0.65,0.06,-0.04,0.76
1697353008.72,0.01,0.38,1.31,-0.2,-1,23.4,0.65,0.06,-0.04,0.76
1697353008.73,0.1,0.42,0.59,0.6,-1.9,23.2,0.65,0.06,-0.04,0.76
1697353008.74,-0.03,0.45,0.79,0,-2.7,23.2,0.65,0.06,-0.04,0.76
1697353008.75,-0.14,0.48,1.06,-1.3,-3.1,23.7,0.65,0.06,-0.04,0.76
1697353008.76,-0.08,0.47,0.91,-1.1,-3.1,24.3,0.64,0.06,-0.04,0.76
1697353008.77,-0.08,0.47,0.91,-0.2,-2.4,24.9,0.64,0.06,-0.04,0.76
1697353008.78,-0.14,0.35,0.85,0.4,-1.4,25.3,0.64,0.06,-0.04,0.77
1697353008.79,0.16,0.4,1.08,0,-0.5,25.5,0.64,0.06,-0.04,0.77
1697353008.8,0.16,0.4,1.08,-1,0.4,25.8,0.64,0.06,-0.04,0.77
1697353008.81,0.01,0.57,1.11,-1.5,0.7,26,0.63,0.06,-0.04,0.77
1697353008.82,-0.05,0.46,0.78,-1.5,1.1,25.8,0.63,0.06,-0.04,0.77
1697353008.83,-0.05,0.46,0.78,-1.5,1.1,25.8,0.63,0.06,-0.04,0.77
1697353008.84,-0.09,0.35,1.15,2.4,0.5,26.3,0.63,0.06,-0.04,0.77
1697353008.85,0.04,0.36,1.51,2.4,0.5,26.3,0.63,0.06,-0.04,0.77
1697353008.86,0.05,0.34,1.46,1.4,-1.2,26,0.62,0.06,-0.04,0.78
1697353008.87,0.05,0.34,1.46,-0.5,-1.7,25.7,0.62,0.06,-0.04,0.78
1697353008.88,0.03,0.48,1.31,-1.7,-1.9,25.5,0.62,0.06,-0.04,0.78
1697353008.89,0.03,0.48,1.31,-1.2,-2.1,25.5,0.62,0.06,-0.04,0.78
1697353008.9,-0.14,0.45,1.03,-1.2,-2.1,25.5,0.62,0.06,-0.04,0.78
1697353008.91,-0.02,0.49,1.01,0.5,-1.2,26.3,0.62,0.06,-0.04,0.78
1697353008.92,-0.17,0.45,1.28,0,-0.6,26.6,0.62,0.06,-0.04,0.78
1697353008.93,-0.15,0.45,0.78,0,0,27,0.61,0.06,-0.04,0.79
1697353008.94,-0.15,0.45,0.78,0,0,27,0.61,0.06,-0.04,0.79
1697353008.95,0.04,0.41,1.07,-0.2,0.4,27.1,0.61,0.06,-0.04,0.79
1697353008.96,-0.08,0.45,0.73,0.2,0.3,26.6,0.61,0.06,-0.04,0.79
1697353008.97,-0.1,0.38,1.23,0.2,0.3,26.6,0.61,0.06,-0.04,0.79
1697353008.98,-0.06,0.37,1.75,0.1,0.3,26.4,0.6,0.06,-0.04,0.79
1697353008.99,0.06,0.39,0.42,0.8,0.1,26,0.6,0.06,-0.04,0.79
1697353009,0.06,0.24,1.73,1.5,-0.3,25.5,0.6,0.06,-0.04,0.79
1697353009.01,0.06,0.24,1.73,1.5,-0.3,25.5,0.6,0.06,-0.04,0.79
1697353009.02,0.06,0.24,1.73,1.5,-0.3,25.5,0.6,0.06,-0.04,0.79
1697353009.03,0.06,0.24,1.73,1.5,-0.3,25.5,0.6,0.06,-0.04,0.79
1697353009.04,0.06,0.24,1.73,1.5,-0.3,25.5,0.6,0.06,-0.04,0.79
1697353009.05,0.06,0.24,1.73,1.5,-0.3,25.5,0.6,0.06,-0.04,0.79
1697353009.06,0.06,0.24,1.73,1.5,-0.3,25.5,0.6,0.06,-0.04,0.79
1697353009.07,0.06,0.24,1.73,1.5,-0.3,25.5,0.6,0.06,-0.04,0.79
1697353009.08,0.06,0.24,1.73,1.5,-0.3,25.5,0.6,0.06,-0.04,0.79
1697353009.09,0.06,0.24,1.73,1.5,-0.3,25.5,0.6,0.06,-0.04,0.79
1697353009.1,0.06,0.24,1.73,1.5,-0.3,25.5,0.6,0.06,-0.04,0.79
1697353009.11,0.06,0.24,1.73,1.5,-0.3,25.5,0.6,0.06,-0.04,0.79
1697353009.12,0.06,0.24,1.73,1.5,-0.3,25.5,0.6,0.06,-0.04,0.79
1697353009.13,0.06,0.24,1.73,-0.2,0.2,25.1,0.6,0.06,-0.04,0.79
1697353009.14,-0.05,0.46,1.3,-0.2,-0.2,25,0.57,0.06,-0.05,0.81
1697353009.15,-0.05,0.46,1.3,-0.2,-0.2,25,0.57,0.06,-0.05,0.81
1697353009.16,-0.1,0.03,1.02,2.7,-1.4,24.4,0.57,0.06,-0.05,0.82
1697353009.17,-0.03,0.19,1.33,3.3,-1.5,23.9,0.57,0.06,-0.05,0.82
1697353009.18,-0.04,0.26,0.75,0,-0.8,22.5,0.57,0.06,-0.05,0.82
1697353009.19,-0.06,0.58,1.39,-4.5,0.4,21.8,0.57,0.06,-0.05,0.82
1697353009.2,-0.06,0.58,1.39,-4.7,1,20.6,0.57,0.06,-0.05,0.82
1697353009.21,0.03,0.32,1.1,-4.7,1,20.6,0.56,0.06,-0.05,0.82
1697353009.22,-0.09,0.18,1.25,3.7,0.9,19.9,0.56,0.06,-0.05,0.82
1697353009.23,0.09,0.19,0.58,2.8,0.1,19.5,0.56,0.06,-0.05,0.82
1697353009.24,-0.16,0.07,1.2,2.1,-0.3,18.8,0.56,0.06,-0.05,0.83
1697353009.25,-0.16,0.07,1.2,2.1,-0.3,18.8,0.56,0.06,-0.05,0.83
1697353009.26,-0.1,0.2,1.19,1.1,-1,18.1,0.56,0.06,-0.05,0.83
1697353009.27,-0.1,0.2,1.19,0,-1.3,17.5,0.56,0.06,-0.05,0.83
1697353009.28,-0.17,0.24,1.43,0.3,-1,17.2,0.55,0.06,-0.05,0.83
1697353009.29,-0.17,0.24,1.43,0.6,-0.4,16.7,0.55,0.06,-0.05,0.83
1697353009.3,0.02,0.22,0.58,0.3,-0.6,16.4,0.55,0.06,-0.05,0.83
1697353009.31,-0.08,0.25,1.26,-1.8,-0.4,15.3,0.55,0.06,-0.05,0.83
1697353009.32,-0.08,0.25,1.26,-1.8,-0.4,15.3,0.55,0.06,-0.05,0.83
1697353009.33,-0,0.31,0.72,-1.8,0,14.9,0.55,0.06,-0.05,0.83
1697353009.34,-0.03,0.21,1.46,0,0.3,14.7,0.55,0.06,-0.05,0.83
1697353009.35,-0.07,-0,0.75,1.1,0.4,14.2,0.55,0.06,-0.05,0.83
1697353009.36,0.04,0.07,1.33,-0.2,0.5,12.9,0.55,0.06,-0.05,0.83
1697353009.37,0,0.08,1.03,-2.3,1.5,11.7,0.55,0.06,-0.05,0.83
1697353009.38,-0.14,0.06,1.13,-3,2.2,10.8,0.55,0.06,-0.05,0.83
1697353009.39,0.08,0.26,0.93,-1.2,2.3,10,0.54,0.06,-0.05,0.84
1697353009.4,-0.15,0.03,1.58,0,1.9,9.1,0.54,0.06,-0.05,0.84
1697353009.41,0.05,-0.05,0.38,-0.4,1.6,8,0.54,0.06,-0.05,0.84
1697353009.42,-0.01,-0.17,1.55,-0.4,1.6,8,0.54,0.06,-0.05,0.84
1697353009.43,0.05,-0.17,0.5,-2.3,0.1,5,0.54,0.06,-0.05,0.84
1697353009.44,-0.05,-0.23,1.52,-2.3,0.1,5,0.54,0.06,-0.05,0.84
1697353009.45,-0.05,-0.43,0.67,-2,-1.3,-0.2,0.54,0.06,-0.05,0.84
1697353009.46,-0.07,-0.36,1.44,-2,-1.3,-0.2,0.54,0.06,-0.05,0.84
1697353009.47,-0.17,-0.39,1.26,-3.6,-1.9,-5.8,0.54,0.06,-0.05,0.84
1697353009.48,-0.28,-0.42,1.82,-3.6,-1.9,-5.8,0.54,0.06,-0.05,0.84
1697353009.49,0.15,-0.46,-0.1,-4.2,-1.7,-9.1,0.54,0.06,-0.05,0.84
1697353009.5,-0.24,-0.52,1.76,-4.2,-1.7,-9.1,0.54,0.06,-0.05,0.84
1697353009.51,-0.07,-0.62,0.58,-5.8,-1,-14.6,0.55,0.06,-0.05,0.83
1697353009.52,-0.25,-0.71,1.77,-5.8,-1,-14.6,0.55,0.06,-0.05,0.83
1697353009.53,-0.25,-0.71,1.77,-5.8,-1,-14.6,0.55,0.06,-0.05,0.83
1697353009.54,-0.25,-0.71,1.77,-5.8,-1,-14.6,0.55,0.06,-0.05,0.83
1697353009.55,-0.25,-0.71,1.77,-5.8,-1,-14.6,0.55,0.06,-0.05,0.83
1697353009.56,-0.25,-0.71,1.77,-5.8,-1,-14.6,0.55,0.06,-0.05,0.83
1697353009.57,-0.25,-0.71,1.77,-5.8,-1,-14.6,0.55,0.06,-0.05,0.83
1697353009.58,-0.25,-0.71,1.77,-5.8,-1,-14.6,0.55,0.06,-0.05,0.83
1697353009.59,-0.25,-0.71,1.77,-5.8,-1,-14.6,0.55,0.06,-0.05,0.83
1697353009.6,-0.25,-0.71,1.77,-5.8,-1,-14.6,0.55,0.06,-0.05,0.83
1697353009.61,-0.25,-0.71,1.77,-5.8,-1,-14.6,0.55,0.06,-0.05,0.83
1697353009.62,-0.25,-0.71,1.77,-5.8,-1,-14.6,0.55,0.06,-0.05,0.83
1697353009.63,-0.25,-0.71,1.77,-5.8,-1,-14.6,0.55,0.06,-0.05,0.83
1697353009.64,-0.25,-0.71,1.77,-5.8,-1,-14.6,0.55,0.06,-0.05,0.83
1697353009.65,-0.25,-0.71,1.77,-5.8,-1,-14.6,0.55,0.06,-0.05,0.83
1697353009.66,-0.15,-0.98,0.64,-3.4,0.9,-41.7,0.58,0.06,-0.05,0.81
1697353009.67,-0.05,-0.83,1.32,-4.3,1,-42.7,0.58,0.06,-0.05,0.81
1697353009.68,-0.1,-0.66,0.81,-2.9,1.3,-42.9,0.59,0.05,-0.05,0.81
1697353009.69,-0.14,-0.77,1.59,-0.4,1.4,-44,0.59,0.06,-0.05,0.8
1697353009.7,-0.18,-0.75,0.85,-0.4,1.4,-44,0.59,0.06,-0.05,0.8
1697353009.71,-0.03,-0.87,1.21,0.3,1.7,-44.6,0.59,0.06,-0.05,0.8
1697353009.72,-0.27,-0.77,0.91,0.3,1.7,-45.1,0.6,0.06,-0.05,0.8
1697353009.73,-0.04,-0.83,1.13,0.1,1.8,-45.5,0.6,0.06,-0.05,0.8
1697353009.74,-0.14,-0.72,0.75,-0.2,2.1,-46,0.6,0.06,-0.05,0.79
1697353009.75,-0.16,-0.81,0.94,-1,2.2,-46.1,0.61,0.06,-0.05,0.79
1697353009.76,-0.18,-0.69,0.76,-1.3,1.8,-46.1,0.61,0.06,-0.05,0.79
1697353009.77,-0.12,-0.74,1.47,-1.1,1.5,-46,0.61,0.06,-0.05,0.79
1697353009.78,-0.12,-0.76,0.65,-0.7,1.1,-46,0.62,0.06,-0.05,0.78
1697353009.79,-0.1,-0.75,1.36,-0.9,0.7,-46.1,0.62,0.06,-0.05,0.78
1697353009.8,-0.09,-0.79,0.74,-1.6,0.3,-46.3,0.62,0.06,-0.05,0.78
1697353009.81,0.08,-0.6,0.99,-1.5,0,-46.8,0.63,0.06,-0.05,0.78
1697353009.82,-0.21,-0.77,1.16,-1.5,0.5,-46.6,0.63,0.06,-0.05,0.77
1697353009.83,-0.21,-0.66,0.72,-0.4,0.7,-46.4,0.63,0.06,-0.05,0.77
1697353009.84,-0.11,-0.93,1.26,0.8,0.8,-46.5,0.64,0.06,-0.05,0.77
1697353009.85,-0.05,-0.91,0.7,1.2,0.5,-47.3,0.64,0.06,-0.05,0.76
1697353009.86,-0.21,-0.83,0.78,-0.6,0.6,-48.3,0.64,0.06,-0.05,0.76
1697353009.87,-0.15,-0.81,1.16,-2,1.5,-48.6,0.65,0.06,-0.05,0.76
1697353009.88,-0.21,-0.75,1.08,-2,1.5,-48.6,0.65,0.06,-0.05,0.76
1697353009.89,0.03,-0.73,0.71,-1,2.8,-49.4,0.65,0.06,-0.05,0.75
1697353009.9,0.03,-0.73,0.71,-1,2.8,-49.4,0.65,0.06,-0.05,0.75
1697353009.91,-0.15,-0.81,0.77,0,3,-49.9,0.66,0.06,-0.05,0.75
1697353009.92,-0.15,-0.81,0.77,0,3,-49.9,0.66,0.06,-0.05,0.75
1697353009.93,-0.19,-0.73,1.1,-2,2.2,-50.9,0.67,0.06,-0.05,0.74
1697353009.94,-0.19,-0.73,1.1,-2,2.2,-50.9,0.67,0.06,-0.05,0.74
1697353009.95,-0.14,-0.72,0.67,-1.3,1.6,-50.9,0.67,0.06,-0.05,0.74
1697353009.96,-0.14,-0.72,0.67,0.9,0.5,-51.1,0.67,0.06,-0.05,0.73
1697353009.97,-0.15,-0.9,0.76,0.7,-1.3,-51.1,0.68,0.06,-0.05,0.73
1697353009.98,0.04,-0.86,1.24,0.7,-1.3,-51.1,0.68,0.06,-0.05,0.73
1697353009.99,0.04,-0.86,1.24,-0.6,-2.2,-51.1,0.68,0.06,-0.05,0.73
1697353010,-0.11,-0.7,0.65,-1.7,-2.6,-51.2,0.69,0.06,-0.05,0.72
1697353010.01,-0.21,-0.64,1.05,-1.4,-2.4,-50.7,0.69,0.06,-0.05,0.72
1697353010.02,-0.16,-0.73,1.27,1.6,0,-49.5,0.69,0.06,-0.05,0.72
1697353010.03,-0.23,-0.83,0.71,0.9,1.7,-49.3,0.7,0.06,-0.05,0.71
1697353010.04,-0.18,-0.88,1.3,-0.5,2.9,-49.2,0.7,0.06,-0.04,0.71
1697353010.05,-0.14,-0.76,0.59,-1.8,4.5,-48.9,0.7,0.06,-0.04,0.71
1697353010.06,-0.14,-0.76,0.59,-1.8,4.5,-48.9,0.7,0.06,-0.04,0.71
1697353010.07,-0.14,-0.76,0.59,-1.8,4.5,-48.9,0.7,0.06,-0.04,0.71
1697353010.08,-0.14,-0.76,0.59,-1.8,4.5,-48.9,0.7,0.06,-0.04,0.71
1697353010.09,-0.14,-0.76,0.59,-1.8,4.5,-48.9,0.7,0.06,-0.04,0.71
1697353010.1,-0.14,-0.76,0.59,-1.8,4.5,-48.9,0.7,0.06,-0.04,0.71
1697353010.11,-0.14,-0.76,0.59,-1.8,4.5,-48.9,0.7,0.06,-0.04,0.71
1697353010.12,-0.14,-0.76,0.59,-1.8,4.5,-48.9,0.7,0.06,-0.04,0.71
1697353010.13,-0.14,-0.76,0.59,-1.8,4.5,-48.9,0.7,0.06,-0.04,0.71
1697353010.14,-0.14,-0.76,0.59,-1.8,4.5,-48.9,0.7,0.06,-0.04,0.71
1697353010.15,-0.14,-0.76,0.59,-1.8,4.5,-48.9,0.7,0.06,-0.04,0.71
1697353010.16,-0.14,-0.76,0.59,-1.8,4.5,-48.9,0.7,0.06,-0.04,0.71
1697353010.17,-0.14,-0.76,0.59,-1.8,4.5,-48.9,0.7,0.06,-0.04,0.71
1697353010.18,-0.21,-0.71,0.84,-3.2,3.4,-49.5,0.74,0.06,-0.04,0.66
1697353010.19,-0.2,-0.57,1.38,-2.5,3.6,-49.4,0.75,0.06,-0.04,0.66
1697353010.2,-0.11,-0.58,0.78,4.4,4.4,-48.5,0.75,0.06,-0.04,0.66
1697353010.21,0.1,-0.99,1.08,3.4,3.5,-49,0.75,0.06,-0.04,0.65
1697353010.22,-0.26,-0.94,1.04,-0.2,2.8,-49.4,0.76,0.06,-0.04,0.65
1697353010.23,-0.1,-0.78,1.09,-2.3,2.4,-49.6,0.76,0.06,-0.04,0.65
1697353010.24,-0.14,-0.71,1.21,-1.3,1.8,-49.6,0.76,0.06,-0.04,0.64
1697353010.25,-0.25,-0.5,0.78,-1.3,1.8,-49.6,0.76,0.06,-0.04,0.64
1697353010.26,0.03,-0.72,0.95,4.1,1.7,-49.2,0.77,0.06,-0.04,0.64
1697353010.27,-0.2,-0.67,0.76,3.9,2.1,-48.9,0.77,0.06,-0.03,0.63
1697353010.28,-0.02,-0.9,1.16,0.9,2,-49.1,0.77,0.06,-0.03,0.63
1697353010.29,-0.11,-0.85,0.84,-2.9,1.5,-49.6,0.78,0.06,-0.03,0.63
1697353010.3,-0.11,-0.85,0.84,-2.9,1.5,-49.6,0.78,0.06,-0.03,0.63
1697353010.31,-0.17,-0.53,0.96,-4.8,1.8,-49.8,0.78,0.06,-0.03,0.62
1697353010.32,-0.17,-0.53,0.96,-2.7,1.7,-49.4,0.78,0.06,-0.03,0.62
1697353010.33,-0.08,-0.55,1.11,1.1,1.3,-48.9,0.78,0.06,-0.03,0.62
1697353010.34,-0.08,-0.55,1.11,5,0.9,-48.4,0.79,0.06,-0.03,0.61
1697353010.35,-0.16,-0.74,0.96,5.3,0.7,-48.2,0.79,0.06,-0.03,0.61
1697353010.36,0.01,-1.01,0.97,2.1,1,-48.4,0.79,0.06,-0.03,0.61
1697353010.37,-0.22,-0.76,1.01,-0.2,1.5,-47.9,0.79,0.06,-0.03,0.6
1697353010.38,0.07,-0.66,0.74,0.5,2.3,-46.7,0.8,0.06,-0.03,0.6
1697353010.39,-0.24,-0.45,0.88,4.5,2.5,-45.6,0.8,0.06,-0.03,0.6
1697353010.4,0.1,-0.68,0.78,4.5,2.5,-45.6,0.8,0.06,-0.03,0.6
1697353010.41,-0.13,-0.85,1.12,5.9,2.6,-44.7,0.8,0.06,-0.03,0.6
1697353010.42,0,-0.77,0.73,2.6,2.6,-44,0.81,0.06,-0.03,0.59
1697353010.43,0.07,-0.61,1.11,0,2.3,-44.1,0.81,0.06,-0.03,0.58
1697353010.44,-0.14,-0.42,1.11,-1.6,1.7,-43.2,0.81,0.06,-0.03,0.58
1697353010.45,0.12,-0.29,0.69,0,0.6,-42.4,0.81,0.06,-0.03,0.58
1697353010.46,-0.1,-0.37,1.44,3.5,0.2,-41.3,0.82,0.06,-0.03,0.57
1697353010.47,-0.1,-0.37,1.44,3.5,0.2,-41.3,0.82,0.06,-0.03,0.57
1697353010.48,-0.14,-0.53,0.95,0.8,-0.2,-37.3,0.82,0.07,-0.03,0.57
1697353010.49,0.08,-0.34,0.78,-1.5,0.2,-35.6,0.82,0.07,-0.03,0.57
1697353010.5,-0.06,-0.21,1.49,-0.3,0.5,-34,0.82,0.07,-0.03,0.56
1697353010.51,-0.13,0.01,0.76,-0.3,0.5,-34,0.82,0.07,-0.03,0.56
1697353010.52,0.04,-0.07,0.76,5.2,2,-29.1,0.83,0.07,-0.02,0.56
1697353010.53,-0.09,-0.34,1.58,5.6,2.1,-26.8,0.83,0.07,-0.02,0.56
1697353010.54,0.06,-0.31,0.29,3.4,2,-24.3,0.83,0.07,-0.02,0.56
1697353010.55,-0.01,-0.12,1.26,0.6,1.6,-21.1,0.83,0.07,-0.02,0.56
1697353010.56,0.1,0.4,0.87,2,1.2,-15.9,0.83,0.07,-0.02,0.55
1697353010.57,0,0.37,1.34,2,1.2,-15.9,0.83,0.07,-0.02,0.55
1697353010.58,0,0.37,1.34,2,1.2,-15.9,0.83,0.07,-0.02,0.55
1697353010.59,0,0.37,1.34,2,1.2,-15.9,0.83,0.07,-0.02,0.55
1697353010.6,0,0.37,1.34,2,1.2,-15.9,0.83,0.07,-0.02,0.55
1697353010.61,0,0.37,1.34,2,1.2,-15.9,0.83,0.07,-0.02,0.55
1697353010.62,0,0.37,1.34,2,1.2,-15.9,0.83,0.07,-0.02,0.55
1697353010.63,0,0.37,1.34,2,1.2,-15.9,0.83,0.07,-0.02,0.55
1697353010.64,0,0.37,1.34,2,1.2,-15.9,0.83,0.07,-0.02,0.55
1697353010.65,0,0.37,1.34,2,1.2,-15.9,0.83,0.07,-0.02,0.55
1697353010.66,0,0.37,1.34,2,1.2,-15.9,0.83,0.07,-0.02,0.55
1697353010.67,0,0.37,1.34,2,1.2,-15.9,0.83,0.07,-0.02,0.55
1697353010.68,0,0.37,1.34,2,1.2,-15.9,0.83,0.07,-0.02,0.55
1697353010.69,0,0.37,1.34,2,1.2,-15.9,0.83,0.07,-0.02,0.55
1697353010.7,0,0.37,1.34,2,1.2,-15.9,0.83,0.07,-0.02,0.56
1697353010.71,0.02,0.66,1.14,0,-2.7,18.3,0.82,0.07,-0.02,0.56
1697353010.72,0.02,0.66,1.14,0.9,-2.4,19.9,0.82,0.07,-0.02,0.56
1697353010.73,-0.07,0.5,1.07,1.7,-2,21.8,0.82,0.07,-0.02,0.56
1697353010.74,0.02,0.5,0.7,0.7,-1.6,23.1,0.82,0.07,-0.02,0.57
1697353010.75,-0.07,0.52,0.73,-1.5,-0.9,24.7,0.82,0.07,-0.02,0.57
1697353010.76,-0.03,0.61,1.57,-2.5,-0.1,26,0.82,0.07,-0.02,0.57
1697353010.77,-0.11,0.73,1.02,-1.4,0.8,27.4,0.82,0.07,-0.02,0.57
1697353010.78,0.01,0.51,0.79,1.5,2,29.1,0.82,0.07,-0.02,0.57
1697353010.79,-0.04,0.39,1.66,3.2,2.8,30.2,0.81,0.07,-0.02,0.58
1697353010.8,-0.05,0.38,0.89,2.6,3.1,30.9,0.81,0.07,-0.02,0.58
1697353010.81,0.05,0.47,1.13,0.4,2.9,31.6,0.81,0.07,-0.02,0.58
1697353010.82,0.05,0.67,0.46,-1.4,2.7,32.5,0.81,0.07,-0.02,0.58
1697353010.83,0.04,0.78,1.33,-1.4,1.9,33.4,0.81,0.07,-0.02,0.59
1697353010.84,-0.1,0.76,1.09,0.6,1.3,34.4,0.81,0.07,-0.02,0.59
1697353010.85,0.08,0.76,0.77,2.8,0.2,35.8,0.8,0.07,-0.02,0.59
1697353010.86,0.07,0.61,1.2,4.5,-0.9,37,0.8,0.07,-0.02,0.59
1697353010.87,0,0.59,0.49,4.9,-2,37.6,0.8,0.07,-0.02,0.6
1697353010.88,-0.05,0.64,1.47,3.1,-3,38.3,0.8,0.07,-0.02,0.6
1697353010.89,-0.03,0.75,0.98,1.2,-3.4,39.1,0.8,0.07,-0.02,0.6
1697353010.9,-0.01,0.8,0.76,1.3,-3.8,40,0.79,0.07,-0.02,0.6
1697353010.91,-0.04,0.75,1.36,3.4,-3.7,40.6,0.79,0.07,-0.02,0.61
1697353010.92,0,0.7,1.02,3.9,-3.3,41.6,0.79,0.07,-0.02,0.61
1697353010.93,-0.08,0.6,1.18,3.9,-3.3,41.6,0.79,0.07,-0.02,0.61
1697353010.94,-0.08,0.6,1.18,0.2,-1.3,42.5,0.79,0.07,-0.03,0.61
1697353010.95,-0.03,0.76,0.47,-1.1,-0.3,43,0.78,0.07,-0.03,0.62
1697353010.96,-0.07,0.87,0.99,-0.4,1.7,43.7,0.78,0.07,-0.03,0.62
1697353010.97,-0.07,0.87,0.99,-0.4,1.7,43.7,0.78,0.07,-0.03,0.62
1697353010.98,0.02,0.71,0.64,0.7,2.4,44.7,0.78,0.07,-0.03,0.63
1697353010.99,0.02,0.71,0.64,0.7,2.4,44.7,0.77,0.07,-0.03,0.63
1697353011,-0.01,0.7,1.5,0.4,2.4,44.9,0.77,0.07,-0.03,0.63
1697353011.01,-0.04,0.64,0.78,-1,2.6,45.1,0.77,0.07,-0.03,0.64
1697353011.02,0.02,0.82,1.01,-2.1,2.4,45.5,0.77,0.07,-0.03,0.64
1697353011.03,-0,0.79,1.27,-1,1.5,45.7,0.76,0.07,-0.03,0.64
1697353011.04,-0.02,0.81,0.48,-1,1.5,45.7,0.76,0.07,-0.03,0.64
1697353011.05,0.05,0.69,1.19,0.4,-0.7,45.8,0.76,0.07,-0.03,0.65
1697353011.06,-0.03,0.73,1.07,0.2,-2,45.8,0.76,0.07,-0.03,0.65
1697353011.07,0.1,0.66,0.76,0.1,-3.3,45.8,0.75,0.07,-0.03,0.65
1697353011.08,-0.06,0.66,0.72,0.1,-3.3,45.8,0.75,0.07,-0.03,0.65
1697353011.09,-0.06,0.66,0.72,0.1,-3.3,45.8,0.75,0.07,-0.03,0.65
1697353011.1,-0.06,0.66,0.72,0.1,-3.3,45.8,0.75,0.07,-0.03,0.65
1697353011.11,-0.06,0.66,0.72,0.1,-3.3,45.8,0.75,0.07,-0.03,0.65
1697353011.12,-0.06,0.66,0.72,0.1,-3.3,45.8,0.75,0.07,-0.03,0.65
1697353011.13,-0.06,0.66,0.72,0.1,-3.3,45.8,0.75,0.07,-0.03,0.65
1697353011.14,-0.06,0.66,0.72,0.1,-3.3,45.8,0.75,0.07,-0.03,0.65
1697353011.15,-0.06,0.66,0.72,0.1,-3.3,45.8,0.75,0.07,-0.03,0.65
1697353011.16,-0.06,0.66,0.72,0.1,-3.3,45.8,0.75,0.07,-0.03,0.65
1697353011.17,-0.06,0.66,0.72,0.1,-3.3,45.8,0.75,0.07,-0.03,0.65
1697353011.18,-0.06,0.66,0.72,0.1,-3.3,45.8,0.75,0.07,-0.03,0.65
1697353011.19,-0.06,0.66,0.72,0.1,-3.3,45.8,0.75,0.07,-0.03,0.65
1697353011.2,-0.06,0.66,0.72,0.1,-3.3,45.8,0.75,0.07,-0.03,0.65
1697353011.21,0.04,0.47,0.47,1,-2.3,46.5,0.71,0.07,-0.03,0.7
1697353011.22,0.01,0.72,1.12,-3.7,-2.2,45.6,0.71,0.07,-0.03,0.7
1697353011.23,0.08,0.86,0.39,-4.9,-2.1,45.7,0.71,0.07,-0.03,0.7
1697353011.24,-0.05,1.08,1.42,-3.6,-1.8,45.9,0.7,0.07,-0.03,0.71
1697353011.25,-0.05,1.08,1.42,-3.6,-1.8,45.9,0.7,0.07,-0.03,0.71
1697353011.26,0,0.52,0.88,6.3,-1.7,45.8,0.7,0.07,-0.03,0.71
1697353011.27,-0.12,0.52,1.2,3.9,-0.8,46.1,0.7,0.07,-0.03,0.71
1697353011.28,0.02,0.49,0.81,-0.7,0,45.7,0.7,0.07,-0.03,0.71
1697353011.29,0.02,0.49,0.81,-0.7,0,45.7,0.69,0.07,-0.03,0.72
1697353011.3,0.04,0.83,0.46,-6.1,1.2,45.6,0.69,0.07,-0.03,0.72
1697353011.31,0.02,0.87,1.03,-4.3,1.9,45.9,0.69,0.07,-0.03,0.72
1697353011.32,-0.1,0.88,0.88,-4.3,1.9,45.9,0.68,0.07,-0.04,0.73
1697353011.33,0,0.73,1.26,-2.3,2.5,46.3,0.68,0.07,-0.04,0.73
1697353011.34,0,0.73,1.26,1,3.1,46.8,0.68,0.07,-0.04,0.73
1697353011.35,0.01,0.74,1.29,2.3,3.2,46.9,0.67,0.07,-0.04,0.73
1697353011.36,-0.03,0.64,0.94,2.9,2.8,46.9,0.67,0.07,-0.04,0.74
