time,accel_x,accel_y,accel_z,gyro_x,gyro_y,gyro_z,quat_w,quat_x,quat_y,quat_z
1697353635.15,-0.09,0.25,0.98,-0.4,4.1,43.2,1,0.08,0.01,-0.04
1697353635.16,-0.09,0.25,0.98,-0.5,3.4,43,1,0.08,0.01,-0.03
1697353635.17,-0.07,0.18,1.07,-0.3,2.7,43.1,1,0.08,0.01,-0.03
1697353635.18,-0.11,0.22,0.86,-0.2,2.1,43,1,0.08,0.01,-0.03
1697353635.19,-0.12,0.2,1.16,-0.1,1.8,43,1,0.08,0.01,-0.02
1697353635.2,-0.09,0.19,0.83,-0.4,1.5,43.1,1,0.08,0.01,-0.02
1697353635.21,-0.11,0.2,1.11,-0.9,1.5,43,1,0.08,0.01,-0.01
1697353635.22,-0.07,0.21,0.96,-0.7,1.5,42.9,1,0.08,0.01,-0.01
1697353635.23,-0.14,0.17,1.09,-0.9,1.5,42.8,1,0.08,0.01,-0.01
1697353635.24,-0.09,0.2,0.94,-0.4,1.4,42.6,1,0.08,0.01,-0
1697353635.25,-0.13,0.17,0.97,-0.1,1.3,42.5,1,0.08,0.01,0
1697353635.26,-0.1,0.17,1.03,-0.2,1.1,42.3,1,0.08,0.01,0
1697353635.27,-0.06,0.17,1,-0.3,1.2,42,1,0.08,0.01,0.01
1697353635.28,-0.02,0.19,0.99,-0.8,1,41.7,1,0.08,0.01,0.01
1697353635.29,0.16,0.13,1.11,-0.9,0.5,41.7,1,0.08,0.01,0.02
1697353635.3,0.33,0.25,0.86,-0.6,0,40.8,1,0.08,0.01,0.02
1697353635.31,0.24,0.15,1.24,-0.6,-0.6,40.4,1,0.08,0.01,0.02
1697353635.32,0.18,0.2,0.84,-0.1,-1.1,39.4,1,0.08,0.01,0.02
1697353635.33,-0.07,0.24,1.06,0,-1,38.8,1,0.08,0.01,0.03
1697353635.34,-0.22,0.31,0.9,0.1,-0.3,39.8,1,0.08,0.01,0.03
1697353635.35,-0.28,0.28,1.12,0.4,1,41.1,1,0.08,0.01,0.04
1697353635.36,-0.2,0.22,0.82,0,2.4,43,1,0.08,0.01,0.04
1697353635.37,-0.14,0.31,0.91,0.1,3.2,44.5,1,0.08,0.01,0.04
1697353635.38,-0.14,0.31,0.91,0.1,3.2,44.5,1,0.08,0.01,0.04
1697353635.39,-0.14,0.31,0.91,0.1,3.2,44.5,1,0.08,0.01,0.04
1697353635.4,-0.14,0.31,0.91,0.1,3.2,44.5,1,0.08,0.01,0.04
1697353635.41,-0.14,0.31,0.91,0.1,3.2,44.5,1,0.08,0.01,0.04
1697353635.42,-0.14,0.31,0.91,0.1,3.2,44.5,1,0.08,0.01,0.04
1697353635.43,-0.14,0.31,0.91,0.1,3.2,44.5,1,0.08,0.01,0.04
1697353635.44,-0.14,0.31,0.91,0.1,3.2,44.5,1,0.08,0.01,0.04
1697353635.45,-0.14,0.31,0.91,0.1,3.2,44.5,1,0.08,0.01,0.04
1697353635.46,-0.14,0.31,0.91,0.1,3.2,44.5,1,0.08,0.01,0.04
1697353635.47,-0.14,0.31,0.91,0.1,3.2,44.5,1,0.08,0.01,0.04
1697353635.48,-0.14,0.31,0.91,0.1,3.2,44.5,1,0.08,0.01,0.04
1697353635.49,-0.14,0.31,0.91,0.1,3.2,44.5,1,0.08,0.01,0.04
1697353635.5,-0.19,0.23,1.19,0.1,3.2,44.5,0.99,0.08,0,0.09
1697353635.51,-0.19,0.23,1.19,-1.3,0.7,40.3,0.99,0.08,0,0.09
1697353635.52,-0.17,0.18,0.91,-0.7,1.5,41.8,0.99,0.08,0,0.1
1697353635.53,-0.2,0.2,1.13,-0.5,2.5,43.1,0.99,0.08,0,0.1
1697353635.54,-0.07,0.11,1.09,0,2,45,0.99,0.08,0,0.11
1697353635.55,-0.07,0.11,0.96,0,2,45,0.99,0.08,0,0.11
1697353635.56,-0.07,0.11,0.96,0.6,1,44.9,0.99,0.08,0,0.11
1697353635.57,0.01,0.11,0.84,1.1,0.1,44.3,0.99,0.08,0,0.12
1697353635.58,0.01,0.11,0.84,1.4,-0.9,43.7,0.99,0.08,0,0.12
1697353635.59,-0.06,0.14,0.99,1.5,-1.7,42.4,0.99,0.09,0,0.12
1697353635.6,-0.1,0.17,0.96,1.3,-2.2,41.4,0.99,0.09,0,0.12
1697353635.61,-0.12,0.23,0.97,0.8,-2.1,40.4,0.99,0.09,0,0.13
1697353635.62,-0.07,0.25,0.94,0.9,-2,39.8,0.99,0.09,0,0.13
1697353635.63,0,0.18,1.16,0.7,-1.7,39.3,0.99,0.09,0,0.14
1697353635.64,0.08,0.25,0.89,1,-1.5,38.6,0.99,0.09,0,0.14
1697353635.65,0.12,0.21,0.98,0.4,-1.3,38.5,0.99,0.09,0,0.14
1697353635.66,-0.02,0.22,1.11,0.3,-1.1,38.3,0.99,0.09,0,0.15
1697353635.67,-0.03,0.23,1.28,0,-0.7,38.6,0.99,0.09,-0,0.15
1697353635.68,0.03,0.25,0.8,-0.3,-0.2,39.6,0.98,0.09,-0,0.15
1697353635.69,-0.19,0.17,1.1,-0.4,0.3,40.8,0.98,0.09,-0,0.16
1697353635.7,-0.12,0.24,0.93,-0.8,0.8,42,0.98,0.09,-0,0.16
1697353635.71,-0.11,0.21,0.98,-0.9,1,42.4,0.98,0.09,-0,0.16
1697353635.72,-0.04,0.17,0.95,-1.2,1.2,43.7,0.98,0.09,-0,0.17
1697353635.73,0.02,0.16,1,-1.2,1.2,43.7,0.98,0.09,-0,0.17
1697353635.74,0.07,0.18,0.83,-0.3,0.6,43.8,0.98,0.09,-0,0.18
1697353635.75,0.18,0.12,1,0.3,-0.1,43.1,0.98,0.09,-0,0.18
1697353635.76,0.2,0.18,1.02,0.1,-0.8,41.7,0.98,0.09,-0,0.18
1697353635.77,0.19,0.23,0.85,0.3,-1.5,40.2,0.98,0.09,-0,0.19
1697353635.78,0.12,0.28,1.18,0.2,-1.9,39.3,0.98,0.09,-0,0.19
1697353635.79,0.09,0.33,0.81,0.9,-2,38.8,0.98,0.09,-0,0.19
1697353635.8,-0.15,0.33,0.92,1.3,-1.7,39.4,0.98,0.09,-0,0.2
1697353635.81,-0.11,0.29,1.01,1.3,-1.1,40.4,0.98,0.09,-0.01,0.2
1697353635.82,-0.1,0.22,1.04,1.1,-0.2,41.7,0.98,0.09,-0.01,0.2
1697353635.83,-0.04,0.2,0.96,0,0.4,42.9,0.97,0.09,-0.01,0.21
1697353635.84,-0.02,0.17,1.13,-0.9,0.8,43.8,0.97,0.09,-0.01,0.21
1697353635.85,0.06,0.17,1.06,-1.9,0.1,44.1,0.97,0.09,-0.01,0.22
1697353635.86,0.15,0.16,1.16,-1.3,-0.5,43.6,0.97,0.09,-0.01,0.22
1697353635.87,0.15,0.24,1.05,-0.4,-1.2,42.9,0.97,0.09,-0.01,0.23
1697353635.88,0.2,0.21,1.05,0.8,-1.7,42.3,0.97,0.09,-0.01,0.23
1697353635.89,0.13,0.18,0.92,0.6,-1.8,41.8,0.97,0.09,-0.01,0.23
1697353635.9,0.04,0.23,0.83,0,-1.4,41.8,0.97,0.09,-0.01,0.24
1697353635.91,0.04,0.23,0.83,0,-1.4,41.8,0.97,0.09,-0.01,0.24
1697353635.92,0.04,0.23,0.83,0,-1.4,41.8,0.97,0.09,-0.01,0.24
1697353635.93,0.04,0.23,0.83,0,-1.4,41.8,0.97,0.09,-0.01,0.24
1697353635.94,0.04,0.23,0.83,0,-1.4,41.8,0.97,0.09,-0.01,0.24
1697353635.95,0.04,0.23,0.83,0,-1.4,41.8,0.97,0.09,-0.01,0.24
1697353635.96,0.04,0.23,0.83,0,-1.4,41.8,0.97,0.09,-0.01,0.24
1697353635.97,0.04,0.23,0.83,0,-1.4,41.8,0.97,0.09,-0.01,0.24
1697353635.98,0.04,0.23,0.83,0,-1.4,41.8,0.97,0.09,-0.01,0.24
1697353635.99,0.04,0.23,0.83,0,-1.4,41.8,0.97,0.09,-0.01,0.24
1697353636,0.04,0.23,0.83,0,-1.4,41.8,0.97,0.09,-0.01,0.24
1697353636.01,0.04,0.23,0.83,0,-1.4,41.8,0.97,0.09,-0.01,0.24
1697353636.02,0.04,0.23,0.83,0,-1.4,41.8,0.97,0.09,-0.01,0.24
1697353636.03,0.04,0.23,0.83,0,-1.4,41.8,0.97,0.09,-0.01,0.24
1697353636.04,-0.02,0.25,1.1,0,0,43.5,0.95,0.09,-0.01,0.28
1697353636.05,-0.03,0.24,0.89,0,1.2,44.2,0.95,0.09,-0.01,0.29
1697353636.06,0.03,0.26,0.97,-0.1,1.5,45,0.95,0.09,-0.01,0.29
1697353636.07,0.03,0.23,1.33,0,1.4,45.5,0.95,0.09,-0.01,0.3
1697353636.08,0.22,0.26,0.69,0.1,1,45.6,0.95,0.09,-0.01,0.3
1697353636.09,0.12,0.26,1.33,0.1,0.4,45.5,0.95,0.09,-0.01,0.3
1697353636.1,0.2,0.2,0.86,0.7,-0.1,45.2,0.95,0.09,-0.01,0.31
1697353636.11,0.14,0.2,0.74,1.4,-0.6,44.6,0.95,0.09,-0.02,0.31
1697353636.12,0.04,0.25,1.08,0.7,-0.2,44.5,0.95,0.09,-0.02,0.32
1697353636.13,-0.01,0.31,1.11,0.4,0.3,44.6,0.94,0.09,-0.02,0.32
1697353636.14,0.02,0.3,0.99,0,0.8,45,0.94,0.09,-0.02,0.32
1697353636.15,0.05,0.3,0.99,-0.4,1.4,45.6,0.94,0.09,-0.02,0.33
1697353636.16,-0.03,0.27,1.04,-0.6,1.4,45.9,0.94,0.09,-0.02,0.33
1697353636.17,0.11,0.29,0.96,-0.8,1.4,46.4,0.94,0.09,-0.02,0.33
1697353636.18,0.14,0.28,1.02,-0.7,1,46.4,0.94,0.09,-0.02,0.34
1697353636.19,0.08,0.26,1.16,-0.8,1,46.3,0.94,0.09,-0.02,0.34
1697353636.2,0.19,0.26,0.94,-0.7,0.7,46.2,0.93,0.09,-0.02,0.35
1697353636.21,0.11,0.25,1.1,-0.7,0.4,46.1,0.93,0.09,-0.02,0.35
1697353636.22,0.07,0.25,1.13,-0.7,0.4,46.1,0.93,0.09,-0.02,0.35
1697353636.23,0.04,0.28,0.91,-0.4,0.3,46.2,0.93,0.09,-0.02,0.35
1697353636.24,0.02,0.27,0.76,0,0.2,46.6,0.93,0.08,-0.02,0.36
1697353636.25,0.01,0.24,1.08,0,0.4,46.9,0.93,0.08,-0.02,0.37
1697353636.26,0.03,0.23,0.85,0,0.4,46.9,0.93,0.08,-0.02,0.37
1697353636.27,0.06,0.27,1.12,0.4,0.7,47.4,0.92,0.08,-0.02,0.37
1697353636.28,0.04,0.22,1.11,0.3,0.7,47.6,0.92,0.08,-0.02,0.37
1697353636.29,0.09,0.26,0.95,0.5,0.8,47.4,0.92,0.08,-0.02,0.38
1697353636.3,0.08,0.24,1.08,0.6,0.7,47.4,0.92,0.08,-0.02,0.38
1697353636.31,0.08,0.24,1.08,0.6,0.7,47.4,0.92,0.08,-0.02,0.38
1697353636.32,0.08,0.29,0.83,0.1,1.2,47.1,0.92,0.08,-0.02,0.39
1697353636.33,0.08,0.29,0.83,0.1,1.2,47.1,0.92,0.08,-0.02,0.39
1697353636.34,0.01,0.32,1.04,-0.1,1.5,47,0.91,0.08,-0.02,0.4
1697353636.35,-0.04,0.28,1.08,-0.1,1.7,47.3,0.91,0.08,-0.02,0.4
1697353636.36,-0.04,0.28,1.08,-0.3,2,47.6,0.91,0.08,-0.02,0.4
1697353636.37,-0.06,0.32,1.14,-0.3,2.1,48,0.91,0.08,-0.02,0.41
1697353636.38,-0.06,0.32,1.14,-0.1,2,48.4,0.91,0.09,-0.02,0.41
1697353636.39,0.12,0.3,0.73,0.8,1.6,48.8,0.91,0.09,-0.02,0.42
1697353636.4,0.03,0.29,1.29,1.2,1.1,48.9,0.9,0.09,-0.02,0.42
1697353636.41,0.21,0.26,0.87,1.8,-0.4,48.8,0.9,0.09,-0.02,0.42
1697353636.42,0.14,0.2,0.77,0.6,-0.5,48.6,0.9,0.09,-0.02,0.43
1697353636.43,0.05,0.27,0.88,0.6,-0.5,48.6,0.9,0.09,-0.02,0.43
1697353636.44,0.05,0.27,0.88,0.6,-0.5,48.6,0.9,0.09,-0.02,0.43
1697353636.45,0.05,0.27,0.88,0.6,-0.5,48.6,0.9,0.09,-0.02,0.43
1697353636.46,0.05,0.27,0.88,0.6,-0.5,48.6,0.9,0.09,-0.02,0.43
1697353636.47,0.05,0.27,0.88,0.6,-0.5,48.6,0.9,0.09,-0.02,0.43
1697353636.48,0.05,0.27,0.88,0.6,-0.5,48.6,0.9,0.09,-0.02,0.43
1697353636.49,0.05,0.27,0.88,0.6,-0.5,48.6,0.9,0.09,-0.02,0.43
1697353636.5,0.05,0.27,0.88,0.6,-0.5,48.6,0.9,0.09,-0.02,0.43
1697353636.51,0.05,0.27,0.88,0.6,-0.5,48.6,0.9,0.09,-0.02,0.43
1697353636.52,0.05,0.27,0.88,0.6,-0.5,48.6,0.9,0.09,-0.02,0.43
1697353636.53,0.05,0.27,0.88,0.6,-0.5,48.6,0.9,0.09,-0.02,0.43
1697353636.54,0.05,0.27,0.88,0.6,-0.5,48.6,0.9,0.09,-0.02,0.43
1697353636.55,0.05,0.27,0.88,0.6,-0.5,48.6,0.9,0.09,-0.02,0.43
1697353636.56,0.05,0.27,0.88,0.6,-0.5,48.6,0.9,0.09,-0.02,0.43
1697353636.57,0.05,0.27,0.88,0.6,-0.5,48.6,0.9,0.09,-0.02,0.43
1697353636.58,-0.05,0.39,1.26,1.3,1.6,49.4,0.87,0.08,-0.02,0.49
1697353636.59,0.05,0.34,0.88,3.5,1.1,49.5,0.87,0.08,-0.02,0.49
1697353636.6,0.01,0.22,1.05,3.4,1.3,49.6,0.86,0.08,-0.02,0.5
1697353636.61,0.01,0.22,1.05,3.4,1.3,49.6,0.86,0.08,-0.02,0.5
1697353636.62,0.02,0.26,1.03,2.2,1.4,50.1,0.86,0.08,-0.02,0.51
1697353636.63,0.02,0.26,1.03,2.2,1.4,50.1,0.86,0.08,-0.02,0.51
1697353636.64,0.06,0.29,0.96,2.5,1.4,50.2,0.85,0.08,-0.02,0.51
1697353636.65,0.06,0.29,0.96,2.5,1.4,50.2,0.85,0.08,-0.02,0.51
1697353636.66,0.05,0.22,1.16,3.5,1.7,49.8,0.85,0.09,-0.02,0.52
1697353636.67,0.1,0.24,0.74,3.5,1.7,49.8,0.85,0.09,-0.02,0.52
1697353636.68,0.03,0.23,0.97,3.6,1.9,49.4,0.85,0.09,-0.02,0.53
1697353636.69,0.01,0.1,1.39,-0.5,1.3,48.7,0.84,0.09,-0.02,0.53
1697353636.7,0.06,0.3,1.25,-4.7,-0.5,49,0.84,0.09,-0.02,0.53
1697353636.71,0.06,0.3,1.25,-4.7,-0.5,49,0.84,0.09,-0.02,0.54
1697353636.72,-0.08,0.45,1.23,-4.7,-0.5,49,0.84,0.08,-0.03,0.54
1697353636.73,-0.01,0.62,0.81,-5.4,-1.4,49.7,0.83,0.08,-0.03,0.54
1697353636.74,0.12,0.56,0.91,-3,-2.1,50.3,0.83,0.08,-0.03,0.55
1697353636.75,-0.11,0.35,1.4,0,-2.1,50.4,0.83,0.08,-0.03,0.55
1697353636.76,0.14,0.26,0.56,1.6,-1.4,50.5,0.83,0.08,-0.03,0.55
1697353636.77,0.12,0.18,0.59,0.5,-0.5,50.3,0.82,0.08,-0.03,0.56
1697353636.78,0.01,0.19,1.02,-0.9,0,49.7,0.82,0.08,-0.03,0.56
1697353636.79,-0.01,0.19,1.2,-2.4,1,49.4,0.82,0.08,-0.03,0.57
1697353636.8,-0.02,0.29,1.03,-1.6,1.6,49,0.82,0.08,-0.03,0.57
1697353636.81,0.05,0.28,0.98,0.1,2,49,0.81,0.08,-0.03,0.57
1697353636.82,-0.04,0.22,0.96,2.2,1.9,48.7,0.81,0.08,-0.03,0.58
1697353636.83,0.12,0.23,0.81,3.6,1.5,48.7,0.81,0.08,-0.03,0.58
1697353636.84,0.01,0.17,0.99,4.3,1.4,48.3,0.81,0.08,-0.03,0.58
1697353636.85,0.19,0.18,0.25,3.9,1.7,47.8,0.8,0.08,-0.03,0.59
1697353636.86,-0.08,0.19,1.12,3.5,2.6,47.4,0.8,0.08,-0.03,0.59
1697353636.87,0.01,0.21,1.14,2.7,2.8,46.8,0.8,0.08,-0.03,0.59
1697353636.88,0.03,0.41,1.33,0.4,2.3,46.7,0.8,0.08,-0.03,0.6
1697353636.89,-0.01,0.59,1.35,-1.1,0.4,47.8,0.79,0.08,-0.03,0.6
1697353636.9,-0.04,0.59,1.26,0.3,-1.7,50.2,0.79,0.08,-0.03,0.6
1697353636.91,-0.03,0.53,1.05,0.7,-2.6,51.3,0.79,0.08,-0.03,0.61
1697353636.92,-0.04,0.44,0.92,-0.3,-3,51.9,0.79,0.08,-0.03,0.61
1697353636.93,0.02,0.37,1.1,-1.3,-3.2,52.1,0.78,0.08,-0.03,0.62
1697353636.94,-0.02,0.31,1.08,-2.5,-3,52,0.78,0.08,-0.03,0.62
1697353636.95,0.02,0.3,0.97,-2.8,-2.6,51.2,0.78,0.08,-0.03,0.62
1697353636.96,0.01,0.31,0.91,-2.8,-2.6,51.2,0.78,0.08,-0.03,0.62
1697353636.97,0.01,0.31,0.91,-1.7,-1.9,50.1,0.77,0.08,-0.03,0.63
1697353636.98,0.01,0.31,0.91,-1.7,-1.9,50.1,0.77,0.08,-0.03,0.63
1697353636.99,0.01,0.31,0.91,-1.7,-1.9,50.1,0.77,0.08,-0.03,0.63
1697353637,0.01,0.31,0.91,-1.7,-1.9,50.1,0.77,0.08,-0.03,0.63
1697353637.01,0.01,0.31,0.91,-1.7,-1.9,50.1,0.77,0.08,-0.03,0.63
1697353637.02,0.01,0.31,0.91,-1.7,-1.9,50.1,0.77,0.08,-0.03,0.63
1697353637.03,0.01,0.31,0.91,-1.7,-1.9,50.1,0.77,0.08,-0.03,0.63
1697353637.04,0.01,0.31,0.91,-1.7,-1.9,50.1,0.77,0.08,-0.03,0.63
1697353637.05,0.01,0.31,0.91,-1.7,-1.9,50.1,0.77,0.08,-0.03,0.63
1697353637.06,0.01,0.31,0.91,-1.7,-1.9,50.1,0.77,0.08,-0.03,0.63
1697353637.07,0.01,0.31,0.91,-1.7,-1.9,50.1,0.77,0.08,-0.03,0.63
1697353637.08,0.01,0.31,0.91,-1.7,-1.9,50.1,0.77,0.08,-0.03,0.63
1697353637.09,0.01,0.31,0.91,-1.7,-1.9,50.1,0.77,0.08,-0.03,0.63
1697353637.1,0.07,0.34,0.72,0,0.1,48.8,0.74,0.08,-0.04,0.67
1697353637.11,0.07,0.32,0.88,0.6,0.1,49,0.74,0.08,-0.04,0.67
1697353637.12,0.06,0.23,0.91,1.2,-0.1,48.7,0.73,0.08,-0.04,0.67
1697353637.13,0.06,0.17,1.25,1.2,-0.3,48.4,0.73,0.08,-0.04,0.68
1697353637.14,0.04,0.15,1.09,0.4,-0.2,47.7,0.73,0.08,-0.04,0.68
1697353637.15,0.02,0.15,0.86,-0.8,0.1,46.9,0.72,0.08,-0.04,0.68
1697353637.16,-0.01,0.19,0.93,-2.2,0.6,46.1,0.72,0.08,-0.04,0.69
1697353637.17,-0.02,0.28,0.99,-3.3,1.1,45.3,0.72,0.08,-0.04,0.69
1697353637.18,0.09,0.31,1.04,-3.3,1.7,44.4,0.72,0.08,-0.04,0.69
1697353637.19,0.04,0.4,1.23,-2,1.9,43.8,0.71,0.08,-0.04,0.7
1697353637.2,0.04,0.3,0.97,0.6,1.9,43.5,0.71,0.08,-0.04,0.7
1697353637.21,0.09,0.2,0.87,3.7,1.1,43.2,0.71,0.08,-0.04,0.7
1697353637.22,0.1,0.06,1.02,3.7,1.1,43.2,0.7,0.08,-0.04,0.7
1697353637.23,0.14,-0.02,0.77,2.4,-1.3,42.7,0.7,0.08,-0.04,0.71
1697353637.24,0.07,0.15,1.01,-1.4,-2.3,41.9,0.7,0.08,-0.04,0.71
1697353637.25,0.11,0.23,0.99,-4.6,-2.6,41.6,0.7,0.08,-0.04,0.71
1697353637.26,0.1,0.37,0.9,-4.2,-2.2,41.1,0.69,0.08,-0.05,0.71
1697353637.27,0.01,0.29,1.11,0.7,-0.9,40.1,0.69,0.08,-0.05,0.72
1697353637.28,-0.05,0.16,1.04,1.1,-0.2,39,0.69,0.08,-0.05,0.72
1697353637.29,0.01,0.07,0.87,-1.2,1.1,38.4,0.69,0.08,-0.05,0.72
1697353637.3,0.02,0.09,0.97,-4.4,2.2,37.8,0.68,0.08,-0.05,0.72
1697353637.31,0.03,0.21,1,-4.4,2.2,37.8,0.68,0.08,-0.05,0.72
1697353637.32,0.05,0.25,1.11,-3.7,3.6,36.8,0.68,0.08,-0.05,0.73
1697353637.33,0.07,0.29,1.09,-1,3.1,36.5,0.68,0.08,-0.05,0.73
1697353637.34,0.08,0.16,1.01,0.5,2.4,36,0.67,0.07,-0.05,0.73
1697353637.35,0.07,0.07,0.95,0.5,1.4,35.2,0.67,0.07,-0.05,0.74
1697353637.36,0.04,-0,0.94,0.5,1.4,35.2,0.67,0.07,-0.05,0.74
1697353637.37,0.11,0.01,0.8,-3,-0.2,33.6,0.67,0.07,-0.05,0.74
1697353637.38,0.11,0.01,0.8,-3,-0.2,33.6,0.67,0.07,-0.05,0.74
1697353637.39,0.03,0.14,1.19,-3,-1.4,31.9,0.66,0.07,-0.05,0.74
1697353637.4,-0.01,0.18,1.11,-0.7,-0.9,31,0.66,0.07,-0.05,0.74
1697353637.41,-0.01,0.18,1.11,-0.7,-0.9,31,0.66,0.07,-0.05,0.75
1697353637.42,0.03,0.05,1.09,0.6,-0.5,30.3,0.66,0.07,-0.05,0.75
1697353637.43,0.03,0.05,1.09,0.6,-0.5,30.3,0.66,0.07,-0.05,0.75
1697353637.44,0.04,-0.06,0.93,0.3,0,29.5,0.66,0.07,-0.05,0.75
1697353637.45,0,-0.01,0.89,-1.2,0.2,28.5,0.66,0.07,-0.05,0.75
1697353637.46,0,-0.01,0.89,-3,1,27.4,0.65,0.07,-0.05,0.75
1697353637.47,0.04,0.06,0.95,-4,1.2,26.4,0.65,0.07,-0.05,0.75
1697353637.48,0.07,0.1,1.04,-3.5,1.9,25.5,0.65,0.07,-0.05,0.76
1697353637.49,0.16,0.06,0.98,-1.7,1.9,24.4,0.65,0.07,-0.05,0.76
1697353637.5,0,0.05,1.32,0,1.4,23.4,0.65,0.07,-0.05,0.76
1697353637.51,0,0.05,1.32,0,1.4,23.4,0.65,0.07,-0.05,0.76
1697353637.52,0,0.05,1.32,0,1.4,23.4,0.65,0.07,-0.05,0.76
1697353637.53,0,0.05,1.32,0,1.4,23.4,0.65,0.07,-0.05,0.76
1697353637.54,0,0.05,1.32,0,1.4,23.4,0.65,0.07,-0.05,0.76
1697353637.55,0,0.05,1.32,0,1.4,23.4,0.65,0.07,-0.05,0.76
1697353637.56,0,0.05,1.32,0,1.4,23.4,0.65,0.07,-0.05,0.76
1697353637.57,0,0.05,1.32,0,1.4,23.4,0.65,0.07,-0.05,0.76
1697353637.58,0,0.05,1.32,0,1.4,23.4,0.65,0.07,-0.05,0.76
1697353637.59,0,0.05,1.32,0,1.4,23.4,0.65,0.07,-0.05,0.76
1697353637.6,0,0.05,1.32,0,1.4,23.4,0.65,0.07,-0.05,0.76
1697353637.61,0,0.05,1.32,0,1.4,23.4,0.65,0.07,-0.05,0.76
1697353637.62,0,0.05,1.32,0,1.4,23.4,0.65,0.07,-0.05,0.76
1697353637.63,0.09,-0.24,0.96,-1.1,1.1,7.3,0.63,0.06,-0.05,0.77
1697353637.64,0.04,-0.3,1.34,-1.6,1.8,3.2,0.63,0.06,-0.05,0.77
1697353637.65,0.09,-0.22,0.97,-1.7,2.2,1.2,0.63,0.06,-0.05,0.77
1697353637.66,0.09,-0.22,0.97,-1.7,2.2,1.2,0.63,0.06,-0.05,0.77
1697353637.67,-0.06,-0.35,1.11,-0.1,2.7,-2.4,0.63,0.06,-0.05,0.77
1697353637.68,0.03,-0.32,0.86,-0.1,2.7,-2.4,0.63,0.06,-0.05,0.77
1697353637.69,0.11,-0.4,0.86,-3.3,2,-5.6,0.63,0.06,-0.05,0.77
1697353637.7,0.11,-0.4,0.86,-3.3,2,-5.6,0.63,0.06,-0.05,0.77
1697353637.71,0.11,-0.21,0.95,-4.1,0,-7.9,0.63,0.06,-0.05,0.77
1697353637.72,0.14,-0.18,0.84,-2.6,-0.4,-8.7,0.63,0.06,-0.05,0.77
1697353637.73,0.1,-0.21,0.88,-1.5,-0.8,-9.5,0.63,0.06,-0.05,0.77
1697353637.74,0.04,-0.3,1.14,-0.9,-1,-10.3,0.64,0.06,-0.05,0.77
1697353637.75,0.24,-0.31,0.77,-1,-1.1,-11.3,0.64,0.06,-0.05,0.77
1697353637.76,0.06,-0.43,1.19,-1,-1.1,-11.3,0.64,0.06,-0.05,0.77
1697353637.77,0.01,-0.41,1.26,-3.2,-0.8,-14.2,0.64,0.06,-0.05,0.77
1697353637.78,0,-0.27,1.13,-3.2,-0.8,-14.2,0.64,0.06,-0.05,0.77
1697353637.79,0.06,-0.4,1.16,-1.6,-0.9,-18.1,0.64,0.06,-0.05,0.77
1697353637.8,0.06,-0.4,1.16,-1.6,-0.9,-18.1,0.64,0.06,-0.05,0.76
1697353637.81,0.03,-0.46,1.24,-0.9,-0.7,-20.2,0.64,0.06,-0.05,0.76
1697353637.82,0.02,-0.43,0.94,-1.1,-0.6,-21.8,0.64,0.06,-0.05,0.76
1697353637.83,-0,-0.39,1.14,-1.3,-0.8,-23.3,0.64,0.06,-0.05,0.76
1697353637.84,0.01,-0.46,1.23,-2.1,-1.6,-24.5,0.65,0.06,-0.05,0.76
1697353637.85,-0,-0.36,1.2,-2.5,-2.2,-25.4,0.65,0.06,-0.06,0.76
1697353637.86,-0.08,-0.17,1.13,-0.3,-1.9,-25.8,0.65,0.06,-0.06,0.76
1697353637.87,-0.04,-0.23,0.82,1.9,-1.1,-25.9,0.65,0.06,-0.05,0.75
1697353637.88,-0.1,-0.27,0.98,4.1,-0.2,-26.3,0.65,0.06,-0.05,0.75
1697353637.89,-0,-0.38,0.97,3.6,0.6,-26.7,0.66,0.06,-0.05,0.75
1697353637.9,-0.08,-0.6,1.03,3.1,0.3,-26.8,0.66,0.06,-0.05,0.75
1697353637.91,0.02,-0.44,0.82,0.7,0.8,-27.6,0.66,0.06,-0.05,0.75
1697353637.92,0.02,-0.24,0.77,-1.4,1.6,-28.1,0.66,0.06,-0.05,0.75
1697353637.93,0.03,-0.22,1.01,-1.5,2.5,-28,0.66,0.06,-0.05,0.74
1697353637.94,0.09,-0.19,0.72,0.8,2.5,-28.2,0.66,0.06,-0.05,0.74
1697353637.95,0.04,-0.26,0.98,3.1,2.1,-28.4,0.67,0.06,-0.05,0.74
1697353637.96,0.08,-0.34,0.87,4.1,1.6,-28.8,0.67,0.06,-0.05,0.74
1697353637.97,0.15,-0.32,0.89,2.2,0.9,-29,0.67,0.06,-0.05,0.74
1697353637.98,0.08,-0.22,0.82,-0.6,0,-29.5,0.67,0.06,-0.05,0.74
1697353637.99,0.07,-0.14,0.94,-1.9,-0.4,-29.7,0.67,0.06,-0.05,0.73
1697353638,0.07,-0.08,0.9,-1.1,-0.7,-29.6,0.68,0.06,-0.05,0.73
1697353638.01,0.07,-0.12,0.87,0.7,-0.9,-29.6,0.68,0.06,-0.05,0.73
1697353638.02,0.09,-0.22,0.88,2.5,-1.1,-29.5,0.68,0.06,-0.05,0.73
1697353638.03,0.09,-0.22,0.88,2.5,-1.1,-29.5,0.68,0.06,-0.05,0.73
1697353638.04,0.09,-0.22,0.88,2.5,-1.1,-29.5,0.68,0.06,-0.05,0.73
1697353638.05,0.09,-0.22,0.88,2.5,-1.1,-29.5,0.68,0.06,-0.05,0.73
1697353638.06,0.09,-0.22,0.88,2.5,-1.1,-29.5,0.68,0.06,-0.05,0.73
1697353638.07,0.09,-0.22,0.88,2.5,-1.1,-29.5,0.68,0.06,-0.05,0.73
1697353638.08,0.09,-0.22,0.88,2.5,-1.1,-29.5,0.68,0.06,-0.05,0.73
1697353638.09,0.09,-0.22,0.88,2.5,-1.1,-29.5,0.68,0.06,-0.05,0.73
1697353638.1,0.09,-0.22,0.88,2.5,-1.1,-29.5,0.68,0.06,-0.05,0.73
1697353638.11,0.09,-0.22,0.88,2.5,-1.1,-29.5,0.68,0.06,-0.05,0.73
1697353638.12,0.09,-0.22,0.88,2.5,-1.1,-29.5,0.68,0.06,-0.05,0.73
1697353638.13,0.09,-0.22,0.88,2.5,-1.1,-29.5,0.68,0.06,-0.05,0.73
1697353638.14,0.09,-0.22,0.88,2.5,-1.1,-29.5,0.68,0.06,-0.05,0.73
1697353638.15,0.09,-0.22,0.88,0.3,-1.4,-29.8,0.68,0.06,-0.05,0.73
1697353638.16,-0.03,-0.33,1.26,0.8,-1.2,-29.7,0.7,0.06,-0.05,0.71
1697353638.17,0.05,-0.4,0.97,0.6,-1.1,-29.6,0.71,0.06,-0.05,0.7
1697353638.18,0.05,-0.4,0.97,0.6,-1.1,-29.6,0.71,0.06,-0.05,0.7
1697353638.19,0.03,-0.26,1.12,0.5,-0.9,-29.6,0.71,0.06,-0.05,0.7
1697353638.2,0.03,-0.26,1.12,-2.1,-0.1,-29.6,0.71,0.06,-0.05,0.7
1697353638.21,-0.03,-0.19,1.17,-1.5,1.1,-29.4,0.71,0.06,-0.05,0.7
1697353638.22,0.1,-0.2,1.14,0.1,1.5,-29.6,0.72,0.06,-0.05,0.69
1697353638.23,0.07,-0.21,1.03,1.8,1.5,-29.2,0.72,0.06,-0.05,0.69
1697353638.24,0.01,-0.33,1.16,2.4,0.8,-29.5,0.72,0.06,-0.05,0.69
1697353638.25,0.07,-0.45,1.14,1.5,0,-29.8,0.72,0.06,-0.05,0.69
1697353638.26,0.12,-0.39,1.14,0.6,-0.8,-29.8,0.72,0.06,-0.05,0.69
1697353638.27,0.15,-0.38,0.95,-0.5,-1.5,-29.9,0.72,0.06,-0.05,0.68
1697353638.28,0.1,-0.27,1.08,-0.3,-1.8,-30,0.73,0.06,-0.05,0.68
1697353638.29,0.09,-0.26,0.94,0,-1.9,-29.9,0.73,0.06,-0.05,0.68
1697353638.3,0.07,-0.3,1.07,0,-1.4,-30.1,0.73,0.06,-0.05,0.68
1697353638.31,0.08,-0.3,0.97,0,-0.4,-30,0.73,0.06,-0.05,0.68
1697353638.32,0.08,-0.28,1.08,0.1,0,-30,0.73,0.06,-0.05,0.67
1697353638.33,0,-0.2,0.81,0.4,0.9,-30.1,0.73,0.06,-0.05,0.67
1697353638.34,0.1,-0.18,0.96,0.6,1.4,-30,0.74,0.06,-0.05,0.67
1697353638.35,0.1,-0.22,0.95,0.8,1.8,-30,0.74,0.06,-0.05,0.67
1697353638.36,0.01,-0.22,1,0.7,1.8,-30.1,0.74,0.06,-0.05,0.67
1697353638.37,0.06,-0.24,0.9,0.1,1.4,-29.9,0.74,0.06,-0.05,0.67
1697353638.38,0.13,-0.16,0.66,-0.2,1,-29.7,0.74,0.06,-0.05,0.66
1697353638.39,0.1,-0.14,0.69,-0.3,0.4,-29.3,0.75,0.06,-0.05,0.66
1697353638.4,0.14,-0.24,0.71,0.2,-1.5,-28.7,0.75,0.06,-0.05,0.66
1697353638.41,0.08,-0.27,0.77,-0.3,-2.2,-28.8,0.75,0.06,-0.05,0.66
1697353638.42,0.04,-0.32,0.64,-2.9,-2.2,-28.8,0.75,0.06,-0.05,0.66
1697353638.43,0.04,-0.32,0.64,-2.9,-2.2,-28.8,0.75,0.06,-0.05,0.66
1697353638.44,0.1,-0.07,0.55,-4.4,-1.1,-28.1,0.75,0.06,-0.05,0.65
1697353638.45,-0.05,-0.2,0.89,-1.6,-0.7,-27.7,0.75,0.06,-0.05,0.65
1697353638.46,0.07,-0.19,0.71,-1.6,-0.7,-27.7,0.76,0.06,-0.05,0.65
1697353638.47,0.05,-0.44,1.01,3.4,0.7,-28.1,0.76,0.06,-0.05,0.65
1697353638.48,0.05,-0.44,1.01,3.4,0.7,-28.1,0.76,0.06,-0.05,0.65
1697353638.49,0,-0.37,1.2,-2.8,0.9,-28.4,0.76,0.06,-0.05,0.64
1697353638.5,0,-0.37,1.2,-2.8,0.9,-28.4,0.76,0.06,-0.05,0.64
1697353638.51,0.03,-0.24,1.21,-3.3,0.9,-28.8,0.76,0.06,-0.05,0.64
1697353638.52,0.05,-0.21,1.33,-1.3,0.4,-28.9,0.77,0.06,-0.05,0.64
1697353638.53,0.04,-0.3,1.28,0.8,0.1,-29.1,0.77,0.06,-0.05,0.64
1697353638.54,0.05,-0.4,1.12,1.6,0.2,-29.2,0.77,0.06,-0.05,0.63
1697353638.55,0.05,-0.4,1.12,1.6,0.2,-29.2,0.77,0.06,-0.05,0.63
1697353638.56,0.05,-0.4,1.12,1.6,0.2,-29.2,0.77,0.06,-0.05,0.63
1697353638.57,0.05,-0.4,1.12,1.6,0.2,-29.2,0.77,0.06,-0.05,0.63
1697353638.58,0.05,-0.4,1.12,1.6,0.2,-29.2,0.77,0.06,-0.05,0.63
1697353638.59,0.05,-0.4,1.12,1.6,0.2,-29.2,0.77,0.06,-0.05,0.63
1697353638.6,0.05,-0.4,1.12,1.6,0.2,-29.2,0.77,0.06,-0.05,0.63
1697353638.61,0.05,-0.4,1.12,1.6,0.2,-29.2,0.77,0.06,-0.05,0.63
1697353638.62,0.05,-0.4,1.12,1.6,0.2,-29.2,0.77,0.06,-0.05,0.63
1697353638.63,0.05,-0.4,1.12,1.6,0.2,-29.2,0.77,0.06,-0.05,0.63
1697353638.64,0.05,-0.4,1.12,1.6,0.2,-29.2,0.77,0.06,-0.05,0.63
1697353638.65,0.05,-0.4,1.12,1.6,0.2,-29.2,0.77,0.06,-0.05,0.63
1697353638.66,0.05,-0.4,1.12,1.6,0.2,-29.2,0.77,0.06,-0.05,0.63
1697353638.67,0.05,-0.4,1.12,1.6,0.2,-29.2,0.77,0.06,-0.05,0.63
1697353638.68,-0.01,-0.39,1.25,2,0.1,-30.5,0.79,0.06,-0.04,0.61
1697353638.69,0.01,-0.25,1.3,0,0.5,-30.9,0.79,0.06,-0.04,0.6
1697353638.7,0.06,-0.32,1.12,-0.8,1,-30.8,0.8,0.06,-0.04,0.6
1697353638.71,0.06,-0.22,1.18,-0.7,1.9,-31,0.8,0.06,-0.04,0.6
1697353638.72,0.1,-0.32,1.04,-0.8,2.1,-31,0.8,0.06,-0.04,0.6
1697353638.73,0.15,-0.37,0.9,-0.6,2.1,-31.1,0.8,0.06,-0.04,0.6
1697353638.74,0.09,-0.29,1.02,-0.8,2,-31.3,0.8,0.06,-0.04,0.59
1697353638.75,0.1,-0.37,0.76,-0.4,1.2,-31.4,0.8,0.06,-0.04,0.59
1697353638.76,0.06,-0.36,0.95,-1.6,0.3,-31.8,0.81,0.06,-0.04,0.59
1697353638.77,0.09,-0.35,0.74,-1.7,0.1,-32.1,0.81,0.06,-0.04,0.59
1697353638.78,0.1,-0.39,0.88,-0.6,-0.5,-32.5,0.81,0.06,-0.04,0.58
1697353638.79,0.17,-0.47,1,0.4,-1.1,-32.8,0.81,0.06,-0.04,0.58
1697353638.8,0.16,-0.42,0.91,0.5,-1.1,-32.9,0.81,0.06,-0.04,0.58
1697353638.81,0.06,-0.32,0.71,-0.5,-1.1,-32.7,0.81,0.06,-0.04,0.58
1697353638.82,0.16,-0.34,0.63,-0.8,-0.7,-32.7,0.81,0.06,-0.04,0.57
1697353638.83,0.12,-0.33,1.05,0.3,-0.1,-32.6,0.82,0.06,-0.04,0.57
1697353638.84,0.16,-0.31,0.98,0.4,0.4,-32.3,0.82,0.06,-0.04,0.57
1697353638.85,0.2,-0.63,1.02,0.4,0.4,-32.3,0.82,0.06,-0.04,0.57
1697353638.86,0.22,-0.3,0.9,1.1,0.6,-32.7,0.82,0.06,-0.04,0.57
1697353638.87,0.09,-0.45,1.15,0.4,0.9,-33.7,0.82,0.06,-0.04,0.56
1697353638.88,0.09,-0.45,1.15,0.4,0.9,-33.7,0.82,0.06,-0.04,0.56
1697353638.89,0.18,-0.31,1.07,1.8,1.5,-34.8,0.83,0.06,-0.04,0.56
1697353638.9,0.18,-0.31,1.07,1.8,1.5,-34.8,0.83,0.06,-0.04,0.56
1697353638.91,0.09,-0.38,1.06,2.7,1.4,-35.5,0.83,0.07,-0.04,0.55
1697353638.92,0.13,-0.53,0.97,0.6,0.9,-36.3,0.83,0.07,-0.04,0.55
1697353638.93,0.15,-0.27,1.08,0.6,0.9,-36.3,0.83,0.07,-0.04,0.55
1697353638.94,0.15,-0.27,1.08,-0.7,1.5,-36.6,0.84,0.07,-0.04,0.54
1697353638.95,0.18,-0.19,1.05,1.2,1.8,-36.2,0.84,0.07,-0.04,0.54
1697353638.96,0.13,-0.31,0.93,3.4,1.6,-36.3,0.84,0.07,-0.04,0.54
1697353638.97,0.13,-0.56,0.94,3.7,1.4,-36.3,0.84,0.07,-0.04,0.54
1697353638.98,0.14,-0.47,1.02,1.8,0.8,-36.2,0.84,0.07,-0.04,0.53
1697353638.99,0.15,-0.41,1.04,-0.4,0.6,-37.1,0.84,0.07,-0.04,0.53
1697353639,0.15,-0.58,0.86,-2.5,0.3,-37.1,0.85,0.07,-0.04,0.53
1697353639.01,0.12,-0.39,1.01,-2,0.1,-37.3,0.85,0.07,-0.04,0.53
1697353639.02,0.15,-0.22,0.97,-0.3,0,-37.2,0.85,0.07,-0.04,0.52
1697353639.03,0.15,-0.38,0.73,2.3,0.1,-37.2,0.85,0.07,-0.04,0.52
1697353639.04,0.16,-0.51,0.99,3.1,-0.1,-37.3,0.85,0.07,-0.04,0.52
1697353639.05,0.16,-0.33,0.99,1.4,-0.5,-37.7,0.85,0.07,-0.03,0.51
1697353639.06,0.16,-0.42,1.29,-1.3,-1.2,-37.7,0.86,0.07,-0.03,0.51
1697353639.07,0.13,-0.61,1.19,-1.3,-1.2,-37.7,0.86,0.07,-0.03,0.51
1697353639.08,0.13,-0.61,1.19,-1.3,-1.2,-37.7,0.86,0.07,-0.03,0.51
1697353639.09,0.13,-0.61,1.19,-1.3,-1.2,-37.7,0.86,0.07,-0.03,0.51
1697353639.1,0.13,-0.61,1.19,-1.3,-1.2,-37.7,0.86,0.07,-0.03,0.51
1697353639.11,0.13,-0.61,1.19,-1.3,-1.2,-37.7,0.86,0.07,-0.03,0.51
1697353639.12,0.13,-0.61,1.19,-1.3,-1.2,-37.7,0.86,0.07,-0.03,0.51
1697353639.13,0.13,-0.61,1.19,-1.3,-1.2,-37.7,0.86,0.07,-0.03,0.51
1697353639.14,0.13,-0.61,1.19,-1.3,-1.2,-37.7,0.86,0.07,-0.03,0.51
1697353639.15,0.13,-0.61,1.19,-1.3,-1.2,-37.7,0.86,0.07,-0.03,0.51
1697353639.16,0.13,-0.61,1.19,-1.3,-1.2,-37.7,0.86,0.07,-0.03,0.51
1697353639.17,0.13,-0.61,1.19,-1.3,-1.2,-37.7,0.86,0.07,-0.03,0.51
1697353639.18,0.13,-0.61,1.19,-1.3,-1.2,-37.7,0.86,0.07,-0.03,0.51
1697353639.19,0.13,-0.61,1.19,-1.3,-1.2,-37.7,0.86,0.07,-0.03,0.51
1697353639.2,0.13,-0.61,1.19,-1.3,-1.2,-37.7,0.88,0.07,-0.03,0.47
1697353639.21,0.17,-0.57,1.09,0.9,-1.9,-39.1,0.88,0.07,-0.03,0.47
1697353639.22,0.14,-0.4,0.72,0.9,-1.6,-39.2,0.88,0.07,-0.03,0.47
1697353639.23,0.14,-0.4,0.72,0.9,-1.6,-39.2,0.88,0.07,-0.03,0.46
1697353639.24,0.1,-0.44,1.15,1.7,-0.3,-39.3,0.88,0.07,-0.03,0.46
1697353639.25,0.12,-0.35,0.79,1.2,0.2,-39.4,0.89,0.07,-0.03,0.46
1697353639.26,0.13,-0.52,0.65,0.2,0.8,-39.2,0.89,0.07,-0.03,0.45
1697353639.27,0.07,-0.43,1.1,0.2,0.8,-39.2,0.89,0.07,-0.03,0.45
1697353639.28,0.09,-0.38,1.3,0,1.1,-40,0.89,0.07,-0.03,0.45
1697353639.29,0.23,-0.48,1.13,0.1,1.1,-39.8,0.89,0.07,-0.03,0.44
1697353639.3,0.13,-0.38,0.85,1,1.5,-40.4,0.89,0.07,-0.03,0.44
1697353639.31,0.19,-0.46,0.75,1,1.5,-40.4,0.9,0.07,-0.03,0.44
1697353639.32,0.19,-0.46,0.75,1,1.5,-40.4,0.9,0.07,-0.03,0.43
1697353639.33,0.24,-0.45,0.9,0.9,1.5,-40.7,0.9,0.07,-0.03,0.43
1697353639.34,0.14,-0.46,0.56,-0.9,0.9,-41.1,0.9,0.07,-0.03,0.43
1697353639.35,0.12,-0.48,0.92,-1.9,0.4,-41.2,0.9,0.07,-0.03,0.42
1697353639.36,0.14,-0.4,1.07,-1.2,0,-41.3,0.9,0.07,-0.03,0.42
1697353639.37,0.26,-0.34,0.93,0,-0.6,-41.3,0.91,0.07,-0.03,0.42
1697353639.38,0.16,-0.49,0.75,0.3,-1.2,-41.2,0.91,0.07,-0.03,0.42
1697353639.39,0.07,-0.5,1.33,1.2,-2.1,-41.1,0.91,0.07,-0.03,0.41
1697353639.4,0.2,-0.6,1.27,2.5,-2.7,-41.3,0.91,0.07,-0.03,0.41
1697353639.41,0.01,-0.57,0.73,1.8,-3.3,-41.8,0.91,0.07,-0.03,0.4
1697353639.42,0.07,-0.58,0.81,0,-3.2,-41.9,0.91,0.07,-0.03,0.4
1697353639.43,0.14,-0.41,0.96,-2,-2.3,-41.5,0.91,0.07,-0.03,0.4
1697353639.44,0.02,-0.41,0.77,-2.1,-1.1,-41.4,0.91,0.07,-0.03,0.4
1697353639.45,0.04,-0.5,1.19,-1,0.4,-41.2,0.92,0.07,-0.03,0.39
1697353639.46,0.09,-0.39,0.81,-0.5,1.9,-41,0.92,0.07,-0.03,0.39
1697353639.47,0,-0.37,0.82,-0.2,3.8,-41.2,0.92,0.07,-0.03,0.39
1697353639.48,0.07,-0.41,0.86,-0.7,4.8,-41.1,0.92,0.07,-0.03,0.38
1697353639.49,0.07,-0.5,1.3,-0.7,5.4,-41.2,0.92,0.07,-0.03,0.38
1697353639.5,0.16,-0.46,0.97,-1.2,5.7,-41.5,0.92,0.07,-0.03,0.38
1697353639.51,0.22,-0.48,1.13,-0.5,4.9,-41.7,0.92,0.07,-0.02,0.37
1697353639.52,0.29,-0.43,0.88,0.1,3.9,-41.8,0.93,0.07,-0.02,0.37
1697353639.53,0.18,-0.62,0.78,0.1,3.9,-41.8,0.93,0.07,-0.02,0.37
1697353639.54,0.26,-0.62,1.31,1.5,1,-42.2,0.93,0.07,-0.02,0.36
1697353639.55,0.26,-0.62,1.31,1.5,1,-42.2,0.93,0.07,-0.02,0.36
1697353639.56,0.24,-0.45,0.67,1.7,-1.2,-42.4,0.93,0.07,-0.02,0.36
1697353639.57,0.24,-0.45,0.67,1.7,-1.2,-42.4,0.93,0.07,-0.02,0.35
1697353639.58,0.17,-0.36,0.93,1.2,-0.8,-42.1,0.93,0.07,-0.02,0.35
1697353639.59,0.11,-0.54,0.62,1.2,-0.8,-42.1,0.94,0.07,-0.02,0.35
1697353639.6,0.11,-0.54,0.62,2.7,0.5,-41.6,0.94,0.07,-0.02,0.34
1697353639.61,0.11,-0.54,0.62,2.7,0.5,-41.6,0.94,0.07,-0.02,0.34
1697353639.62,0.11,-0.54,0.62,2.7,0.5,-41.6,0.94,0.07,-0.02,0.34
1697353639.63,0.11,-0.54,0.62,2.7,0.5,-41.6,0.94,0.07,-0.02,0.34
1697353639.64,0.11,-0.54,0.62,2.7,0.5,-41.6,0.94,0.07,-0.02,0.34
1697353639.65,0.11,-0.54,0.62,2.7,0.5,-41.6,0.94,0.07,-0.02,0.34
1697353639.66,0.11,-0.54,0.62,2.7,0.5,-41.6,0.94,0.07,-0.02,0.34
1697353639.67,0.11,-0.54,0.62,2.7,0.5,-41.6,0.94,0.07,-0.02,0.34
1697353639.68,0.11,-0.54,0.62,2.7,0.5,-41.6,0.94,0.07,-0.02,0.34
1697353639.69,0.11,-0.54,0.62,2.7,0.5,-41.6,0.94,0.07,-0.02,0.34
1697353639.7,0.11,-0.54,0.62,2.7,0.5,-41.6,0.94,0.07,-0.02,0.34
1697353639.71,0.11,-0.54,0.62,2.7,0.5,-41.6,0.94,0.07,-0.02,0.34
1697353639.72,0.11,-0.54,0.62,2.7,0.5,-41.6,0.94,0.07,-0.02,0.34
1697353639.73,0.11,-0.54,0.62,2.7,0.5,-41.6,0.95,0.07,-0.01,0.3
1697353639.74,0.33,-0.24,0.97,-0.4,-4.5,-37.7,0.95,0.07,-0.01,0.3
1697353639.75,0.23,-0.51,1.3,0.7,-4.2,-38.1,0.95,0.07,-0.01,0.29
1697353639.76,0.18,-0.27,0.99,1.5,-3.2,-37.7,0.95,0.07,-0.01,0.29
1697353639.77,0.02,-0.41,1.07,2.8,-1.8,-38.8,0.96,0.08,-0.01,0.28
1697353639.78,0.07,-0.4,1.45,2.3,-0.2,-39,0.96,0.08,-0.01,0.28
1697353639.79,-0.02,-0.49,0.98,1.5,1.5,-39.7,0.96,0.08,-0.01,0.28
1697353639.8,0.12,-0.44,0.8,0.8,2.7,-40.4,0.96,0.08,-0.01,0.28
1697353639.81,0.11,-0.39,0.95,0,3.3,-40.3,0.96,0.08,-0.01,0.27
1697353639.82,0.16,-0.26,1.03,0.2,3.2,-39.9,0.96,0.08,-0.01,0.27
1697353639.83,0.26,-0.44,1.02,0.9,2.4,-38.6,0.96,0.08,-0.01,0.27
1697353639.84,0.29,-0.44,0.84,0.7,1.4,-37.5,0.96,0.08,-0.01,0.26
1697353639.85,0.32,-0.22,0.9,0,0.5,-36.1,0.96,0.08,-0.01,0.26
1697353639.86,0.27,-0.52,0.66,-1.2,-0.7,-34.7,0.96,0.08,-0.01,0.26
1697353639.87,0.2,-0.33,1.1,-1.4,-1.3,-34.1,0.96,0.08,-0.01,0.26
1697353639.88,0.11,-0.35,0.64,-1.8,-1.8,-32.9,0.96,0.08,-0.01,0.25
1697353639.89,-0.01,-0.4,0.79,-0.6,-1.7,-32.5,0.97,0.08,-0.01,0.25
1697353639.9,0.1,-0.36,1.12,0.6,-1.5,-32.2,0.97,0.08,-0.01,0.25
1697353639.91,0.09,-0.45,0.93,1.8,-1,-32.3,0.97,0.08,-0.01,0.24
1697353639.92,0.12,-0.47,1.19,1.3,-0.2,-32.3,0.97,0.08,-0.01,0.24
1697353639.93,0.16,-0.35,0.95,0.2,0.2,-32.5,0.97,0.08,-0.01,0.24
1697353639.94,0.13,-0.26,1.11,-0.4,0.8,-32.5,0.97,0.08,-0.01,0.24
1697353639.95,0.22,-0.6,1.1,-0.6,1.7,-32.1,0.97,0.08,-0.01,0.23
1697353639.96,0.14,-0.28,1.12,-0.3,1.5,-32.6,0.97,0.08,-0.01,0.23
1697353639.97,0.21,-0.35,1.04,-1.4,1.7,-32,0.97,0.08,-0.01,0.23
1697353639.98,0.16,-0.37,1.05,-0.4,1.8,-32.2,0.97,0.08,-0.01,0.22
1697353639.99,0.06,-0.41,0.85,0,1.7,-32,0.97,0.08,-0.01,0.22
1697353640,0,-0.41,1.25,0.2,2,-32,0.97,0.08,-0.01,0.22
1697353640.01,0.17,-0.4,0.62,-0.5,2.3,-31.7,0.97,0.08,-0.01,0.22
1697353640.02,0.11,-0.36,1.08,-1.1,2.5,-31.4,0.97,0.08,-0.01,0.21
1697353640.03,0.19,-0.43,0.91,-1.2,2.7,-30.9,0.97,0.08,-0.01,0.21
1697353640.04,0.21,-0.26,1.01,-0.5,3.3,-30.5,0.98,0.08,-0.01,0.21
1697353640.05,0.21,-0.26,1.01,-0.6,3.2,-29.6,0.98,0.08,-0.01,0.21
1697353640.06,0.16,-0.6,0.88,0.8,2.8,-29.1,0.98,0.08,-0,0.2
1697353640.07,0.12,-0.39,1.26,2,2.2,-29.6,0.98,0.08,-0,0.2
1697353640.08,0.12,-0.39,1.26,2,2.2,-29.6,0.98,0.08,-0,0.2
1697353640.09,0.14,-0.26,0.96,0.3,1.7,-29,0.98,0.08,-0,0.19
1697353640.1,0.14,-0.26,0.96,0,1.8,-29.1,0.98,0.08,-0,0.19
1697353640.11,0.12,-0.08,0.83,-0.7,2.1,-28.5,0.98,0.08,-0,0.19
1697353640.12,0.12,-0.08,0.83,0.7,1.8,-28.6,0.98,0.08,-0,0.19
1697353640.13,0.12,-0.08,0.83,0.7,1.8,-28.6,0.98,0.08,-0,0.19
1697353640.14,0.12,-0.08,0.83,0.7,1.8,-28.6,0.98,0.08,-0,0.19
1697353640.15,0.12,-0.08,0.83,0.7,1.8,-28.6,0.98,0.08,-0,0.19
1697353640.16,0.12,-0.08,0.83,0.7,1.8,-28.6,0.98,0.08,-0,0.19
1697353640.17,0.12,-0.08,0.83,0.7,1.8,-28.6,0.98,0.08,-0,0.19
1697353640.18,0.12,-0.08,0.83,0.7,1.8,-28.6,0.98,0.08,-0,0.19
1697353640.19,0.12,-0.08,0.83,0.7,1.8,-28.6,0.98,0.08,-0,0.19
1697353640.2,0.12,-0.08,0.83,0.7,1.8,-28.6,0.98,0.08,-0,0.19
1697353640.21,0.12,-0.08,0.83,0.7,1.8,-28.6,0.98,0.08,-0,0.19
1697353640.22,0.12,-0.08,0.83,0.7,1.8,-28.6,0.98,0.08,-0,0.19
1697353640.23,0.12,-0.08,0.83,0.7,1.8,-28.6,0.98,0.08,-0,0.19
1697353640.24,0.12,-0.08,0.83,0.7,1.8,-28.6,0.98,0.08,-0,0.19
1697353640.25,0.12,-0.08,0.83,0.7,1.8,-28.6,0.98,0.08,-0,0.19
1697353640.26,0.1,0.14,1.01,0.2,2.1,-18.1,0.98,0.08,0,0.16
1697353640.27,0.16,-0.09,1.01,0.2,2.8,-16.2,0.98,0.08,0,0.16
1697353640.28,0.15,-0.26,1.08,1.1,3.2,-16.8,0.99,0.08,0,0.15
1697353640.29,0.06,-0.09,1.01,-0.7,3.9,-15.5,0.99,0.08,0,0.15
1697353640.3,0.14,-0.29,1.07,-0.9,3.9,-15.8,0.99,0.08,0,0.15
1697353640.31,0.21,0.09,1.26,-0.9,3.4,-15.2,0.99,0.08,0,0.15
1697353640.32,-0.02,-0.18,1.18,0,3,-14.2,0.99,0.08,0,0.15
1697353640.33,0.26,0.03,1.09,1.1,2.6,-13.8,0.99,0.08,0.01,0.15
1697353640.34,0.22,0.03,0.91,2.9,1.3,-11.4,0.99,0.08,0.01,0.15
1697353640.35,0.28,-0.03,0.87,3.7,0.5,-10.1,0.99,0.08,0.01,0.15
1697353640.36,0.15,-0.13,0.93,1.7,-0.4,-8.8,0.99,0.08,0.01,0.14
1697353640.37,0.28,-0.1,0.94,1.1,-1,-9,0.99,0.08,0.01,0.14
1697353640.38,0.32,-0.08,0.91,0.7,-2,-7.9,0.99,0.08,0.01,0.14
1697353640.39,0.32,-0.08,0.91,0.7,-2,-7.9,0.99,0.08,0.01,0.14
1697353640.4,0.12,-0.08,0.98,2.7,-2.5,-8,0.99,0.08,0.01,0.14
1697353640.41,0.12,-0.08,0.98,0.1,-2.5,-6.7,0.99,0.08,0,0.14
1697353640.42,0.18,0.16,0.99,0.8,-1.8,-5.6,0.99,0.08,0,0.14
1697353640.43,0.18,0.16,0.99,0.8,-1.8,-5.6,0.99,0.08,0,0.14
1697353640.44,0.13,0.1,1.09,2,-2.1,-4.9,0.99,0.08,0,0.14
1697353640.45,0.13,0.1,1.09,2.4,-1.9,-4.9,0.99,0.08,0,0.14
1697353640.46,0.15,-0.03,0.85,4.2,-2,-4.5,0.99,0.08,0,0.14
1697353640.47,0.16,-0.13,1.23,3.3,-1.5,-4.8,0.99,0.08,0,0.14
1697353640.48,0.12,0.01,1.09,0.7,-1.1,-5.5,0.99,0.08,0,0.14
1697353640.49,0.21,0.11,0.72,-1.5,-0.6,-5.3,0.99,0.08,0,0.14
1697353640.5,0.05,0.08,1.3,-1.2,-0.6,-5.8,0.99,0.08,0,0.14
1697353640.51,0.14,0.04,0.95,-1.1,-0.3,-5.2,0.99,0.08,0,0.14
1697353640.52,0.11,0.13,0.79,-0.3,0,-4.6,0.99,0.08,0,0.14
1697353640.53,0.17,-0.05,0.93,0.2,1.8,-4,0.99,0.08,0,0.14
1697353640.54,0.15,-0.13,1.06,-0.3,2.1,-4,0.99,0.08,0,0.14
1697353640.55,0.13,-0.09,0.95,-1.8,1.6,-3.6,0.99,0.08,0,0.14
1697353640.56,0.2,-0.08,0.94,-2,0.4,-3.9,0.99,0.08,0,0.14
1697353640.57,0.19,-0.1,1.18,-2.5,-0.2,-3.9,0.99,0.08,0,0.13
1697353640.58,0.19,-0.1,1.18,-2.5,-0.2,-3.9,0.99,0.08,0,0.13
1697353640.59,0.24,-0.08,0.86,-1.6,-2.3,-3.6,0.99,0.08,0,0.13
1697353640.6,0.18,-0.02,1.28,-0.9,-3.8,-3.4,0.99,0.08,0,0.13
1697353640.61,0.16,-0.08,0.87,-0.7,-4.9,-3.3,0.99,0.08,0,0.13
1697353640.62,0.19,-0.04,0.99,0.3,-4.7,-3.3,0.99,0.08,0,0.13
1697353640.63,0.17,-0.03,1.1,0.3,-4.7,-3.3,0.99,0.08,0,0.13
1697353640.64,0.04,0.03,0.97,1,-3.9,-2.9,0.99,0.08,0,0.13
1697353640.65,0.04,0.03,0.97,1,-3.9,-2.9,0.99,0.08,0,0.13
1697353640.66,0.04,0.03,0.97,1,-3.9,-2.9,0.99,0.08,0,0.13
1697353640.67,0.04,0.03,0.97,1,-3.9,-2.9,0.99,0.08,0,0.13
1697353640.68,0.04,0.03,0.97,1,-3.9,-2.9,0.99,0.08,0,0.13
1697353640.69,0.04,0.03,0.97,1,-3.9,-2.9,0.99,0.08,0,0.13
1697353640.7,0.04,0.03,0.97,1,-3.9,-2.9,0.99,0.08,0,0.13
1697353640.71,0.04,0.03,0.97,1,-3.9,-2.9,0.99,0.08,0,0.13
1697353640.72,0.04,0.03,0.97,1,-3.9,-2.9,0.99,0.08,0,0.13
1697353640.73,0.04,0.03,0.97,1,-3.9,-2.9,0.99,0.08,0,0.13
1697353640.74,0.04,0.03,0.97,1,-3.9,-2.9,0.99,0.08,0,0.13
1697353640.75,0.04,0.03,0.97,1,-3.9,-2.9,0.99,0.08,0,0.13
1697353640.76,0.04,0.03,0.97,1,-3.9,-2.9,0.99,0.08,0,0.13
1697353640.77,0.04,0.03,0.97,1,-3.9,-2.9,0.99,0.08,0,0.13
1697353640.78,0.04,0.03,0.97,1,-3.9,-2.9,0.99,0.08,0,0.13
1697353640.79,0.04,0.03,0.97,1,-3.9,-2.9,0.99,0.08,0,0.13
1697353640.8,0.04,0.03,0.97,1,-3.9,-2.9,0.99,0.08,0,0.13
1697353640.81,0.04,0.03,0.97,1,-3.9,-2.9,0.99,0.08,0,0.13
1697353640.82,0.04,0.03,0.97,1,-3.9,-2.9,0.99,0.08,0,0.13
1697353640.83,0.04,0.03,0.97,1,-3.9,-2.9,0.99,0.08,0,0.13
1697353640.84,0.04,0.03,0.97,1,-3.9,-2.9,0.99,0.08,0,0.13
1697353640.85,0.04,0.03,0.97,1,-3.9,-2.9,0.99,0.08,0,0.13
1697353640.86,0.04,0.03,0.97,1,-3.9,-2.9,0.99,0.08,0,0.13
1697353640.87,0.04,0.03,0.97,1,-3.9,-2.9,0.99,0.08,0,0.13
1697353640.88,0.04,0.03,0.97,1,-3.9,-2.9,0.99,0.08,0,0.13
1697353640.89,0.04,0.03,0.97,1,-3.9,-2.9,0.99,0.08,0,0.13
1697353640.9,0.04,0.03,0.97,1,-3.9,-2.9,0.99,0.08,0,0.13
1697353640.91,0.04,0.03,0.97,1,-3.9,-2.9,0.99,0.08,0,0.13
1697353640.92,0.04,0.03,0.97,1,-3.9,-2.9,0.99,0.08,0,0.13
1697353640.93,0.04,0.03,0.97,1,-3.9,-2.9,0.99,0.08,0,0.13
1697353640.94,0.04,0.03,0.97,1,-3.9,-2.9,0.99,0.08,0,0.13
1697353640.95,0.04,0.03,0.97,1,-3.9,-2.9,0.99,0.08,0,0.13
1697353640.96,0.04,0.03,0.97,1,-3.9,-2.9,0.99,0.08,0,0.13
1697353640.97,0.04,0.03,0.97,1,-3.9,-2.9,0.99,0.08,0,0.13
1697353640.98,0.04,0.03,0.97,1,-3.9,-2.9,0.99,0.08,0,0.13
1697353640.99,0.04,0.03,0.97,1,-3.9,-2.9,0.99,0.08,0,0.13
1697353641,0.04,0.03,0.97,1,-3.9,-2.9,0.99,0.08,0,0.13
1697353641.01,0.04,0.03,0.97,1,-3.9,-2.9,0.99,0.08,0,0.13
1697353641.02,0.04,0.03,0.97,1,-3.9,-2.9,0.99,0.08,0,0.13
1697353641.03,0.04,0.03,0.97,1,-3.9,-2.9,0.99,0.08,0,0.13
1697353641.04,0.04,0.03,0.97,1,-3.9,-2.9,0.99,0.08,0,0.13
1697353641.05,0.04,0.03,0.97,1,-3.9,-2.9,0.99,0.08,0,0.13
1697353641.06,0.04,0.03,0.97,1,-3.9,-2.9,0.99,0.08,0,0.13
1697353641.07,-0.19,0.12,1.43,1.9,2.6,5.6,0.99,0.08,0,0.14
1697353641.08,-0.19,0.12,1.43,1.9,2.6,5.6,0.99,0.08,0,0.14
1697353641.09,-0.1,0.01,1.05,-0.8,3.7,5.3,0.99,0.08,0,0.14
1697353641.1,-0.19,0.17,1.39,-0.8,3.7,5.3,0.99,0.08,0,0.14
1697353641.11,-0.08,0.13,1.08,0,3.2,6,0.99,0.08,0.01,0.14
1697353641.12,-0.08,0.08,0.96,-2.4,2.6,6.5,0.99,0.08,0.01,0.14
1697353641.13,-0.08,0.08,0.96,-2.4,2.6,6.5,0.99,0.08,0.01,0.14
1697353641.14,-0.07,0.32,1.38,-0.4,-0.4,7.9,0.99,0.08,0.01,0.14
1697353641.15,-0.07,0.32,1.38,-0.4,-0.4,7.9,0.99,0.08,0.01,0.14
1697353641.16,0.05,0.16,0.87,0.4,-1.5,8.6,0.99,0.08,0.01,0.14
1697353641.17,-0.1,0.22,0.95,0.8,-3.6,9.7,0.99,0.08,0,0.14
1697353641.18,-0.17,0.12,1.43,0.2,-4.4,10.2,0.99,0.08,0,0.14
1697353641.19,-0.23,0.09,0.98,-0.8,-4.4,10.3,0.99,0.08,0,0.15
1697353641.2,-0.29,0.12,0.79,-1.6,-3.6,10.2,0.99,0.08,0,0.15
1697353641.21,-0.15,0.15,1.04,-2,-2.9,10.3,0.99,0.08,0,0.15
1697353641.22,-0.22,0.2,1.12,-0.6,-2.4,10,0.99,0.08,0,0.15
1697353641.23,-0.08,0.42,1.27,0,-2.4,10.1,0.99,0.08,0,0.15
1697353641.24,0.01,0.27,0.99,2.2,-2.8,11,0.99,0.08,0,0.15
1697353641.25,-0.07,0.15,1.46,4.3,-3,11.9,0.99,0.08,0,0.15
1697353641.26,-0.02,0.24,0.84,4.6,-4.4,12.7,0.99,0.08,0,0.15
1697353641.27,-0.1,0.23,1.36,3.6,-5.6,13.8,0.99,0.08,0,0.15
1697353641.28,-0.09,0.24,0.7,2.1,-6.6,14.5,0.98,0.08,0,0.15
1697353641.29,-0.04,0.43,1.34,0.1,-6.5,15.5,0.98,0.08,-0,0.16
1697353641.3,-0.14,0.31,0.71,-0.9,-5.9,15.8,0.98,0.08,-0,0.16
1697353641.31,-0.12,0.43,1.23,-1.1,-4.9,16.4,0.98,0.08,-0,0.16
1697353641.32,-0.08,0.37,0.78,0,-3.7,16.9,0.98,0.08,-0,0.16
1697353641.33,-0.14,0.38,1.28,0.5,-2.7,17.4,0.98,0.08,-0,0.16
1697353641.34,-0.08,0.39,0.77,-0.9,-2.4,18,0.98,0.08,-0,0.16
1697353641.35,-0.08,0.39,1.21,-0.9,-1.6,18.2,0.98,0.08,-0,0.16
1697353641.36,-0.03,0.31,1.11,-1.2,-0.6,18.5,0.98,0.08,-0,0.17
1697353641.37,-0.06,0.34,0.89,-1.5,0,18.9,0.98,0.08,-0,0.17
1697353641.38,-0.09,0.3,1.07,-0.4,0.6,19.1,0.98,0.08,-0,0.17
1697353641.39,-0.1,0.21,1.19,0.2,0.9,19.1,0.98,0.08,-0,0.17
1697353641.4,-0.1,0.21,1.19,0.2,0.9,19.1,0.98,0.08,-0,0.17
1697353641.41,0.08,0.17,1.05,-2.7,0.1,18.8,0.98,0.08,-0,0.18
1697353641.42,0.06,0.22,0.85,-2,-0.3,18.5,0.98,0.08,-0,0.18
1697353641.43,-0.05,0.44,0.93,-2,-0.3,18.5,0.98,0.08,-0,0.18
1697353641.44,-0.18,0.22,1.22,1.7,0.5,18.2,0.98,0.08,-0,0.18
1697353641.45,-0.29,0.25,0.77,2.2,1.8,17.8,0.98,0.08,-0,0.18
1697353641.46,-0.32,0.14,1.24,0.5,3,17.4,0.98,0.08,-0,0.18
1697353641.47,-0.32,0.14,1.24,0.5,3,17.4,0.98,0.08,-0,0.18
1697353641.48,-0.32,0.14,1.24,0.5,3,17.4,0.98,0.08,-0,0.18
1697353641.49,-0.32,0.14,1.24,0.5,3,17.4,0.98,0.08,-0,0.18
1697353641.5,-0.32,0.14,1.24,0.5,3,17.4,0.98,0.08,-0,0.18
1697353641.51,-0.32,0.14,1.24,0.5,3,17.4,0.98,0.08,-0,0.18
1697353641.52,-0.32,0.14,1.24,0.5,3,17.4,0.98,0.08,-0,0.18
1697353641.53,-0.32,0.14,1.24,0.5,3,17.4,0.98,0.08,-0,0.18
1697353641.54,-0.32,0.14,1.24,0.5,3,17.4,0.98,0.08,-0,0.18
1697353641.55,-0.32,0.14,1.24,0.5,3,17.4,0.98,0.08,-0,0.18
1697353641.56,-0.32,0.14,1.24,0.5,3,17.4,0.98,0.08,-0,0.18
1697353641.57,-0.32,0.14,1.24,0.5,3,17.4,0.98,0.08,-0,0.18
1697353641.58,-0.32,0.14,1.24,0.5,3,17.4,0.98,0.08,-0,0.18
1697353641.59,-0.32,0.14,1.24,0.5,3,17.4,0.98,0.08,-0,0.18
1697353641.6,-0.14,0.34,1.11,2.1,-2.5,19.5,0.98,0.08,-0,0.18
1697353641.61,-0.15,0.22,1.28,-0.2,-3,19.8,0.98,0.08,-0.01,0.21
1697353641.62,-0.13,0.39,1.05,0,-2.3,20.9,0.97,0.08,-0.01,0.21
1697353641.63,-0.13,0.39,1.05,0,-2.3,20.9,0.97,0.08,-0.01,0.21
1697353641.64,-0.19,0.33,1,4,0.4,21.5,0.97,0.08,-0.01,0.21
1697353641.65,-0.19,0.33,1,4,0.4,21.5,0.97,0.08,-0.01,0.21
1697353641.66,-0.17,0.17,1.08,2.8,1.6,22,0.97,0.08,-0.01,0.22
1697353641.67,-0.17,0.17,1.08,2.8,1.6,22,0.97,0.08,-0.01,0.22
1697353641.68,-0.23,0.3,0.94,-0.4,2.3,21.9,0.97,0.08,-0.01,0.22
1697353641.69,-0.16,0.52,0.9,-3,4.2,21.4,0.97,0.08,-0.01,0.22
1697353641.7,-0.15,0.59,1.5,-0.4,4.2,21.3,0.97,0.08,-0.01,0.22
1697353641.71,-0.15,0.59,1.5,-0.4,4.2,21.3,0.97,0.08,-0.01,0.22
1697353641.72,0.03,0.21,1.07,5.1,1.8,22.1,0.97,0.08,-0.01,0.23
1697353641.73,0.03,0.21,1.07,5.1,1.8,22.1,0.97,0.08,-0.01,0.23
1697353641.74,0.02,0.28,0.79,-1.8,-0.1,22.4,0.97,0.08,-0.01,0.23
1697353641.75,0.02,0.28,0.79,-1.8,-0.1,22.4,0.97,0.08,-0.01,0.23
1697353641.76,-0.12,0.4,1.01,-5.4,0,23.5,0.97,0.08,-0.01,0.23
1697353641.77,-0.08,0.51,1.1,-3.8,0.6,24.5,0.97,0.08,-0.01,0.24
1697353641.78,-0.08,0.51,1.1,-3.8,0.6,24.5,0.97,0.08,-0.01,0.24
1697353641.79,-0.08,0.51,1.1,-3.8,0.6,24.5,0.97,0.08,-0.01,0.24
1697353641.8,-0.08,0.51,1.1,-3.8,0.6,24.5,0.97,0.08,-0.01,0.24
1697353641.81,-0.08,0.51,1.1,-3.8,0.6,24.5,0.97,0.08,-0.01,0.24
1697353641.82,-0.08,0.51,1.1,-3.8,0.6,24.5,0.97,0.08,-0.01,0.24
1697353641.83,-0.08,0.51,1.1,-3.8,0.6,24.5,0.97,0.08,-0.01,0.24
1697353641.84,-0.08,0.51,1.1,-3.8,0.6,24.5,0.97,0.08,-0.01,0.24
1697353641.85,-0.08,0.51,1.1,-3.8,0.6,24.5,0.97,0.08,-0.01,0.24
1697353641.86,-0.08,0.51,1.1,-3.8,0.6,24.5,0.97,0.08,-0.01,0.24
1697353641.87,-0.08,0.51,1.1,-3.8,0.6,24.5,0.97,0.08,-0.01,0.24
1697353641.88,-0.12,0.36,0.85,1.8,2,29.6,0.96,0.08,-0.01,0.26
1697353641.89,-0.22,0.32,1.06,0.9,2,29.1,0.96,0.08,-0.01,0.27
1697353641.9,-0.07,0.47,1.07,0.3,1.5,29.3,0.96,0.08,-0.01,0.27
1697353641.91,-0.1,0.48,1.02,1.3,1,29.7,0.96,0.08,-0.01,0.27
1697353641.92,-0.15,0.52,1.02,2.6,0.4,30.1,0.96,0.08,-0.01,0.27
1697353641.93,-0.11,0.48,1.06,2.6,0.4,30.9,0.96,0.08,-0.01,0.27
1697353641.94,-0.13,0.34,1.01,0.9,1,31.2,0.96,0.08,-0.01,0.28
1697353641.95,-0.03,0.34,1.06,-1.8,1.2,31.7,0.96,0.08,-0.01,0.28
1697353641.96,-0.08,0.42,1.12,-2.3,1.2,31.5,0.96,0.08,-0.01,0.28
1697353641.97,-0.08,0.42,1.12,-2.3,1.2,31.5,0.96,0.08,-0.01,0.28
1697353641.98,-0.06,0.48,0.82,0.7,0.6,32.1,0.95,0.08,-0.01,0.29
1697353641.99,-0.09,0.5,0.94,0.8,0.8,32.1,0.95,0.08,-0.01,0.29
1697353642,-0.05,0.41,1.16,0.8,0.8,32.1,0.95,0.08,-0.01,0.29
1697353642.01,-0.05,0.47,0.84,0.4,0.7,32.3,0.95,0.08,-0.01,0.3
1697353642.02,-0.1,0.49,0.68,0.4,1.2,33.3,0.95,0.08,-0.01,0.3
1697353642.03,-0.13,0.5,0.94,0.4,1.2,33.3,0.95,0.08,-0.01,0.3
1697353642.04,-0.14,0.71,1.05,3.4,1.7,35.3,0.95,0.08,-0.01,0.3
1697353642.05,-0.14,0.71,1.05,3.4,1.7,35.3,0.95,0.08,-0.01,0.31
1697353642.06,-0.21,0.54,0.99,4.4,1.8,36.3,0.95,0.08,-0.01,0.31
1697353642.07,-0.21,0.54,0.99,4.2,1.5,37.2,0.95,0.08,-0.01,0.31
1697353642.08,-0.21,0.54,0.98,1.8,1.1,38.9,0.95,0.08,-0.01,0.32
1697353642.09,-0.21,0.54,0.98,-0.1,0.6,40,0.94,0.08,-0.01,0.32
1697353642.1,-0.21,0.67,0.97,-1.3,0.3,41.4,0.94,0.08,-0.01,0.32
1697353642.11,-0.14,0.69,0.75,-0.9,0.5,43,0.94,0.08,-0.01,0.33
1697353642.12,-0.26,0.72,1.02,0.4,0.7,44.1,0.94,0.08,-0.01,0.33
1697353642.13,-0.1,0.78,1.17,2,1,45.2,0.94,0.08,-0.01,0.33
1697353642.14,-0.13,0.64,0.94,3.6,1.3,45.4,0.94,0.08,-0.01,0.34
1697353642.15,-0.14,0.59,0.88,4.1,1.8,45.6,0.94,0.08,-0.01,0.34
1697353642.16,-0.19,0.55,1.17,3,2.4,45.6,0.94,0.08,-0.01,0.35
1697353642.17,-0.2,0.52,1.09,1.2,2.6,45.6,0.93,0.08,-0.01,0.35
1697353642.18,-0.07,0.61,1.16,-0.9,2.6,46,0.93,0.08,-0.01,0.35
1697353642.19,-0.06,0.78,0.73,-0.4,2.2,47,0.93,0.08,-0.01,0.36
1697353642.2,-0.13,0.91,0.77,2.3,1.7,48.1,0.93,0.08,-0.01,0.36
1697353642.21,-0.22,0.91,1.24,3.2,1.6,48.6,0.93,0.08,-0.01,0.36
1697353642.22,-0.16,0.73,0.92,6.2,1.5,50.2,0.93,0.08,-0.01,0.37
1697353642.23,-0.09,0.63,0.94,6.9,1.3,51.4,0.93,0.08,-0.01,0.37
1697353642.24,-0.1,0.65,0.97,6.9,1.3,51.4,0.93,0.08,-0.01,0.37
1697353642.25,-0.18,0.7,1.02,-2.1,0.3,53.9,0.92,0.08,-0.01,0.38
1697353642.26,-0.18,0.7,1.02,-2.1,0.3,53.9,0.92,0.08,-0.01,0.38
1697353642.27,-0.18,0.85,0.78,-2.1,0.2,54.8,0.92,0.08,-0.01,0.39
1697353642.28,-0.18,0.85,0.78,-2.1,0.2,54.8,0.92,0.08,-0.01,0.39
1697353642.29,-0.18,0.85,0.78,-2.1,0.2,54.8,0.92,0.08,-0.01,0.39
1697353642.3,-0.18,0.85,0.78,-2.1,0.2,54.8,0.92,0.08,-0.01,0.39
1697353642.31,-0.18,0.85,0.78,-2.1,0.2,54.8,0.92,0.08,-0.01,0.39
1697353642.32,-0.18,0.85,0.78,-2.1,0.2,54.8,0.92,0.08,-0.01,0.39
1697353642.33,-0.18,0.85,0.78,-2.1,0.2,54.8,0.92,0.08,-0.01,0.39
1697353642.34,-0.18,0.85,0.78,-2.1,0.2,54.8,0.92,0.08,-0.01,0.39
1697353642.35,-0.18,0.85,0.78,-2.1,0.2,54.8,0.92,0.08,-0.01,0.39
1697353642.36,-0.18,0.85,0.78,-2.1,0.2,54.8,0.92,0.08,-0.01,0.39
1697353642.37,-0.18,0.85,0.78,-2.1,0.2,54.8,0.92,0.08,-0.01,0.39
1697353642.38,-0.18,0.85,0.78,-2.1,0.2,54.8,0.92,0.08,-0.01,0.39
1697353642.39,-0.18,0.85,0.78,-2.1,0.2,54.8,0.92,0.08,-0.01,0.39
1697353642.4,-0.18,0.85,0.78,-2.1,0.2,54.8,0.92,0.08,-0.01,0.39
1697353642.41,-0.12,0.71,0.94,-1.1,-1,59.1,0.89,0.08,-0.02,0.46
1697353642.42,-0.12,0.71,0.94,-1.1,-1,59.1,0.89,0.08,-0.02,0.46
1697353642.43,-0.07,0.78,0.71,-0.8,-1.1,59.3,0.88,0.08,-0.02,0.46
1697353642.44,-0.15,0.7,0.96,0,-1.5,59.3,0.88,0.08,-0.02,0.47
1697353642.45,-0.07,0.69,0.91,1.3,-1.4,59,0.88,0.08,-0.02,0.47
1697353642.46,-0.26,0.64,1.34,2.2,-0.7,58.6,0.88,0.08,-0.02,0.48
1697353642.47,-0.26,0.64,1.34,2.2,-0.7,58.6,0.87,0.08,-0.02,0.48
1697353642.48,-0.12,0.64,0.86,2,-0.5,58.4,0.87,0.08,-0.02,0.48
1697353642.49,0.15,0.6,0.74,1.6,0.2,58.2,0.87,0.08,-0.02,0.49
1697353642.5,0.15,0.68,1.34,0.2,0.4,57.1,0.87,0.08,-0.02,0.49
1697353642.51,0.29,0.65,0.77,-1.2,-0.2,56.5,0.87,0.08,-0.02,0.49
1697353642.52,0.17,0.76,1.04,-1,-0.8,56.1,0.86,0.08,-0.02,0.5
1697353642.53,0.13,0.73,0.8,-0.9,-0.7,55.9,0.86,0.08,-0.02,0.51
1697353642.54,-0.12,0.91,1.2,-0.3,-0.2,55.9,0.86,0.08,-0.02,0.51
1697353642.55,-0.22,0.74,1.04,-0.3,0.6,57.7,0.85,0.08,-0.02,0.52
1697353642.56,-0.24,0.81,1.07,0.4,1.1,58.5,0.85,0.08,-0.02,0.52
1697353642.57,-0.17,0.72,1.11,0,2.3,59.9,0.85,0.08,-0.02,0.52
1697353642.58,0.03,0.7,0.72,-0.2,2.3,61,0.84,0.08,-0.02,0.53
1697353642.59,-0.04,0.7,1.14,-0.1,1.4,61.1,0.84,0.08,-0.02,0.53
1697353642.6,0.13,0.68,1.19,0,-0.7,60.1,0.84,0.08,-0.02,0.54
1697353642.61,0.25,0.7,0.84,0.4,-1.6,59,0.84,0.08,-0.02,0.54
1697353642.62,0.14,0.71,1.19,1.4,-2.2,57.8,0.83,0.08,-0.02,0.55
1697353642.63,0.08,0.69,0.97,1.1,-2.4,57.2,0.83,0.08,-0.03,0.55
1697353642.64,0.18,0.75,0.72,1.2,-2.3,56.9,0.83,0.08,-0.03,0.56
1697353642.65,-0.04,0.78,1.29,0.9,-1.8,57.4,0.82,0.08,-0.03,0.56
1697353642.66,-0.2,0.66,0.85,0.8,-0.4,58,0.82,0.08,-0.03,0.56
1697353642.67,-0.12,0.76,0.61,0.5,0.5,59,0.82,0.08,-0.03,0.57
1697353642.68,-0.12,0.76,0.61,0.5,0.5,59,0.82,0.08,-0.03,0.57
1697353642.69,0.01,0.78,0.73,1.2,2.8,60.1,0.81,0.08,-0.03,0.58
1697353642.7,0.01,0.78,0.73,1.2,2.8,60.1,0.81,0.08,-0.03,0.58
1697353642.71,0.14,0.78,0.92,0.8,2.2,60,0.81,0.08,-0.03,0.59
1697353642.72,0.23,0.7,0.95,0.8,2.2,60,0.81,0.08,-0.03,0.59
1697353642.73,0.14,0.75,1.06,0,0.6,59,0.8,0.08,-0.03,0.59
1697353642.74,0.06,0.77,1.05,-0.3,0.5,59,0.8,0.08,-0.03,0.59
1697353642.75,0.07,0.83,0.83,-0.4,0.5,59,0.8,0.08,-0.03,0.6
1697353642.76,-0.03,0.85,1.07,-0.4,0.5,59,0.79,0.07,-0.03,0.6
1697353642.77,-0.05,0.8,0.99,-0.4,0.8,60.1,0.79,0.07,-0.03,0.61
1697353642.78,-0.05,0.8,0.99,-0.4,0.8,60.1,0.79,0.07,-0.03,0.61
1697353642.79,-0.06,0.76,1.04,-0.7,1.1,61,0.78,0.07,-0.03,0.62
1697353642.8,0.02,0.81,0.81,-0.7,1.1,61,0.78,0.07,-0.03,0.62
1697353642.81,0.02,0.81,0.81,-0.7,1.1,61,0.78,0.07,-0.03,0.62
1697353642.82,0.02,0.81,0.81,-0.7,1.1,61,0.78,0.07,-0.03,0.62
1697353642.83,0.02,0.81,0.81,-0.7,1.1,61,0.78,0.07,-0.03,0.62
1697353642.84,0.02,0.81,0.81,-0.7,1.1,61,0.78,0.07,-0.03,0.62
1697353642.85,0.02,0.81,0.81,-0.7,1.1,61,0.78,0.07,-0.03,0.62
1697353642.86,0.02,0.81,0.81,-0.7,1.1,61,0.78,0.07,-0.03,0.62
1697353642.87,0.02,0.81,0.81,-0.7,1.1,61,0.78,0.07,-0.03,0.62
1697353642.88,0.02,0.81,0.81,-0.7,1.1,61,0.78,0.07,-0.03,0.62
1697353642.89,0.02,0.81,0.81,-0.7,1.1,61,0.78,0.07,-0.03,0.62
1697353642.9,0.02,0.81,0.81,-0.7,1.1,61,0.78,0.07,-0.03,0.62
1697353642.91,0.02,0.81,0.81,-0.7,1.1,61,0.78,0.07,-0.03,0.62
1697353642.92,0.02,0.81,0.81,-0.7,1.1,61,0.78,0.07,-0.03,0.62
1697353642.93,0.02,0.81,0.81,-0.7,1.1,61,0.78,0.07,-0.03,0.62
1697353642.94,0.18,0.85,0.96,-1.5,2,61.2,0.73,0.07,-0.03,0.68
1697353642.95,0.03,0.9,0.92,-0.6,1.9,61,0.73,0.07,-0.03,0.68
1697353642.96,0.05,0.82,1.06,0.8,1.7,60.9,0.72,0.07,-0.04,0.69
1697353642.97,0.1,0.73,1.03,1.9,1.1,60.8,0.72,0.07,-0.04,0.69
1697353642.98,0.03,0.68,1.04,1.4,0.8,60.5,0.72,0.07,-0.04,0.69
1697353642.99,0,0.63,1.1,-0.7,0.4,60.3,0.71,0.07,-0.04,0.7
1697353643,-0.08,0.73,0.81,-2.3,0.3,59.7,0.71,0.07,-0.04,0.7
1697353643.01,-0.02,0.82,1.06,-2.5,0.5,59.1,0.7,0.07,-0.04,0.71
1697353643.02,0.06,0.71,0.92,0.9,0.8,57.9,0.7,0.07,-0.04,0.71
1697353643.03,0.01,0.66,0.84,0.9,0.5,57.3,0.7,0.07,-0.04,0.71
1697353643.04,0.19,0.68,0.84,0.5,0.4,56.5,0.69,0.07,-0.04,0.72
1697353643.05,0.04,0.63,1.03,0.5,0.4,56.5,0.69,0.07,-0.04,0.72
1697353643.06,0.16,0.71,0.82,-0.5,0.1,55.1,0.69,0.07,-0.04,0.72
1697353643.07,0.11,0.7,0.97,-0.2,0,54.7,0.68,0.07,-0.04,0.73
1697353643.08,0.11,0.7,0.97,-0.2,0,54.7,0.68,0.07,-0.04,0.73
1697353643.09,0.09,0.75,1.05,0.7,1.7,54.6,0.67,0.07,-0.04,0.73
1697353643.1,0.09,0.75,1.05,0.7,1.7,54.6,0.67,0.07,-0.04,0.73
1697353643.11,-0.06,0.65,0.94,-0.2,3.6,54.7,0.67,0.07,-0.04,0.74
1697353643.12,0.26,0.68,0.57,0.1,3.9,54.7,0.66,0.07,-0.04,0.74
1697353643.13,0.26,0.68,0.57,0.1,3.9,54.7,0.66,0.07,-0.04,0.74
1697353643.14,0.16,0.66,1.28,-0.1,3.3,54,0.66,0.07,-0.04,0.75
1697353643.15,0.15,0.54,0.73,-0.9,2.8,53.2,0.66,0.06,-0.04,0.75
1697353643.16,0.15,0.54,0.73,-0.9,2.8,53.2,0.65,0.06,-0.04,0.75
1697353643.17,0.15,0.54,1.41,-1.3,1.9,51.8,0.65,0.06,-0.04,0.76
1697353643.18,0.23,0.63,1.03,-1.2,1.3,50.6,0.65,0.06,-0.04,0.76
1697353643.19,0.13,0.57,1.2,-0.2,0.2,49.4,0.64,0.06,-0.04,0.76
1697353643.2,0.14,0.62,0.83,0.1,-0.6,48.2,0.64,0.06,-0.04,0.77
1697353643.21,0.12,0.59,1.07,-0.2,-1.1,47.1,0.64,0.06,-0.04,0.77
1697353643.22,0.21,0.58,0.89,-0.6,-1.2,46.2,0.63,0.06,-0.04,0.77
1697353643.23,0.02,0.57,0.9,-1.1,-0.8,45.8,0.63,0.06,-0.04,0.77
1697353643.24,0.15,0.6,0.76,-1.4,-0.3,45.4,0.63,0.06,-0.04,0.78
1697353643.25,0.08,0.68,0.97,-0.6,0.1,44.8,0.62,0.06,-0.04,0.78
1697353643.26,0.11,0.69,0.88,0.6,0.7,44.9,0.62,0.06,-0.04,0.78
1697353643.27,0.14,0.62,0.79,1.6,1.1,44.8,0.62,0.06,-0.04,0.78
1697353643.28,0.1,0.57,1.26,1.4,1.4,45,0.61,0.06,-0.04,0.79
1697353643.29,0.18,0.58,0.87,0.3,1.2,45.5,0.61,0.06,-0.04,0.79
1697353643.3,0.1,0.49,0.92,-0.1,1.2,45.9,0.61,0.06,-0.04,0.79
1697353643.31,0.06,0.63,1.12,0,0.9,46.6,0.6,0.06,-0.04,0.79
1697353643.32,0.14,0.57,1.1,0,0.6,46.6,0.6,0.06,-0.04,0.8
1697353643.33,0.14,0.57,1.1,0,0.6,46.6,0.6,0.06,-0.04,0.8
1697353643.34,0.11,0.49,0.86,-0.1,0.5,46.6,0.6,0.06,-0.04,0.8
1697353643.35,0.11,0.49,0.86,-0.1,0.5,46.6,0.6,0.06,-0.04,0.8
1697353643.36,0.11,0.49,0.86,-0.1,0.5,46.6,0.6,0.06,-0.04,0.8
1697353643.37,0.11,0.49,0.86,-0.1,0.5,46.6,0.6,0.06,-0.04,0.8
1697353643.38,0.11,0.49,0.86,-0.1,0.5,46.6,0.6,0.06,-0.04,0.8
1697353643.39,0.11,0.49,0.86,-0.1,0.5,46.6,0.6,0.06,-0.04,0.8
1697353643.4,0.11,0.49,0.86,-0.1,0.5,46.6,0.6,0.06,-0.04,0.8
1697353643.41,0.11,0.49,0.86,-0.1,0.5,46.6,0.6,0.06,-0.04,0.8
1697353643.42,0.11,0.49,0.86,-0.1,0.5,46.6,0.6,0.06,-0.04,0.8
1697353643.43,0.11,0.49,0.86,-0.1,0.5,46.6,0.6,0.06,-0.04,0.8
1697353643.44,0.11,0.49,0.86,-0.1,0.5,46.6,0.6,0.06,-0.04,0.8
1697353643.45,0.11,0.49,0.86,-0.1,0.5,46.6,0.6,0.06,-0.04,0.8
1697353643.46,0.11,0.49,0.86,-0.1,0.5,46.6,0.6,0.06,-0.04,0.8
1697353643.47,0.11,0.49,0.86,-0.1,0.5,46.6,0.6,0.06,-0.04,0.8
1697353643.48,0.11,0.49,0.86,-0.1,0.5,46.6,0.6,0.06,-0.04,0.8
1697353643.49,0.09,0.09,1.01,1,-1.4,27.7,0.56,0.06,-0.05,0.83
1697353643.5,0.16,0.04,1.14,-1.8,-1.3,26.3,0.56,0.06,-0.05,0.83
1697353643.51,0.06,0.06,0.88,-3.7,-0.9,24.7,0.55,0.06,-0.05,0.83
1697353643.52,0.03,0.2,1.11,-3.7,-0.9,24.7,0.55,0.06,-0.05,0.83
1697353643.53,0.05,0.3,1.19,-1.3,1.4,22.2,0.55,0.06,-0.05,0.83
1697353643.54,0.02,0.24,0.82,0.2,2.2,21.1,0.55,0.06,-0.05,0.83
1697353643.55,0.06,0.16,0.9,-0.4,3.2,19.7,0.55,0.06,-0.05,0.83
1697353643.56,0.17,0.03,0.8,-3.3,2.7,17.8,0.55,0.05,-0.05,0.83
1697353643.57,0.2,-0,1.01,-3.3,2.7,17.8,0.55,0.05,-0.05,0.83
1697353643.58,0.18,0.07,1.22,-5.9,2.2,16.2,0.54,0.05,-0.05,0.84
1697353643.59,0.11,0.19,0.92,-6.6,1.6,14.7,0.54,0.05,-0.05,0.84
1697353643.6,0.11,0.07,1.09,-5,0.9,13.3,0.54,0.05,-0.05,0.84
1697353643.61,0.21,-0.14,1.14,-2.7,0.1,11.1,0.54,0.05,-0.05,0.84
1697353643.62,0.14,-0.27,0.97,-3.1,-0.8,8.6,0.54,0.05,-0.05,0.84
1697353643.63,0.1,-0.24,1.42,-4.6,-2,3.9,0.54,0.05,-0.05,0.84
1697353643.64,0.17,-0.24,0.73,-5.6,-1.6,1.7,0.54,0.05,-0.05,0.84
1697353643.65,0.14,-0.16,0.99,-4.5,-1.7,0,0.54,0.05,-0.05,0.84
1697353643.66,0.1,-0.1,1.15,-2.7,-1.5,-0.8,0.54,0.05,-0.05,0.84
1697353643.67,0.15,-0.24,1.14,-2.1,-1.6,-1.1,0.54,0.05,-0.05,0.84
1697353643.68,0.15,-0.24,1.14,-2.1,-1.6,-1.1,0.54,0.05,-0.05,0.84
1697353643.69,0.07,-0.46,0.95,-1.6,-1.1,-3.8,0.54,0.05,-0.05,0.84
1697353643.7,0.15,-0.36,1.12,-3.9,-0.8,-5,0.54,0.05,-0.05,0.84
1697353643.71,0.02,-0.4,1.08,-5.1,-0.4,-6.5,0.54,0.05,-0.05,0.84
1697353643.72,0.24,-0.24,0.79,-4.5,-0.4,-7.8,0.54,0.05,-0.05,0.84
1697353643.73,0.24,-0.56,0.97,-4.5,-0.4,-7.8,0.54,0.05,-0.05,0.84
1697353643.74,0.01,-0.57,1.26,-2.6,-0.6,-11.5,0.54,0.05,-0.06,0.84
1697353643.75,0.01,-0.57,1.26,-2.6,-0.6,-11.5,0.54,0.05,-0.06,0.84
1697353643.76,0.07,-0.71,1.25,-4.6,-0.5,-16.1,0.55,0.05,-0.06,0.83
1697353643.77,0.12,-0.74,1.2,-5.3,-0.6,-19.4,0.55,0.05,-0.06,0.83
1697353643.78,0.19,-0.62,0.92,-5.3,-0.6,-19.4,0.55,0.05,-0.06,0.83
1697353643.79,0.12,-0.7,0.83,-5.4,-1,-22.4,0.55,0.05,-0.06,0.83
1697353643.8,0.01,-0.73,1.04,-5.2,-1.6,-24.8,0.55,0.05,-0.06,0.83
1697353643.81,0.1,-0.76,0.92,-4.9,-1.7,-27.4,0.55,0.05,-0.06,0.83
1697353643.82,0.1,-0.76,0.92,-4.8,-1.9,-29.9,0.56,0.05,-0.06,0.83
1697353643.83,0.06,-0.61,1.15,-3.4,-1.7,-32.4,0.56,0.05,-0.06,0.83
1697353643.84,0.16,-0.8,0.88,-3.7,-1.5,-32.8,0.56,0.05,-0.06,0.82
1697353643.85,0.12,-0.73,1.04,-1.8,-0.8,-35.9,0.57,0.05,-0.06,0.82
1697353643.86,0.18,-0.66,0.91,0.1,0.2,-37.4,0.57,0.05,-0.06,0.82
1697353643.87,0.16,-0.83,0.96,0.2,0.3,-38.4,0.57,0.05,-0.06,0.82
1697353643.88,0.24,-0.63,1.07,-1,-0.1,-37.8,0.57,0.05,-0.06,0.82
1697353643.89,0.24,-0.63,1.07,-1,-0.1,-37.8,0.57,0.05,-0.06,0.82
1697353643.9,0.24,-0.63,1.07,-1,-0.1,-37.8,0.57,0.05,-0.06,0.82
1697353643.91,0.24,-0.63,1.07,-1,-0.1,-37.8,0.57,0.05,-0.06,0.82
1697353643.92,0.24,-0.63,1.07,-1,-0.1,-37.8,0.57,0.05,-0.06,0.82
1697353643.93,0.24,-0.63,1.07,-1,-0.1,-37.8,0.57,0.05,-0.06,0.82
1697353643.94,0.24,-0.63,1.07,-1,-0.1,-37.8,0.57,0.05,-0.06,0.82
1697353643.95,0.24,-0.63,1.07,-1,-0.1,-37.8,0.57,0.05,-0.06,0.82
1697353643.96,0.24,-0.63,1.07,-1,-0.1,-37.8,0.57,0.05,-0.06,0.82
1697353643.97,0.24,-0.63,1.07,-1,-0.1,-37.8,0.57,0.05,-0.06,0.82
1697353643.98,0.24,-0.63,1.07,-1,-0.1,-37.8,0.57,0.05,-0.06,0.82
1697353643.99,0.24,-0.63,1.07,-1,-0.1,-37.8,0.57,0.05,-0.06,0.82
1697353644,0.24,-0.63,1.07,-1,-0.1,-37.8,0.57,0.05,-0.06,0.82
1697353644.01,0.24,-0.63,1.07,-1,-0.1,-37.8,0.57,0.05,-0.06,0.82
1697353644.02,0.19,-0.7,0.95,-1.2,-0.9,-45.1,0.61,0.05,-0.06,0.79
1697353644.03,0.19,-0.53,0.97,-0.1,-1.9,-45.6,0.62,0.05,-0.06,0.78
1697353644.04,0.2,-0.73,0.87,1.2,-2.1,-45.3,0.62,0.06,-0.05,0.78
1697353644.05,0.15,-0.71,0.89,-0.3,-1.2,-45,0.62,0.06,-0.05,0.78
1697353644.06,0.11,-0.7,0.99,-0.3,-0.4,-44.2,0.63,0.06,-0.05,0.78
1697353644.07,0.05,-0.67,1.08,1.1,0.3,-43.9,0.63,0.06,-0.05,0.77
1697353644.08,0.1,-0.67,0.91,1.7,1.1,-43.4,0.63,0.06,-0.05,0.77
1697353644.09,0.19,-0.83,1.07,0.1,2.1,-43,0.64,0.06,-0.05,0.77
1697353644.1,0.19,-0.83,1.07,0.1,2.1,-43,0.64,0.06,-0.05,0.77
1697353644.11,0.16,-0.73,0.86,-1.1,2.8,-42.7,0.64,0.06,-0.05,0.77
1697353644.12,0.15,-0.71,1.12,-3.2,3.3,-42.6,0.64,0.06,-0.05,0.76
1697353644.13,0.15,-0.71,1.12,-3.2,3.3,-42.6,0.64,0.06,-0.05,0.76
1697353644.14,0.3,-0.78,1.08,-2.3,1.2,-43.5,0.65,0.06,-0.05,0.76
1697353644.15,0.19,-0.72,1.13,-2.3,1.2,-43.5,0.65,0.06,-0.05,0.76
1697353644.16,0.19,-0.6,1.14,-0.3,-2.1,-44.5,0.66,0.06,-0.05,0.75
1697353644.17,0.3,-0.82,0.73,1.2,-2.8,-45.3,0.66,0.06,-0.05,0.75
1697353644.18,0.3,-0.82,0.73,1.2,-2.8,-45.3,0.66,0.06,-0.05,0.75
1697353644.19,0.15,-0.62,1.09,0.4,-2.9,-45,0.66,0.06,-0.05,0.75
1697353644.2,0.15,-0.62,1.09,0.4,-2.1,-43.9,0.67,0.06,-0.05,0.74
1697353644.21,0.22,-0.85,0.86,0.3,-1.3,-43.4,0.67,0.06,-0.05,0.74
1697353644.22,0.18,-0.61,0.81,1.4,0,-42.8,0.67,0.06,-0.05,0.74
1697353644.23,0.15,-0.85,1.1,1.4,0,-42.8,0.67,0.06,-0.05,0.73
1697353644.24,0.19,-0.9,0.97,0.8,1.1,-43.1,0.68,0.06,-0.05,0.73
1697353644.25,0.13,-0.86,1.02,-1,1.9,-43.4,0.68,0.06,-0.05,0.73
1697353644.26,0.06,-0.77,0.96,-2.6,2.7,-44.1,0.68,0.06,-0.05,0.73
1697353644.27,0.19,-0.64,0.98,-2.9,3.2,-44.8,0.69,0.06,-0.05,0.72
1697353644.28,0.25,-0.79,0.82,-2.4,3.1,-44.8,0.69,0.06,-0.05,0.72
1697353644.29,0.14,-0.68,0.92,-0.6,2.6,-45.4,0.69,0.06,-0.05,0.72
1697353644.3,0.16,-0.89,1.02,-0.7,1.6,-45.5,0.69,0.06,-0.05,0.72
1697353644.31,0.3,-0.86,0.92,-2.2,0.6,-45.6,0.69,0.06,-0.05,0.72
1697353644.32,0.18,-0.65,0.93,-3,-0.4,-46,0.7,0.06,-0.05,0.71
1697353644.33,0.37,-0.82,1.06,-2.8,-0.8,-45.5,0.7,0.06,-0.05,0.71
1697353644.34,0.25,-0.64,0.94,0.1,-1.2,-45.8,0.71,0.06,-0.05,0.7
1697353644.35,0.38,-0.84,0.87,-0.6,-1.9,-44.6,0.71,0.06,-0.05,0.7
1697353644.36,0.24,-0.73,1.08,2,-2.4,-45.1,0.71,0.06,-0.05,0.7
1697353644.37,0.24,-0.85,0.92,1.7,-2.3,-44.5,0.71,0.06,-0.05,0.7
1697353644.38,0.14,-0.89,1.22,1.7,-2.3,-44.5,0.71,0.06,-0.05,0.7
1697353644.39,0.16,-0.63,0.95,-0.4,-0.7,-44.4,0.72,0.06,-0.05,0.69
1697353644.4,0.16,-0.63,0.95,-0.4,-0.7,-44.4,0.72,0.06,-0.05,0.69
1697353644.41,0.05,-0.8,1.15,0.2,0.3,-43.9,0.72,0.06,-0.05,0.69
1697353644.42,0.05,-0.8,1.15,0.2,0.3,-43.9,0.72,0.06,-0.05,0.69
1697353644.43,0.05,-0.8,1.15,0.2,0.3,-43.9,0.72,0.06,-0.05,0.69
1697353644.44,0.05,-0.8,1.15,0.2,0.3,-43.9,0.72,0.06,-0.05,0.69
1697353644.45,0.05,-0.8,1.15,0.2,0.3,-43.9,0.72,0.06,-0.05,0.69
1697353644.46,0.05,-0.8,1.15,0.2,0.3,-43.9,0.72,0.06,-0.05,0.69
1697353644.47,0.05,-0.8,1.15,0.2,0.3,-43.9,0.72,0.06,-0.05,0.69
1697353644.48,0.05,-0.8,1.15,0.2,0.3,-43.9,0.72,0.06,-0.05,0.69
1697353644.49,0.05,-0.8,1.15,0.2,0.3,-43.9,0.72,0.06,-0.05,0.69
1697353644.5,0.05,-0.8,1.15,0.2,0.3,-43.9,0.72,0.06,-0.05,0.69
1697353644.51,0.05,-0.8,1.15,0.2,0.3,-43.9,0.72,0.06,-0.05,0.69
1697353644.52,0.05,-0.8,1.15,0.2,0.3,-43.9,0.72,0.06,-0.05,0.69
1697353644.53,0.05,-0.8,1.15,0.2,0.3,-43.9,0.72,0.06,-0.05,0.69
1697353644.54,0.31,-0.83,1.03,3.5,-0.9,-44.9,0.76,0.06,-0.04,0.65
1697353644.55,0.31,-0.83,1.03,2.6,-0.4,-44.4,0.76,0.06,-0.04,0.65
1697353644.56,0.19,-0.85,1.02,0.4,0.6,-43.6,0.76,0.06,-0.04,0.64
1697353644.57,0.19,-0.49,1.03,-0.4,1.6,-43.1,0.77,0.06,-0.04,0.64
1697353644.58,0.46,-0.93,0.94,0.9,2.6,-41.6,0.77,0.06,-0.04,0.64
1697353644.59,0.23,-0.66,0.89,2.4,3.6,-41.9,0.77,0.06,-0.04,0.63
1697353644.6,0.14,-0.73,1.07,-1.6,2.4,-40.7,0.77,0.06,-0.04,0.63
1697353644.61,0.18,-0.52,0.99,0.9,1.8,-41.6,0.77,0.06,-0.04,0.63
1697353644.62,0.25,-0.67,0.79,1.6,1.2,-40,0.78,0.06,-0.04,0.62
1697353644.63,0.43,-0.63,0.77,3.3,0.9,-39.6,0.78,0.06,-0.04,0.62
1697353644.64,0.28,-0.71,1.54,1.7,-0.3,-38.7,0.78,0.06,-0.04,0.62
1697353644.65,0.41,-0.59,1.03,0,-1.5,-37.5,0.78,0.06,-0.04,0.62
1697353644.66,0.41,-0.45,1.01,-0.4,-2.5,-37.1,0.79,0.06,-0.04,0.61
1697353644.67,0.39,-0.49,0.97,1.1,-3.2,-35.6,0.79,0.06,-0.04,0.61
1697353644.68,0.28,-0.32,0.95,3.9,-3.4,-33.5,0.79,0.07,-0.04,0.61
1697353644.69,0.29,-0.45,1.07,4.7,-2.5,-31.1,0.79,0.07,-0.04,0.61
1697353644.7,0.21,-0.64,0.84,4.7,-1.2,-29.1,0.79,0.07,-0.04,0.61
1697353644.71,0.17,-0.39,1.07,3.4,-0.1,-28.4,0.79,0.07,-0.04,0.6
1697353644.72,0.34,-0.42,0.7,0.6,1,-27.3,0.79,0.07,-0.04,0.6
1697353644.73,0.28,-0.11,1.24,1,1.8,-26.6,0.8,0.07,-0.04,0.6
1697353644.74,0.32,-0.22,0.98,3.3,2.6,-25.4,0.8,0.07,-0.04,0.6
1697353644.75,0.34,-0.32,0.96,4.7,2.9,-23.3,0.8,0.07,-0.04,0.6
1697353644.76,0.45,-0.25,0.97,5.9,2.7,-22.9,0.8,0.07,-0.04,0.6
1697353644.77,0.48,-0.35,1,3.2,2.2,-20.3,0.8,0.07,-0.04,0.59
1697353644.78,0.3,-0.21,0.91,-1.6,1.1,-17.5,0.8,0.07,-0.04,0.59
1697353644.79,0.34,0.34,1.06,0.4,1.2,-14.1,0.8,0.07,-0.04,0.59
1697353644.8,0.45,-0.15,0.66,0.4,1.2,-14.1,0.8,0.07,-0.04,0.59
1697353644.81,0.33,-0.03,1.08,5,0.4,-12.2,0.8,0.07,-0.03,0.59
1697353644.82,0.38,-0.19,0.93,2.1,0.2,-10.7,0.8,0.07,-0.03,0.59
1697353644.83,0.4,-0.31,0.94,1.4,0.3,-11.6,0.81,0.07,-0.03,0.59
1697353644.84,0.32,-0.01,1.09,-0.1,0.9,-10.3,0.81,0.07,-0.03,0.59
1697353644.85,0.32,-0.01,1.09,-0.1,0.9,-10.3,0.81,0.07,-0.03,0.59
1697353644.86,0.26,-0.13,1.05,0.9,1.4,-9.6,0.81,0.07,-0.03,0.59
1697353644.87,0.24,0.1,0.98,1.3,2.1,-8.3,0.81,0.07,-0.03,0.59
1697353644.88,0.24,0.1,0.98,3.4,2.7,-6.6,0.81,0.07,-0.03,0.59
1697353644.89,0.29,-0.04,0.92,0.6,3.4,-4.1,0.81,0.07,-0.03,0.59
1697353644.9,0.29,-0.04,0.92,0.6,3.4,-4.1,0.81,0.07,-0.03,0.58
1697353644.91,0.41,0.07,0.52,-4.3,3.4,-2.7,0.81,0.07,-0.03,0.58
1697353644.92,0.41,0.07,0.52,-4.3,3.4,-2.7,0.81,0.07,-0.03,0.58
1697353644.93,0.36,0.31,1.03,-3.2,2.9,-1.2,0.81,0.07,-0.03,0.58
1697353644.94,0.36,0.31,1.03,-3.2,2.9,-1.2,0.81,0.07,-0.03,0.58
1697353644.95,0.36,0.31,1.03,-3.2,2.9,-1.2,0.81,0.07,-0.03,0.58
1697353644.96,0.36,0.31,1.03,-3.2,2.9,-1.2,0.81,0.07,-0.03,0.58
1697353644.97,0.36,0.31,1.03,-3.2,2.9,-1.2,0.81,0.07,-0.03,0.58
1697353644.98,0.36,0.31,1.03,-3.2,2.9,-1.2,0.81,0.07,-0.03,0.58
1697353644.99,0.36,0.31,1.03,-3.2,2.9,-1.2,0.81,0.07,-0.03,0.58
1697353645,0.36,0.31,1.03,-3.2,2.9,-1.2,0.81,0.07,-0.03,0.58
1697353645.01,0.36,0.31,1.03,-3.2,2.9,-1.2,0.81,0.07,-0.03,0.58
1697353645.02,0.36,0.31,1.03,-3.2,2.9,-1.2,0.81,0.07,-0.03,0.58
1697353645.03,0.36,0.31,1.03,-3.2,2.9,-1.2,0.81,0.07,-0.03,0.58
1697353645.04,0.36,0.31,1.03,-3.2,2.9,-1.2,0.81,0.07,-0.03,0.58
1697353645.05,0.36,0.31,1.03,-3.2,2.9,-1.2,0.81,0.07,-0.03,0.58
1697353645.06,0.36,0.31,1.03,-3.2,2.9,-1.2,0.81,0.07,-0.03,0.58
1697353645.07,0.36,0.31,1.03,-3.2,2.9,-1.2,0.81,0.07,-0.03,0.59
1697353645.08,0.35,0.39,0.86,-0.3,-0.7,4.7,0.81,0.07,-0.03,0.59
1697353645.09,0.26,0.29,1.05,2.7,-1.5,5,0.81,0.07,-0.03,0.59
1697353645.1,0.34,0.16,0.99,5,-2.1,4.7,0.81,0.07,-0.03,0.59
1697353645.11,0.3,-0.1,0.97,3.4,-2.7,4.5,0.8,0.07,-0.03,0.59
1697353645.12,0.21,-0.19,1.14,-2.1,-2.8,4.2,0.8,0.07,-0.03,0.59
1697353645.13,0.3,0.02,0.89,-4.1,-2.2,4.4,0.8,0.07,-0.03,0.59
1697353645.14,0.24,0.13,1.02,-3.6,-0.9,4.4,0.8,0.07,-0.03,0.59
1697353645.15,0.24,0.13,1.02,-3.6,-0.9,4.4,0.8,0.07,-0.03,0.59
1697353645.16,0.34,0.18,1.02,1.4,1.8,4.7,0.8,0.07,-0.03,0.59
1697353645.17,0.32,0.04,0.91,0.8,2.2,4.7,0.8,0.07,-0.03,0.59
1697353645.18,0.41,0.02,0.96,-0.9,2,4.2,0.8,0.07,-0.03,0.59
1697353645.19,0.4,0.09,0.95,-2.7,1,4,0.8,0.07,-0.03,0.59
1697353645.2,0.4,0.09,0.95,-2.7,1,4,0.8,0.07,-0.03,0.59
1697353645.21,0.35,0.26,0.94,0,-1.7,4.1,0.8,0.07,-0.03,0.59
1697353645.22,0.33,0.15,0.97,2.2,-2.7,4.3,0.8,0.07,-0.03,0.59
1697353645.23,0.33,0.15,0.97,2.2,-2.7,4.3,0.8,0.07,-0.03,0.59
1697353645.24,0.32,-0.07,0.92,0.9,-3.2,4.3,0.8,0.07,-0.03,0.59
1697353645.25,0.32,-0.07,0.92,0.9,-3.2,4.3,0.8,0.07,-0.03,0.59
1697353645.26,0.29,0.03,0.98,-2.3,-2.8,4.3,0.8,0.07,-0.03,0.59
1697353645.27,0.26,0.17,1.02,-3.7,-1.9,4.2,0.8,0.07,-0.03,0.59
1697353645.28,0.26,0.17,1.02,-2.6,-0.7,4.4,0.8,0.07,-0.04,0.59
1697353645.29,0.34,0.19,0.95,0.9,0.7,4.4,0.8,0.07,-0.04,0.59
1697353645.3,0.31,0.11,1.14,0.9,0.7,4.4,0.8,0.07,-0.04,0.59
1697353645.31,0.33,0.03,0.98,1.5,1.1,4.6,0.8,0.07,-0.03,0.59
1697353645.32,0.38,0.01,0.87,0.1,1.3,4.2,0.8,0.07,-0.03,0.59
1697353645.33,0.28,0.11,0.99,-1.2,1.3,3.7,0.8,0.07,-0.03,0.59
1697353645.34,0.35,0.25,0.96,-1.6,1,3.8,0.8,0.07,-0.03,0.59
1697353645.35,0.33,0.13,0.98,0.5,-0.2,4.3,0.8,0.07,-0.03,0.6
1697353645.36,0.29,0.08,1.07,2.6,-1,4,0.8,0.07,-0.03,0.6
1697353645.37,0.3,0,0.91,3.5,-1.5,4,0.8,0.07,-0.03,0.6
1697353645.38,0.33,-0.04,0.95,2.1,-2,4.2,0.8,0.07,-0.03,0.6
1697353645.39,0.28,0,1.17,0.1,-2.3,4,0.8,0.07,-0.04,0.6
1697353645.4,0.3,0.05,0.94,-1.8,-1.2,3.6,0.8,0.07,-0.04,0.6
1697353645.41,0.24,0.14,0.96,-1.4,-0.1,3.8,0.8,0.07,-0.04,0.6
1697353645.42,0.25,0.17,1.15,-1,0.7,3.9,0.8,0.07,-0.04,0.6
1697353645.43,0.33,0.09,0.97,0.1,2,4,0.8,0.07,-0.04,0.6
1697353645.44,0.28,0.1,0.95,0.5,2.8,3.8,0.8,0.07,-0.04,0.6
1697353645.45,0.28,0.13,0.99,0.5,2.8,3.8,0.8,0.07,-0.04,0.6
1697353645.46,0.3,0.2,0.99,0.1,3.2,4,0.8,0.07,-0.04,0.6
1697353645.47,0.3,0.2,0.99,0.1,3.2,4,0.8,0.07,-0.04,0.6
1697353645.48,0.3,0.2,0.99,0.1,3.2,4,0.8,0.07,-0.04,0.6
1697353645.49,0.3,0.2,0.99,0.1,3.2,4,0.8,0.07,-0.04,0.6
1697353645.5,0.3,0.2,0.99,0.1,3.2,4,0.8,0.07,-0.04,0.6
1697353645.51,0.3,0.2,0.99,0.1,3.2,4,0.8,0.07,-0.04,0.6
1697353645.52,0.3,0.2,0.99,0.1,3.2,4,0.8,0.07,-0.04,0.6
1697353645.53,0.3,0.2,0.99,0.1,3.2,4,0.8,0.07,-0.04,0.6
1697353645.54,0.3,0.2,0.99,0.1,3.2,4,0.8,0.07,-0.04,0.6
1697353645.55,0.3,0.2,0.99,0.1,3.2,4,0.8,0.07,-0.04,0.6
1697353645.56,0.3,0.2,0.99,0.1,3.2,4,0.8,0.07,-0.04,0.6
1697353645.57,0.3,0.2,0.99,0.1,3.2,4,0.8,0.07,-0.04,0.6
1697353645.58,0.3,0.2,0.99,0.1,3.2,4,0.8,0.07,-0.04,0.6
1697353645.59,0.3,0.2,0.99,0.1,3.2,4,0.8,0.07,-0.04,0.6
1697353645.6,0.3,0.2,0.99,0.1,3.2,4,0.8,0.07,-0.04,0.6
1697353645.61,0.3,0.2,0.99,0.1,3.2,4,0.8,0.07,-0.04,0.6
1697353645.62,0.3,0.2,0.99,0.1,3.2,4,0.8,0.07,-0.04,0.6
1697353645.63,0.3,0.2,0.99,0.1,3.2,4,0.8,0.07,-0.04,0.6
1697353645.64,0.3,0.2,0.99,0.1,3.2,4,0.8,0.07,-0.04,0.6
1697353645.65,0.3,0.2,0.99,0.1,3.2,4,0.8,0.07,-0.04,0.6
1697353645.66,0.3,0.2,0.99,0.1,3.2,4,0.8,0.07,-0.04,0.6
1697353645.67,0.3,0.2,0.99,0.1,3.2,4,0.8,0.07,-0.04,0.6
1697353645.68,0.3,0.2,0.99,0.1,3.2,4,0.8,0.07,-0.04,0.6
1697353645.69,0.3,0.2,0.99,0.1,3.2,4,0.8,0.07,-0.04,0.6
1697353645.7,0.3,0.2,0.99,0.1,3.2,4,0.8,0.07,-0.04,0.6
1697353645.71,0.3,0.2,0.99,0.1,3.2,4,0.8,0.07,-0.04,0.6
1697353645.72,0.3,0.2,0.99,0.1,3.2,4,0.8,0.07,-0.04,0.6
1697353645.73,0.3,0.2,0.99,0.1,3.2,4,0.8,0.07,-0.04,0.6
1697353645.74,0.3,0.2,0.99,0.1,3.2,4,0.8,0.07,-0.04,0.6
1697353645.75,0.3,0.2,0.99,0.1,3.2,4,0.8,0.07,-0.04,0.6
1697353645.76,0.23,0.65,1.15,-2.4,0.8,14.2,0.79,0.07,-0.04,0.61
1697353645.77,0.21,0.73,0.98,2,2.1,15.1,0.79,0.07,-0.04,0.61
1697353645.78,0.19,0.51,0.86,5,3,15.4,0.79,0.07,-0.04,0.61
1697353645.79,0.24,0.27,0.8,5.1,3.1,15.4,0.79,0.07,-0.04,0.61
1697353645.8,0.16,0.32,0.98,-1.2,3.7,15.1,0.78,0.07,-0.04,0.61
1697353645.81,0.18,0.34,0.91,-3.5,3.8,14.7,0.78,0.07,-0.04,0.62
1697353645.82,0.22,0.64,0.98,-3.8,3.8,14.6,0.78,0.07,-0.04,0.62
1697353645.83,0.36,0.84,1.07,0.9,1.5,15.2,0.78,0.07,-0.04,0.62
1697353645.84,0.3,0.56,1.04,4.8,-0.5,15.7,0.78,0.07,-0.04,0.62
1697353645.85,0.3,0.56,1.04,4.8,-0.5,15.7,0.78,0.07,-0.04,0.62
1697353645.86,0.41,0.2,0.75,1.2,-3.1,15.4,0.78,0.07,-0.04,0.62
1697353645.87,0.41,0.2,0.75,1.2,-3.1,15.4,0.78,0.07,-0.04,0.62
1697353645.88,0.17,0.45,1.07,-4.5,-1.6,14.6,0.78,0.07,-0.04,0.62
1697353645.89,0.1,0.42,1.05,-4.5,-1.6,14.6,0.78,0.07,-0.04,0.62
1697353645.9,0.18,0.54,0.95,-3.4,1.4,15,0.78,0.07,-0.04,0.62
1697353645.91,0.18,0.54,0.95,-3.4,1.4,15,0.78,0.07,-0.04,0.62
1697353645.92,0.29,0.48,0.77,-1.3,2.8,16.7,0.78,0.07,-0.04,0.63
1697353645.93,0.34,0.52,0.9,-0.3,2.2,17.2,0.77,0.07,-0.04,0.63
1697353645.94,0.3,0.58,1.22,0.4,1.1,18.2,0.77,0.07,-0.04,0.63
1697353645.95,0.25,0.44,1.1,3.1,-0.2,19.3,0.77,0.07,-0.04,0.63
1697353645.96,0.22,0.19,1.06,5.4,-1.4,19.7,0.77,0.07,-0.04,0.63
1697353645.97,0.28,0.3,0.87,2.8,-1.8,19.7,0.77,0.07,-0.04,0.63
1697353645.98,0.1,0.41,1.18,0,-2.3,19.6,0.77,0.07,-0.04,0.63
1697353645.99,0.24,0.38,0.85,-0.8,-2.1,19.1,0.77,0.07,-0.04,0.64
1697353646,0.12,0.23,0.92,-0.8,-2.1,19.1,0.77,0.07,-0.04,0.64
1697353646.01,0.13,0.34,1.06,-1,0.1,17.3,0.77,0.07,-0.04,0.64
1697353646.02,0.13,0.34,1.06,-1,0.1,17.3,0.76,0.07,-0.04,0.64
1697353646.03,0.27,0.44,1.05,-3,1.6,16.1,0.76,0.07,-0.04,0.64
1697353646.04,0.27,0.54,1.13,-2.5,1.8,15.1,0.76,0.07,-0.04,0.64
1697353646.05,0.27,0.54,1.13,-2.5,1.8,15.1,0.76,0.07,-0.04,0.64
1697353646.06,0.26,0.26,0.91,0.4,0.7,14.2,0.76,0.07,-0.04,0.64
1697353646.07,0.13,0.05,1.24,2.8,-0.1,13.3,0.76,0.07,-0.04,0.64
1697353646.08,0.13,0.05,1.24,2.2,-0.7,12.8,0.76,0.07,-0.04,0.64
1697353646.09,0.21,0.38,1.02,-1.4,-0.5,11.9,0.76,0.07,-0.04,0.65
1697353646.1,0.21,0.38,1.02,-2.9,-1,11.1,0.76,0.07,-0.04,0.65
1697353646.11,0.18,0.33,1.16,-1.6,-1.1,11.3,0.76,0.07,-0.04,0.65
1697353646.12,0.25,0.23,0.83,0.6,-1.3,11.8,0.76,0.07,-0.04,0.65
1697353646.13,0.23,0.27,0.95,-0.5,-1.8,11.9,0.76,0.07,-0.04,0.65
1697353646.14,0.19,0.41,1.11,-1.8,-2.3,12.2,0.76,0.07,-0.04,0.65
1697353646.15,0.19,0.41,1.11,-1.8,-2.3,12.2,0.76,0.07,-0.04,0.65
1697353646.16,0.19,0.41,1.11,-1.8,-2.3,12.2,0.76,0.07,-0.04,0.65
1697353646.17,0.19,0.41,1.11,-1.8,-2.3,12.2,0.76,0.07,-0.04,0.65
1697353646.18,0.19,0.41,1.11,-1.8,-2.3,12.2,0.76,0.07,-0.04,0.65
1697353646.19,0.19,0.41,1.11,-1.8,-2.3,12.2,0.76,0.07,-0.04,0.65
1697353646.2,0.19,0.41,1.11,-1.8,-2.3,12.2,0.76,0.07,-0.04,0.65
1697353646.21,0.19,0.41,1.11,-1.8,-2.3,12.2,0.76,0.07,-0.04,0.65
1697353646.22,0.19,0.41,1.11,-1.8,-2.3,12.2,0.76,0.07,-0.04,0.65
1697353646.23,0.19,0.41,1.11,-1.8,-2.3,12.2,0.76,0.07,-0.04,0.65
1697353646.24,0.19,0.41,1.11,-1.8,-2.3,12.2,0.76,0.07,-0.04,0.65
1697353646.25,0.19,0.41,1.11,-1.8,-2.3,12.2,0.76,0.07,-0.04,0.65
1697353646.26,0.19,0.41,1.11,-1.8,-2.3,12.2,0.76,0.07,-0.04,0.65
1697353646.27,0.19,0.41,1.11,-1.8,-2.3,12.2,0.76,0.07,-0.04,0.65
1697353646.28,0.27,-0.01,1.04,1.9,1.4,5.7,0.75,0.07,-0.04,0.66
1697353646.29,0.23,-0.12,1.08,2.1,-0.5,4.8,0.75,0.07,-0.04,0.66
1697353646.3,0.16,0.01,1.14,0.1,-4,4.1,0.75,0.07,-0.04,0.66
1697353646.31,0.21,0.27,0.62,-1.8,-5.7,4,0.75,0.07,-0.04,0.66
1697353646.32,0.23,-0.03,1.04,-1.2,-6.2,4.4,0.75,0.07,-0.04,0.66
1697353646.33,0.22,0.03,0.96,0.3,-5.6,3.6,0.75,0.07,-0.04,0.66
1697353646.34,0.25,-0.08,0.71,-0.9,-4.4,3.6,0.75,0.07,-0.04,0.66
1697353646.35,0.1,0.14,0.85,-3.3,-2.4,4,0.75,0.07,-0.04,0.66
1697353646.36,0.15,0.26,0.92,-2.9,-0.3,3.8,0.75,0.07,-0.04,0.66
1697353646.37,0.19,0.03,0.93,0.1,1.9,3.8,0.75,0.07,-0.04,0.66
1697353646.38,0.11,0,0.98,2.4,3.2,3.7,0.75,0.07,-0.04,0.66
1697353646.39,-0.09,-0.25,1.17,3.5,4.1,3.4,0.75,0.07,-0.04,0.66
1697353646.4,0.12,-0.1,0.95,3.5,4.1,3.4,0.75,0.07,-0.04,0.66
1697353646.41,-0.05,0.2,1.02,-3.4,6,2.8,0.75,0.07,-0.04,0.66
1697353646.42,-0.02,0.27,0.99,0.1,6.3,3.5,0.75,0.07,-0.04,0.66
1697353646.43,-0.02,0.27,0.99,0.1,6.3,3.5,0.75,0.07,-0.04,0.66
1697353646.44,-0.1,-0.01,1,0.4,5.1,3.8,0.74,0.07,-0.04,0.66
1697353646.45,-0.06,0.15,1.07,0.4,5.1,3.8,0.74,0.07,-0.04,0.66
1697353646.46,0.14,0.17,0.91,1.6,1.8,4.2,0.74,0.07,-0.04,0.66
1697353646.47,0.04,0.17,0.62,2.5,0,4.4,0.74,0.07,-0.04,0.66
1697353646.48,0.04,0.17,0.62,2.5,0,4.4,0.74,0.07,-0.04,0.66
1697353646.49,-0.09,-0.01,0.87,4.9,-3.4,4.7,0.74,0.07,-0.04,0.66
1697353646.5,-0.09,-0.01,0.87,4.9,-3.4,4.7,0.74,0.07,-0.04,0.66
1697353646.51,-0.35,-0.01,0.95,1.5,-4.1,4.3,0.74,0.07,-0.04,0.66
1697353646.52,-0.86,0.1,0.95,-0.2,-2.5,3.6,0.74,0.07,-0.04,0.66
1697353646.53,-0.86,0.1,0.95,-0.7,0,3.5,0.74,0.07,-0.04,0.66
1697353646.54,-0.69,0.15,0.8,-0.8,3.3,3.4,0.74,0.07,-0.04,0.67
1697353646.55,-0.48,0.2,0.98,-0.3,6,3,0.74,0.07,-0.04,0.67
1697353646.56,-0.06,0.21,1.08,-0.7,6.8,2.9,0.74,0.07,-0.04,0.67
1697353646.57,0.07,0.23,1.07,-0.2,5.2,3.5,0.74,0.07,-0.04,0.67
1697353646.58,-0.01,0.12,1.38,-0.3,3.7,4.5,0.74,0.07,-0.04,0.67
1697353646.59,0.19,0.16,0.62,-1.2,1.8,5.1,0.74,0.07,-0.04,0.67
1697353646.6,0.05,0.2,0.94,0.2,-0.2,5.6,0.74,0.07,-0.04,0.67
1697353646.61,-0.04,0.12,1.43,2,-2.1,6,0.74,0.07,-0.04,0.67
1697353646.62,-0,0.05,0.94,2.4,-2.6,6,0.74,0.07,-0.04,0.67
1697353646.63,0.09,0.08,0.72,2.7,-3.1,6,0.74,0.07,-0.04,0.67
1697353646.64,-0.01,0.01,1.11,2,-3.6,5.5,0.74,0.07,-0.04,0.67
1697353646.65,-0.01,0.01,1.11,2,-3.6,5.5,0.74,0.07,-0.04,0.67
1697353646.66,-0.15,0.01,1.01,0.9,-3.3,5.2,0.74,0.07,-0.04,0.67
1697353646.67,-0.15,0.01,1.01,0.9,-3.3,5.2,0.74,0.07,-0.04,0.67
1697353646.68,-0.15,0.01,1.01,0.9,-3.3,5.2,0.74,0.07,-0.04,0.67
1697353646.69,-0.15,0.01,1.01,0.9,-3.3,5.2,0.74,0.07,-0.04,0.67
1697353646.7,-0.15,0.01,1.01,0.9,-3.3,5.2,0.74,0.07,-0.04,0.67
1697353646.71,-0.15,0.01,1.01,0.9,-3.3,5.2,0.74,0.07,-0.04,0.67
1697353646.72,-0.15,0.01,1.01,0.9,-3.3,5.2,0.74,0.07,-0.04,0.67
1697353646.73,-0.15,0.01,1.01,0.9,-3.3,5.2,0.74,0.07,-0.04,0.67
1697353646.74,-0.15,0.01,1.01,0.9,-3.3,5.2,0.74,0.07,-0.04,0.67
1697353646.75,-0.15,0.01,1.01,0.9,-3.3,5.2,0.74,0.07,-0.04,0.67
1697353646.76,-0.15,0.01,1.01,0.9,-3.3,5.2,0.74,0.07,-0.04,0.67
1697353646.77,-0.15,0.01,1.01,0.9,-3.3,5.2,0.74,0.07,-0.04,0.67
1697353646.78,-0.15,0.01,1.01,0.9,-3.3,5.2,0.74,0.07,-0.04,0.67
1697353646.79,-0.15,0.01,1.01,0.9,-3.3,5.2,0.74,0.07,-0.04,0.67
1697353646.8,0.11,-0.07,0.85,0.5,1.5,0,0.74,0.07,-0.04,0.67
1697353646.81,-0.02,-0.07,1.13,0.5,-1,-0.3,0.74,0.07,-0.04,0.67
1697353646.82,-0.05,-0.04,1.08,-0.3,-2.3,-0.5,0.74,0.07,-0.04,0.67
1697353646.83,-0.07,-0.09,0.99,-0.6,-3.1,-0.3,0.74,0.07,-0.04,0.67
1697353646.84,-0.21,-0.07,0.88,-0.2,-4.4,0,0.74,0.07,-0.04,0.67
1697353646.85,-0.09,-0.03,1.3,0.9,-4.3,-0.5,0.74,0.07,-0.04,0.67
1697353646.86,-0.11,-0.06,0.92,2.5,-3.7,-0.6,0.74,0.07,-0.04,0.67
1697353646.87,-0.11,-0.22,0.99,1.3,-2.6,0,0.74,0.07,-0.04,0.67
1697353646.88,-0.04,-0.01,1.05,-0.9,-0.8,-0.1,0.74,0.07,-0.04,0.67
1697353646.89,-0.18,0.12,1.14,-0.7,1.9,0.1,0.74,0.07,-0.04,0.67
1697353646.9,-0.18,0.12,1.14,-0.7,1.9,0.1,0.74,0.07,-0.04,0.67
1697353646.91,-0.13,-0.06,0.94,1.3,3.4,0.8,0.74,0.07,-0.04,0.67
1697353646.92,-0.13,-0.06,0.94,1.3,3.4,0.8,0.74,0.07,-0.04,0.67
1697353646.93,0,-0.01,0.96,-2,2.8,0.1,0.74,0.07,-0.04,0.67
1697353646.94,-0.08,0.04,0.87,-1.1,2.2,0.6,0.74,0.07,-0.04,0.67
1697353646.95,-0.1,0,1.12,1.3,1.2,0.4,0.74,0.07,-0.04,0.67
1697353646.96,-0.04,0,1.13,1.3,1.2,0.4,0.74,0.07,-0.04,0.67
1697353646.97,-0.06,-0.04,0.76,2.5,1.9,0,0.74,0.07,-0.04,0.67
1697353646.98,-0.06,-0.04,0.76,2.5,1.9,0,0.74,0.07,-0.04,0.67
1697353646.99,-0.01,-0.12,0.84,-2.1,3.2,-1,0.74,0.07,-0.04,0.67
1697353647,-0.27,0.14,0.73,-2.1,3.2,-1,0.74,0.07,-0.04,0.67
1697353647.01,-0.31,0.05,1.02,-0.9,4.3,-1.1,0.74,0.07,-0.04,0.67
1697353647.02,-0.33,0.12,0.78,-0.9,4.3,-1.1,0.74,0.07,-0.04,0.67
1697353647.03,-0.33,0.12,0.78,-0.2,4.2,-1,0.74,0.07,-0.04,0.67
1697353647.04,-0.22,-0.14,0.92,0.7,4.9,-0.6,0.74,0.07,-0.04,0.67
1697353647.05,-0.17,0.09,1.06,0.1,4.5,-1.1,0.74,0.07,-0.04,0.67
1697353647.06,-0.03,0.02,1.18,-2.1,2.1,-0.9,0.74,0.06,-0.04,0.67
1697353647.07,-0.03,0.02,1.18,-2.1,2.1,-0.9,0.74,0.06,-0.04,0.67
1697353647.08,0.03,0.15,1.13,-2,0,-0.7,0.74,0.06,-0.04,0.67
1697353647.09,-0.06,0.16,1.05,-0.1,-1.9,-0.2,0.74,0.06,-0.04,0.67
1697353647.1,-0.1,-0.18,1.29,2.9,-3.1,0,0.74,0.07,-0.04,0.67
1697353647.11,-0.08,-0.07,0.84,3.2,-3.2,-0.1,0.74,0.07,-0.04,0.67
1697353647.12,-0.26,-0.2,1.29,0.3,-1.7,0.1,0.74,0.07,-0.04,0.67
1697353647.13,0.03,0.03,0.95,-1.6,0,0,0.74,0.07,-0.04,0.67
1697353647.14,-0.12,0.22,0.72,-2.5,0.8,0.2,0.74,0.07,-0.04,0.67
1697353647.15,-0.03,0.1,0.9,0.9,0,1.1,0.74,0.07,-0.04,0.67
1697353647.16,-0.03,0.04,0.93,1.7,-1.1,0.7,0.74,0.07,-0.04,0.67
1697353647.17,-0.15,-0.15,1.01,-2.3,-2.1,0.7,0.74,0.07,-0.04,0.67
1697353647.18,0.08,0.03,0.95,-4.6,-2.2,0.8,0.74,0.07,-0.04,0.67
1697353647.19,0.01,0.16,0.91,-1.6,-1.9,0.3,0.74,0.07,-0.04,0.67
1697353647.2,0.01,0.16,0.91,-1.6,-1.9,0.3,0.74,0.07,-0.04,0.67
1697353647.21,0.01,0.16,0.91,-1.6,-1.9,0.3,0.74,0.07,-0.04,0.67
1697353647.22,0.01,0.16,0.91,-1.6,-1.9,0.3,0.74,0.07,-0.04,0.67
1697353647.23,0.01,0.16,0.91,-1.6,-1.9,0.3,0.74,0.07,-0.04,0.67
1697353647.24,0.01,0.16,0.91,-1.6,-1.9,0.3,0.74,0.07,-0.04,0.67
1697353647.25,0.01,0.16,0.91,-1.6,-1.9,0.3,0.74,0.07,-0.04,0.67
1697353647.26,0.01,0.16,0.91,-1.6,-1.9,0.3,0.74,0.07,-0.04,0.67
1697353647.27,0.01,0.16,0.91,-1.6,-1.9,0.3,0.74,0.07,-0.04,0.67
1697353647.28,0.01,0.16,0.91,-1.6,-1.9,0.3,0.74,0.07,-0.04,0.67
1697353647.29,0.01,0.16,0.91,-1.6,-1.9,0.3,0.74,0.07,-0.04,0.67
1697353647.3,0.01,0.16,0.91,-1.6,-1.9,0.3,0.74,0.07,-0.04,0.67
1697353647.31,0.01,0.16,0.91,-1.6,-1.9,0.3,0.74,0.07,-0.04,0.67
1697353647.32,0.01,0.16,0.91,-1.6,-1.9,0.3,0.74,0.07,-0.04,0.67
1697353647.33,-0.02,0.09,0.88,-1.8,-0.4,0.1,0.74,0.06,-0.04,0.67
1697353647.34,-0.02,0.09,0.88,-1.8,-0.4,0.1,0.74,0.06,-0.04,0.67
1697353647.35,-0.01,-0.1,0.94,-1.4,1.8,-0.1,0.74,0.06,-0.04,0.67
1697353647.36,-0.14,-0.05,1.17,-3.3,1.8,-0.1,0.74,0.06,-0.04,0.67
1697353647.37,-0.09,0.14,0.81,-3,0.7,0.3,0.74,0.06,-0.04,0.67
1697353647.38,-0.16,0.16,1.48,-3,0.7,0.3,0.74,0.06,-0.04,0.67
1697353647.39,-0.12,0.07,0.74,4.5,-1.4,1.2,0.74,0.06,-0.04,0.67
1697353647.4,-0.12,0.07,0.74,4.5,-1.4,1.2,0.74,0.06,-0.04,0.67
1697353647.41,-0.15,-0.22,0.89,4.7,-1.7,1.3,0.74,0.06,-0.04,0.67
1697353647.42,-0.15,-0.22,0.89,3.1,-1.3,1,0.74,0.06,-0.04,0.67
1697353647.43,-0.21,0.07,1.08,-3.8,0.7,0.4,0.74,0.06,-0.04,0.67
1697353647.44,-0.21,0.07,1.08,-3.8,0.7,0.4,0.74,0.06,-0.04,0.67
1697353647.45,-0.1,0.21,1,-2.2,1.1,0.5,0.74,0.06,-0.04,0.67
1697353647.46,-0.1,0.21,1,0.7,1,1,0.74,0.06,-0.04,0.67
1697353647.47,-0.1,-0.07,1.09,2.3,0.9,0.9,0.74,0.06,-0.04,0.67
1697353647.48,-0.09,-0.1,1.38,0.2,0.5,0.5,0.74,0.06,-0.04,0.67
1697353647.49,-0.06,-0,1,-2.4,0.1,-0.1,0.74,0.06,-0.04,0.67
1697353647.5,0.02,0.14,0.95,-0.8,-0.3,-0.2,0.74,0.06,-0.04,0.67
1697353647.51,-0.11,0.07,0.98,1,-0.9,-0.2,0.74,0.06,-0.04,0.67
1697353647.52,-0.1,-0.06,0.99,2,-0.9,-0.6,0.74,0.06,-0.04,0.67
1697353647.53,-0.15,-0.05,0.97,0.8,-0.6,-0.6,0.74,0.06,-0.04,0.67
1697353647.54,-0.16,-0.14,1.07,-0.3,0.3,-0.6,0.74,0.06,-0.04,0.67
1697353647.55,-0.16,-0.08,1.06,-1.1,1.4,-0.9,0.74,0.06,-0.04,0.67
1697353647.56,-0.12,-0.01,0.83,-2.1,2.1,-1,0.74,0.06,-0.04,0.67
1697353647.57,-0.21,0.08,0.92,-0.9,3.2,-0.7,0.74,0.06,-0.04,0.67
1697353647.58,-0.1,-0.02,1.11,0,4,-0.3,0.74,0.06,-0.04,0.67
1697353647.59,0.02,0.08,0.84,0.7,2.8,0,0.74,0.06,-0.04,0.67
1697353647.6,-0.09,-0.07,0.99,1.6,1.9,0.1,0.74,0.06,-0.04,0.67
1697353647.61,-0.05,-0.04,0.83,2,1.9,0.1,0.74,0.06,-0.04,0.67
1697353647.62,-0.02,-0.08,1.08,2.5,1,0.3,0.74,0.06,-0.04,0.67
1697353647.63,0.18,-0.08,0.68,2,-0.8,0.3,0.74,0.06,-0.04,0.67
1697353647.64,-0.06,0.11,1.07,-0.1,-2.5,0.2,0.74,0.06,-0.04,0.67
1697353647.65,-0.14,0.16,0.91,-1,-3.2,0.7,0.74,0.06,-0.04,0.67
1697353647.66,-0.08,0.23,0.95,0.5,-2.4,1.6,0.74,0.06,-0.04,0.67
1697353647.67,-0.12,0.16,1.06,0.5,-2.4,1.6,0.74,0.06,-0.04,0.67
1697353647.68,0.01,0.1,0.92,1.3,-0.8,3.4,0.74,0.06,-0.04,0.67
1697353647.69,-0.24,0.18,0.84,-1,0,4.3,0.74,0.06,-0.04,0.67
1697353647.7,-0.19,0.38,0.9,-1.6,1.1,5.3,0.74,0.06,-0.04,0.67
1697353647.71,-0.18,0.33,1.06,-0.1,2.2,6.3,0.74,0.06,-0.04,0.67
1697353647.72,-0.18,0.33,1.06,-0.1,2.2,6.3,0.74,0.06,-0.04,0.67
1697353647.73,-0.18,0.33,1.06,-0.1,2.2,6.3,0.74,0.06,-0.04,0.67
1697353647.74,-0.18,0.33,1.06,-0.1,2.2,6.3,0.74,0.06,-0.04,0.67
1697353647.75,-0.18,0.33,1.06,-0.1,2.2,6.3,0.74,0.06,-0.04,0.67
1697353647.76,-0.18,0.33,1.06,-0.1,2.2,6.3,0.74,0.06,-0.04,0.67
1697353647.77,-0.18,0.33,1.06,-0.1,2.2,6.3,0.74,0.06,-0.04,0.67
1697353647.78,-0.18,0.33,1.06,-0.1,2.2,6.3,0.74,0.06,-0.04,0.67
1697353647.79,-0.18,0.33,1.06,-0.1,2.2,6.3,0.74,0.06,-0.04,0.67
1697353647.8,-0.18,0.33,1.06,-0.1,2.2,6.3,0.74,0.06,-0.04,0.67
1697353647.81,-0.18,0.33,1.06,-0.1,2.2,6.3,0.74,0.06,-0.04,0.67
1697353647.82,-0.18,0.33,1.06,-0.1,2.2,6.3,0.74,0.06,-0.04,0.67
1697353647.83,-0.18,0.33,1.06,-0.1,2.2,6.3,0.74,0.06,-0.04,0.67
1697353647.84,-0.18,0.33,1.06,-0.1,2.2,6.3,0.74,0.06,-0.04,0.67
1697353647.85,-0.18,0.33,1.06,-0.1,2.2,6.3,0.74,0.06,-0.04,0.67
1697353647.86,-0.18,0.33,1.06,-0.1,2.2,6.3,0.74,0.06,-0.04,0.67
1697353647.87,-0.18,0.33,1.06,-0.1,2.2,6.3,0.74,0.06,-0.04,0.67
1697353647.88,-0.18,0.33,1.06,-0.1,2.2,6.3,0.74,0.06,-0.04,0.67
1697353647.89,-0.18,0.33,1.06,-0.1,2.2,6.3,0.74,0.06,-0.04,0.67
1697353647.9,-0.18,0.33,1.06,-0.1,2.2,6.3,0.74,0.06,-0.04,0.67
1697353647.91,-0.18,0.33,1.06,-0.1,2.2,6.3,0.74,0.06,-0.04,0.67
1697353647.92,-0.18,0.33,1.06,-0.1,2.2,6.3,0.74,0.06,-0.04,0.67
1697353647.93,-0.18,0.33,1.06,-0.1,2.2,6.3,0.74,0.06,-0.04,0.67
1697353647.94,-0.14,-0.03,1.29,2.8,1.2,6.8,0.73,0.06,-0.03,0.68
1697353647.95,-0.14,-0.03,1.29,3.2,0.4,6.6,0.73,0.06,-0.03,0.68
1697353647.96,-0.16,0.05,1.31,0.8,-0.3,6.2,0.73,0.06,-0.03,0.68
1697353647.97,-0.13,0.15,1.04,-1.1,-1,6.1,0.73,0.06,-0.03,0.68
1697353647.98,-0.1,0.18,1.04,-1.7,-1.3,6,0.73,0.06,-0.03,0.68
1697353647.99,-0.26,0.2,1.29,-0.3,-1.7,5.7,0.73,0.06,-0.03,0.68
1697353648,-0.08,0.14,0.85,1.5,-1.3,5.5,0.73,0.06,-0.03,0.68
1697353648.01,-0.17,0.2,1.14,2.1,-0.2,5.5,0.72,0.06,-0.03,0.69
1697353648.02,-0.17,-0.04,1.19,3.1,0.6,5.1,0.72,0.06,-0.03,0.69
1697353648.03,-0.12,-0.09,0.99,0,1.2,4.5,0.72,0.06,-0.03,0.69
1697353648.04,0,0.16,0.77,-3.6,1.5,4,0.72,0.06,-0.03,0.69
1697353648.05,-0.06,0.25,1.12,-4.3,2,4.3,0.72,0.06,-0.03,0.69
1697353648.06,-0.05,0.24,1.07,-1.3,2.1,4.3,0.72,0.06,-0.03,0.69
1697353648.07,-0.13,0.07,1.12,1.1,1.4,4.1,0.72,0.06,-0.03,0.69
1697353648.08,-0.1,0.03,1.03,2.3,0.6,3.9,0.72,0.06,-0.03,0.69
1697353648.09,-0.12,-0.01,1.03,2,-0.7,4.1,0.72,0.06,-0.03,0.69
1697353648.1,-0.22,0.06,1.01,0.4,-1.6,4,0.72,0.06,-0.03,0.69
1697353648.11,-0.15,0.1,1.06,-0.8,-1.9,3.9,0.72,0.06,-0.03,0.69
1697353648.12,-0.23,0.44,0.95,-0.9,-1.3,4.3,0.72,0.06,-0.03,0.69
1697353648.13,-0.19,0.33,1.05,1.6,-0.3,5.7,0.72,0.06,-0.03,0.69
1697353648.14,-0.14,0.19,1.17,1.6,-0.3,5.7,0.72,0.06,-0.03,0.69
1697353648.15,-0.15,0.39,1.13,1.6,1.2,8.6,0.72,0.06,-0.03,0.69
1697353648.16,-0.05,0.47,0.91,-0.5,1.7,10.5,0.72,0.06,-0.03,0.69
1697353648.17,0.02,0.63,0.74,-1.4,1.8,12.5,0.72,0.06,-0.03,0.69
1697353648.18,-0.1,0.64,0.71,0.5,0.9,15.4,0.72,0.06,-0.03,0.69
1697353648.19,-0.05,0.71,1.2,2.6,0.3,18.2,0.72,0.06,-0.03,0.69
1697353648.2,-0.05,0.71,1.2,2.6,0.3,18.2,0.72,0.06,-0.03,0.69
1697353648.21,-0.11,0.79,0.91,6.2,0,23,0.72,0.06,-0.03,0.7
1697353648.22,-0.11,0.79,0.91,6.2,0,23,0.72,0.06,-0.03,0.7
1697353648.23,-0.03,0.54,0.82,3.6,-1.4,26.6,0.71,0.06,-0.03,0.7
1697353648.24,-0.03,0.54,0.82,3.6,-1.4,26.6,0.71,0.06,-0.03,0.7
1697353648.25,-0.17,0.7,0.92,3,-1.4,27.3,0.71,0.06,-0.03,0.7
1697353648.26,-0.22,0.69,0.96,2.8,-0.7,28.2,0.71,0.06,-0.03,0.7
1697353648.27,-0.24,0.68,1.28,2.2,-0.4,28.9,0.71,0.06,-0.03,0.7
1697353648.28,-0.08,0.84,0.77,2,0.1,29.6,0.7,0.06,-0.03,0.71
1697353648.29,-0.2,0.81,1.4,2.3,0.8,29.9,0.7,0.06,-0.03,0.71
1697353648.3,-0.2,0.81,1.4,1.1,0.6,30.3,0.7,0.06,-0.03,0.71
1697353648.31,-0.13,0.86,0.89,-0.2,0.4,30.9,0.7,0.06,-0.03,0.71
1697353648.32,-0.11,0.93,1.13,-1.5,-0.3,31.8,0.7,0.06,-0.03,0.71
1697353648.33,-0.14,0.93,0.99,-1,-1.4,32.4,0.7,0.06,-0.03,0.71
1697353648.34,-0.14,0.93,0.99,-1,-1.4,32.4,0.7,0.06,-0.03,0.71
1697353648.35,-0.14,0.93,0.99,-1,-1.4,32.4,0.7,0.06,-0.03,0.71
1697353648.36,-0.14,0.93,0.99,-1,-1.4,32.4,0.7,0.06,-0.03,0.71
1697353648.37,-0.14,0.93,0.99,-1,-1.4,32.4,0.7,0.06,-0.03,0.71
1697353648.38,-0.14,0.93,0.99,-1,-1.4,32.4,0.7,0.06,-0.03,0.71
1697353648.39,-0.14,0.93,0.99,-1,-1.4,32.4,0.7,0.06,-0.03,0.71
1697353648.4,-0.14,0.93,0.99,-1,-1.4,32.4,0.7,0.06,-0.03,0.71
1697353648.41,-0.14,0.93,0.99,-1,-1.4,32.4,0.7,0.06,-0.03,0.71
1697353648.42,-0.14,0.93,0.99,-1,-1.4,32.4,0.7,0.06,-0.03,0.71
1697353648.43,-0.14,0.93,0.99,-1,-1.4,32.4,0.7,0.06,-0.03,0.71
1697353648.44,-0.14,0.93,0.99,-1,-1.4,32.4,0.7,0.06,-0.03,0.71
1697353648.45,-0.14,0.93,0.99,-1,-1.4,32.4,0.7,0.06,-0.03,0.71
1697353648.46,-0.14,0.87,0.99,-0.6,-1,34,0.67,0.06,-0.03,0.74
1697353648.47,-0.17,0.73,1,1,-1.4,34.1,0.66,0.06,-0.03,0.74
1697353648.48,-0.19,0.78,1.2,2,-1.7,34.1,0.66,0.06,-0.03,0.75
1697353648.49,-0.21,0.66,0.95,1.4,-1.7,34.5,0.66,0.06,-0.03,0.75
1697353648.5,-0.13,0.68,0.91,0.6,-0.7,34.2,0.66,0.06,-0.03,0.75
1697353648.51,-0.15,0.69,1.01,0.6,-0.7,34.2,0.66,0.06,-0.03,0.75
1697353648.52,-0.15,0.69,1.01,-0.7,-0.2,33.9,0.65,0.06,-0.03,0.75
1697353648.53,-0.11,0.75,0.97,1.5,2.1,33.3,0.65,0.06,-0.03,0.76
1697353648.54,-0.02,0.56,0.93,2,1.6,31.8,0.65,0.06,-0.03,0.76
1697353648.55,0.03,0.44,1.25,-0.1,0.8,30.5,0.65,0.06,-0.03,0.76
1697353648.56,-0.09,0.49,1.22,-2.1,-0.3,29.2,0.64,0.06,-0.03,0.76
1697353648.57,-0.08,0.3,1.03,-4.4,-2.5,27.3,0.64,0.06,-0.03,0.76
1697353648.58,-0.24,0.69,1.25,-5.8,-3.8,26.7,0.64,0.06,-0.03,0.77
1697353648.59,0.01,0.88,0.78,-3.5,-4.3,26.9,0.64,0.06,-0.03,0.77
1697353648.6,0.01,0.88,0.78,-3.5,-4.3,26.9,0.64,0.06,-0.04,0.77
1697353648.61,-0.25,0.63,1.2,-3.5,-4.3,26.9,0.64,0.06,-0.04,0.77
1697353648.62,-0.14,0.72,0.99,1.2,-4.8,25.7,0.63,0.06,-0.04,0.77
1697353648.63,-0.22,0.25,1.01,4.1,-4.1,25.5,0.63,0.06,-0.04,0.77
1697353648.64,-0.08,0.16,1,5.1,-2.2,24.2,0.63,0.06,-0.04,0.77
1697353648.65,-0.21,0.18,1.01,2.4,-1.3,22.7,0.63,0.06,-0.04,0.77
1697353648.66,-0.2,0.22,1.27,-1.5,-0.6,21.4,0.63,0.06,-0.04,0.78
1697353648.67,-0.08,0.49,0.96,-4.7,0.4,20.6,0.63,0.06,-0.04,0.78
1697353648.68,-0.21,0.7,1.12,-5.1,1.4,20.7,0.63,0.06,-0.04,0.78
1697353648.69,-0.23,0.54,1.13,1.2,1.3,21.4,0.62,0.06,-0.04,0.78
1697353648.7,-0.22,0.24,1.13,4.4,1.4,21.5,0.62,0.06,-0.04,0.78
1697353648.71,-0.13,0.16,1.18,1.4,1.4,21.2,0.62,0.06,-0.04,0.78
1697353648.72,-0.09,0.44,1.08,-3.9,0.2,20.1,0.62,0.06,-0.04,0.78
1697353648.73,-0.12,0.37,1.24,-3.3,0.1,20,0.62,0.06,-0.04,0.78
1697353648.74,-0.01,0.59,1.04,0.5,-0.3,19.8,0.62,0.06,-0.04,0.78
1697353648.75,0.01,0.47,0.81,5.5,-0.6,19.1,0.62,0.06,-0.04,0.79
1697353648.76,-0.11,0.1,0.98,5.6,-0.3,17.6,0.61,0.06,-0.04,0.79
1697353648.77,-0.11,0.1,0.98,5.6,-0.3,17.6,0.61,0.06,-0.04,0.79
1697353648.78,-0.15,-0.1,0.8,-2,0.1,13.4,0.61,0.06,-0.04,0.79
1697353648.79,-0.25,-0.04,1.42,-6.3,0.4,10.6,0.61,0.06,-0.04,0.79
1697353648.8,-0.07,0.32,0.71,-4.6,0.5,9.2,0.61,0.06,-0.04,0.79
1697353648.81,-0.13,0.41,1.21,-0.7,0.1,8.6,0.61,0.06,-0.04,0.79
1697353648.82,-0.14,0.19,0.96,1.6,-0.2,7.3,0.61,0.06,-0.04,0.79
1697353648.83,-0.19,-0.19,0.86,1.6,-0.2,7.3,0.61,0.06,-0.04,0.79
1697353648.84,-0.24,-0.4,1.02,-5.1,0.5,2.2,0.61,0.06,-0.04,0.79
1697353648.85,-0.14,-0.41,0.92,-5.1,0.5,2.2,0.61,0.06,-0.04,0.79
1697353648.86,-0.14,-0.41,0.92,-8.6,0.8,-0.8,0.61,0.06,-0.04,0.79
1697353648.87,-0.14,-0.41,0.92,-8.6,0.8,-0.8,0.61,0.06,-0.04,0.79
1697353648.88,-0.14,-0.41,0.92,-8.6,0.8,-0.8,0.61,0.06,-0.04,0.79
1697353648.89,-0.14,-0.41,0.92,-8.6,0.8,-0.8,0.61,0.06,-0.04,0.79
1697353648.9,-0.14,-0.41,0.92,-8.6,0.8,-0.8,0.61,0.06,-0.04,0.79
1697353648.91,-0.14,-0.41,0.92,-8.6,0.8,-0.8,0.61,0.06,-0.04,0.79
1697353648.92,-0.14,-0.41,0.92,-8.6,0.8,-0.8,0.61,0.06,-0.04,0.79
1697353648.93,-0.14,-0.41,0.92,-8.6,0.8,-0.8,0.61,0.06,-0.04,0.79
1697353648.94,-0.14,-0.41,0.92,-8.6,0.8,-0.8,0.61,0.06,-0.04,0.79
1697353648.95,-0.14,-0.41,0.92,-8.6,0.8,-0.8,0.61,0.06,-0.04,0.79
1697353648.96,-0.14,-0.41,0.92,-8.6,0.8,-0.8,0.61,0.06,-0.04,0.79
1697353648.97,-0.14,-0.41,0.92,-8.6,0.8,-0.8,0.61,0.06,-0.04,0.79
1697353648.98,-0.14,-0.41,0.92,-8.6,0.8,-0.8,0.61,0.06,-0.04,0.79
1697353648.99,-0.09,-0.74,0.87,-6.4,-2.1,-26.9,0.62,0.05,-0.04,0.78
1697353649,-0.09,-0.74,0.87,-7.3,-1.6,-28.3,0.62,0.05,-0.04,0.78
1697353649.01,-0.08,-0.7,0.9,-5.8,-0.7,-29.9,0.63,0.05,-0.04,0.78
1697353649.02,-0.24,-0.67,1.25,-1.7,0,-31.2,0.63,0.05,-0.04,0.77
1697353649.03,-0.2,-0.86,0.9,0,0.9,-32.7,0.63,0.05,-0.04,0.77
1697353649.04,-0.15,-0.94,1.06,-1.7,1.6,-34.1,0.63,0.05,-0.04,0.77
1697353649.05,-0.11,-1.23,0.92,-5.2,1.8,-36.2,0.64,0.05,-0.04,0.77
1697353649.06,-0.17,-1.1,0.91,-9,2.5,-38.7,0.64,0.05,-0.04,0.77
1697353649.07,-0.09,-0.87,0.87,-9.4,3.4,-39.6,0.64,0.05,-0.04,0.76
1697353649.08,-0.22,-0.74,1.12,-5.8,3.2,-40.4,0.64,0.05,-0.04,0.76
1697353649.09,-0.23,-0.78,1,0.2,3,-41,0.65,0.05,-0.04,0.76
1697353649.1,-0.19,-0.95,1.18,4.3,2.5,-41.7,0.65,0.05,-0.04,0.76
1697353649.11,-0.03,-1.23,0.7,2.6,1.7,-42.7,0.65,0.05,-0.04,0.76
1697353649.12,-0.23,-1.2,1.28,-2,1.6,-43.4,0.66,0.05,-0.04,0.75
1697353649.13,-0.17,-0.96,1.09,-5,1.6,-44.1,0.66,0.05,-0.04,0.75
1697353649.14,-0.19,-0.91,0.91,-4.5,1.7,-44.2,0.66,0.05,-0.04,0.75
1697353649.15,-0.08,-0.91,0.87,-1.8,1.6,-44,0.66,0.05,-0.04,0.75
1697353649.16,-0.14,-0.94,1.1,0.2,1.1,-43.7,0.67,0.05,-0.04,0.74
1697353649.17,-0.14,-0.74,0.94,1.1,1.2,-43,0.67,0.05,-0.04,0.74
1697353649.18,-0.11,-1.23,0.74,0,0.3,-43.4,0.67,0.05,-0.04,0.74
1697353649.19,-0.19,-1.23,0.81,-3.4,0.3,-44.4,0.67,0.05,-0.04,0.74
1697353649.2,-0.23,-1.01,0.83,-6,0.5,-45.1,0.68,0.05,-0.04,0.73
1697353649.21,-0.21,-0.96,1.15,-6.5,1,-45.1,0.68,0.05,-0.04,0.73
1697353649.22,-0.19,-0.85,0.95,-3.8,1.3,-45.4,0.68,0.05,-0.04,0.73
1697353649.23,-0.22,-0.97,1.1,-3.8,1.3,-45.4,0.68,0.05,-0.04,0.73
1697353649.24,-0.2,-1.1,1.03,1.4,1.5,-46.4,0.69,0.05,-0.04,0.72
1697353649.25,-0.21,-1.17,0.94,0.5,1.4,-46.9,0.69,0.05,-0.04,0.72
1697353649.26,-0.24,-1.09,1.11,0.1,1.2,-47.8,0.69,0.05,-0.04,0.72
1697353649.27,-0.24,-1.09,1.11,0.1,1.2,-47.8,0.7,0.05,-0.04,0.71
1697353649.28,-0.14,-1.12,1.21,-0.5,1,-48.6,0.7,0.05,-0.04,0.71
1697353649.29,-0.14,-1.12,1.21,-0.5,1,-48.6,0.7,0.05,-0.04,0.71
1697353649.3,-0.05,-0.91,0.73,-2,0.9,-49,0.71,0.05,-0.04,0.71
1697353649.31,-0.05,-0.91,0.73,-2,1.4,-48.9,0.71,0.05,-0.04,0.7
1697353649.32,-0.26,-0.92,1.14,-0.4,1.4,-48.6,0.71,0.05,-0.04,0.7
1697353649.33,-0.26,-0.92,1.14,0.2,1.2,-48.3,0.72,0.05,-0.04,0.7
1697353649.34,-0.05,-1.08,0.54,0.1,1.4,-47.8,0.72,0.05,-0.04,0.69
1697353649.35,-0.15,-1.11,0.91,-0.1,1.3,-47.9,0.72,0.05,-0.04,0.69
1697353649.36,-0.21,-1.09,0.99,-0.8,0.9,-48.6,0.72,0.05,-0.04,0.69
1697353649.37,-0.21,-1.15,1.26,-2.3,0.4,-48.8,0.73,0.05,-0.04,0.68
1697353649.38,-0.26,-0.91,0.91,-2.3,-0.2,-49.2,0.73,0.05,-0.04,0.68
1697353649.39,-0.13,-0.86,0.9,0.6,-0.5,-49.2,0.73,0.05,-0.04,0.68
1697353649.4,-0.13,-0.86,0.9,0.6,-0.5,-49.2,0.73,0.05,-0.04,0.68
1697353649.41,-0.13,-0.86,0.9,0.6,-0.5,-49.2,0.73,0.05,-0.04,0.68
1697353649.42,-0.13,-0.86,0.9,0.6,-0.5,-49.2,0.73,0.05,-0.04,0.68
1697353649.43,-0.13,-0.86,0.9,0.6,-0.5,-49.2,0.73,0.05,-0.04,0.68
1697353649.44,-0.13,-0.86,0.9,0.6,-0.5,-49.2,0.73,0.05,-0.04,0.68
1697353649.45,-0.13,-0.86,0.9,0.6,-0.5,-49.2,0.73,0.05,-0.04,0.68
1697353649.46,-0.13,-0.86,0.9,0.6,-0.5,-49.2,0.73,0.05,-0.04,0.68
1697353649.47,-0.13,-0.86,0.9,0.6,-0.5,-49.2,0.73,0.05,-0.04,0.68
1697353649.48,-0.13,-0.86,0.9,0.6,-0.5,-49.2,0.73,0.05,-0.04,0.68
1697353649.49,-0.13,-0.86,0.9,0.6,-0.5,-49.2,0.73,0.05,-0.04,0.68
1697353649.5,-0.13,-0.86,0.9,0.6,-0.5,-49.2,0.73,0.05,-0.04,0.68
1697353649.51,-0.13,-0.86,0.9,0.6,-0.5,-49.2,0.73,0.05,-0.04,0.68
1697353649.52,-0.15,-0.84,1.01,0.6,-0.5,-49.2,0.77,0.05,-0.03,0.64
1697353649.53,-0.17,-0.76,0.86,0.6,1.9,-49.8,0.77,0.05,-0.03,0.63
1697353649.54,-0.21,-0.96,1.01,2.9,1.5,-49.1,0.77,0.05,-0.03,0.63
1697353649.55,-0.08,-0.93,0.84,3,1.2,-48.7,0.78,0.05,-0.03,0.63
1697353649.56,-0.12,-0.94,0.61,2.2,1.4,-48.3,0.78,0.05,-0.03,0.62
1697353649.57,-0.16,-1.12,1.02,1.5,1.7,-47.8,0.78,0.05,-0.03,0.62
1697353649.58,-0.11,-1,1.01,0.2,1.6,-47.6,0.78,0.05,-0.03,0.62
1697353649.59,-0.19,-0.93,0.92,0,1.3,-47,0.79,0.05,-0.03,0.61
1697353649.6,-0.02,-0.85,0.88,0.1,1.5,-46.2,0.79,0.05,-0.03,0.61
1697353649.61,-0.21,-0.78,0.83,1.6,1.7,-45.4,0.79,0.05,-0.03,0.61
1697353649.62,-0.19,-0.79,1.18,2.6,2.1,-43.9,0.79,0.05,-0.03,0.6
1697353649.63,-0.17,-0.77,0.83,4.1,2,-41.8,0.8,0.05,-0.03,0.6
1697353649.64,-0.19,-0.67,0.98,4.8,1.8,-40.2,0.8,0.05,-0.03,0.6
1697353649.65,-0.04,-0.6,0.94,4.8,1.8,-40.2,0.8,0.05,-0.03,0.6
1697353649.66,-0.04,-0.45,0.87,5.4,1.7,-36.1,0.8,0.05,-0.03,0.59
1697353649.67,-0.04,-0.45,0.87,5.4,1.7,-36.1,0.8,0.05,-0.03,0.59
1697353649.68,-0.15,-0.37,1.27,5.3,1.6,-34.2,0.81,0.06,-0.03,0.59
1697353649.69,-0.09,-0.31,1.16,6.9,1.4,-29.9,0.81,0.06,-0.02,0.59
1697353649.7,-0.09,-0.31,1.16,7,1.2,-27.7,0.81,0.06,-0.02,0.58
1697353649.71,-0.11,-0.27,0.87,6.4,1.3,-25,0.81,0.06,-0.02,0.58
1697353649.72,-0.07,-0.3,1,5,1.4,-22.5,0.81,0.06,-0.02,0.58
1697353649.73,0.04,-0.07,0.79,2.8,1.5,-20.5,0.81,0.06,-0.02,0.58
1697353649.74,-0.12,0.17,1.37,0.8,1.1,-17.7,0.81,0.06,-0.02,0.58
1697353649.75,-0,0.33,0.73,1.3,0.2,-14.2,0.82,0.06,-0.02,0.58
1697353649.76,-0.18,0.39,0.97,5.8,-0.1,-10.9,0.82,0.06,-0.02,0.57
1697353649.77,-0.13,0.22,1.08,9.7,-0.1,-7.4,0.82,0.06,-0.02,0.57
1697353649.78,-0.11,0.02,1.12,10.2,-0.1,-4.6,0.82,0.06,-0.02,0.57
1697353649.79,-0.1,0.14,1,8.1,-0.7,-2.2,0.82,0.06,-0.02,0.57
1697353649.8,0,0.21,0.95,5.1,-1.1,0,0.82,0.06,-0.02,0.57
1697353649.81,-0.17,0.31,1.16,3.6,-1.6,1.7,0.82,0.06,-0.02,0.57
1697353649.82,0.02,0.47,1.12,4.1,-1.9,3.3,0.82,0.06,-0.02,0.57
1697353649.83,-0.12,0.4,1,6.3,-2.3,5.4,0.82,0.06,-0.02,0.57
1697353649.84,0.05,0.34,0.75,8.4,-2.3,7.2,0.82,0.06,-0.02,0.57
1697353649.85,-0.01,0.23,1.02,8.7,-1.8,8,0.82,0.06,-0.02,0.57
1697353649.86,-0.16,0.15,1.19,8.7,-1.8,8,0.82,0.06,-0.02,0.58
1697353649.87,-0.15,0.3,1.06,0.1,-1,8.9,0.81,0.06,-0.02,0.58
1697353649.88,-0.13,0.4,1.02,-4.6,-0.8,9.4,0.81,0.06,-0.02,0.58
1697353649.89,-0.19,0.54,1.09,-2.4,-0.4,9.3,0.81,0.06,-0.02,0.58
1697353649.9,-0.18,0.36,1.15,1.9,-0.1,9.2,0.81,0.06,-0.02,0.58
1697353649.91,-0.18,0.36,1.15,1.9,-0.1,9.2,0.81,0.06,-0.02,0.58
1697353649.92,-0.18,0.36,1.15,1.9,-0.1,9.2,0.81,0.06,-0.02,0.58
1697353649.93,-0.18,0.36,1.15,1.9,-0.1,9.2,0.81,0.06,-0.02,0.58
1697353649.94,-0.18,0.36,1.15,1.9,-0.1,9.2,0.81,0.06,-0.02,0.58
1697353649.95,-0.18,0.36,1.15,1.9,-0.1,9.2,0.81,0.06,-0.02,0.58
1697353649.96,-0.18,0.36,1.15,1.9,-0.1,9.2,0.81,0.06,-0.02,0.58
1697353649.97,-0.18,0.36,1.15,1.9,-0.1,9.2,0.81,0.06,-0.02,0.58
1697353649.98,-0.18,0.36,1.15,1.9,-0.1,9.2,0.81,0.06,-0.02,0.58
1697353649.99,-0.18,0.36,1.15,1.9,-0.1,9.2,0.81,0.06,-0.02,0.58
1697353650,-0.18,0.36,1.15,1.9,-0.1,9.2,0.81,0.06,-0.02,0.58
1697353650.01,-0.18,0.36,1.15,1.9,-0.1,9.2,0.81,0.06,-0.02,0.58
1697353650.02,-0.18,0.36,1.15,1.9,-0.1,9.2,0.81,0.06,-0.02,0.58
1697353650.03,-0.18,0.36,1.15,1.9,-0.1,9.2,0.81,0.06,-0.02,0.58
1697353650.04,-0.08,0.72,0.98,2.2,0.4,15.7,0.81,0.06,-0.02,0.59
1697353650.05,-0.08,0.72,0.98,3.6,1.4,19,0.81,0.06,-0.02,0.59
1697353650.06,-0.12,0.74,1.12,3.6,1.4,19,0.81,0.06,-0.02,0.59
1697353650.07,-0.12,0.74,1.12,4,1.9,21.5,0.8,0.06,-0.02,0.59
1697353650.08,-0.14,0.99,0.92,3.1,1.6,25,0.8,0.06,-0.02,0.59
1697353650.09,-0.18,0.99,1.2,4.3,0.8,28.8,0.8,0.06,-0.02,0.6
1697353650.1,-0.06,0.88,0.93,5.8,0.1,32.3,0.8,0.06,-0.02,0.6
1697353650.11,-0.17,0.82,0.97,6.9,-0.5,38.4,0.8,0.07,-0.02,0.6
1697353650.12,-0.17,0.82,0.97,6.9,-0.5,38.4,0.8,0.07,-0.02,0.6
1697353650.13,-0.2,0.88,1.12,6,0.3,40.3,0.79,0.07,-0.02,0.61
1697353650.14,-0.31,0.71,1.22,4.3,0.2,41.3,0.79,0.07,-0.02,0.61
1697353650.15,-0.31,0.84,1.45,2.9,0.5,41.7,0.79,0.07,-0.02,0.61
1697353650.16,-0.14,1.05,0.77,2.3,0.7,41.4,0.78,0.07,-0.02,0.62
1697353650.17,-0.1,1.04,0.74,2.3,2,42.5,0.78,0.07,-0.02,0.62
1697353650.18,-0.16,0.99,0.96,3.4,2.5,43.3,0.78,0.07,-0.02,0.62
1697353650.19,-0.3,0.95,1.25,2.8,2.8,43.2,0.78,0.07,-0.02,0.62
1697353650.2,-0.1,1.13,1.18,-0.3,2.3,43.8,0.78,0.07,-0.02,0.63
1697353650.21,-0.24,1.2,1.01,-2.5,0.5,45.8,0.77,0.07,-0.02,0.63
1697353650.22,-0.24,1.04,0.86,-0.2,-0.7,47,0.77,0.07,-0.02,0.64
1697353650.23,-0.19,1.09,0.71,1.1,0,47.5,0.77,0.07,-0.02,0.64
1697353650.24,-0.19,0.97,1.15,1.5,-0.1,48,0.76,0.07,-0.02,0.64
1697353650.25,-0.22,1.02,1.12,1.8,0.4,48.4,0.76,0.07,-0.02,0.64
1697353650.26,-0.09,1.01,0.88,2.2,0.2,48.8,0.76,0.07,-0.02,0.65
1697353650.27,-0.16,0.84,0.98,0,0.2,48.8,0.76,0.07,-0.02,0.65
1697353650.28,-0.19,0.95,1.14,-3,0.5,49.5,0.75,0.07,-0.02,0.65
1697353650.29,-0.1,1.1,0.67,-3.3,0.6,50.4,0.75,0.06,-0.02,0.66
1697353650.3,-0.21,1.08,1.08,-1.6,0.6,50.6,0.75,0.06,-0.02,0.66
1697353650.31,-0.2,1.11,0.77,-0.4,1.4,51,0.74,0.06,-0.02,0.67
1697353650.32,-0.2,1.11,0.77,-0.4,1.4,51,0.74,0.06,-0.02,0.67
1697353650.33,-0.23,0.87,1.07,-1.9,1.5,51.7,0.74,0.06,-0.02,0.67
1697353650.34,-0.25,1.2,1.16,-1.9,1.5,51.7,0.74,0.06,-0.02,0.67
1697353650.35,-0.19,1.24,0.91,-2.5,1.5,52.3,0.73,0.06,-0.02,0.68
1697353650.36,-0.19,1.24,0.91,1.6,1.1,52.8,0.73,0.06,-0.02,0.68
1697353650.37,-0.15,1.07,1.19,6,0.7,53,0.73,0.06,-0.02,0.68
1697353650.38,-0.17,0.81,1.06,6.4,0.6,53.1,0.72,0.06,-0.02,0.69
1697353650.39,-0.07,0.85,0.76,-3.6,-0.3,52,0.72,0.06,-0.02,0.69
1697353650.4,-0.07,0.85,0.76,-3.6,-0.3,52,0.72,0.06,-0.03,0.69
1697353650.41,-0.25,1.01,1.27,-4.5,0.2,52.1,0.71,0.06,-0.03,0.7
1697353650.42,-0.26,1.27,0.87,-1,1.2,52.3,0.71,0.06,-0.03,0.7
1697353650.43,-0.26,1.27,0.87,-1,1.2,52.3,0.71,0.06,-0.03,0.7
1697353650.44,-0.26,1.27,0.87,-1,1.2,52.3,0.71,0.06,-0.03,0.7
1697353650.45,-0.26,1.27,0.87,-1,1.2,52.3,0.71,0.06,-0.03,0.7
1697353650.46,-0.26,1.27,0.87,-1,1.2,52.3,0.71,0.06,-0.03,0.7
1697353650.47,-0.26,1.27,0.87,-1,1.2,52.3,0.71,0.06,-0.03,0.7
1697353650.48,-0.26,1.27,0.87,-1,1.2,52.3,0.71,0.06,-0.03,0.7
1697353650.49,-0.26,1.27,0.87,-1,1.2,52.3,0.71,0.06,-0.03,0.7
1697353650.5,-0.26,1.27,0.87,-1,1.2,52.3,0.71,0.06,-0.03,0.7
1697353650.51,-0.26,1.27,0.87,-1,1.2,52.3,0.71,0.06,-0.03,0.7
1697353650.52,-0.26,1.27,0.87,-1,1.2,52.3,0.71,0.06,-0.03,0.7
1697353650.53,-0.26,1.27,0.87,-1,1.2,52.3,0.71,0.06,-0.03,0.7
1697353650.54,-0.26,1.27,0.87,-1,1.2,52.3,0.71,0.06,-0.03,0.7
1697353650.55,-0.26,1.27,0.87,-1,1.2,52.3,0.71,0.06,-0.03,0.7
1697353650.56,-0.26,1.27,0.87,-1,1.2,52.3,0.71,0.06,-0.03,0.7
1697353650.57,-0.26,1.27,0.87,-1,1.2,52.3,0.71,0.06,-0.03,0.7
1697353650.58,-0.26,1.27,0.87,-1,1.2,52.3,0.71,0.06,-0.03,0.7
1697353650.59,-0.26,1.27,0.87,-1,1.2,52.3,0.71,0.06,-0.03,0.7
1697353650.6,-0.26,1.27,0.87,-1,1.2,52.3,0.71,0.06,-0.03,0.7
1697353650.61,-0.26,1.27,0.87,-1,1.2,52.3,0.71,0.06,-0.03,0.7
1697353650.62,-0.26,1.27,0.87,-1,1.2,52.3,0.71,0.06,-0.03,0.7
1697353650.63,-0.26,1.27,0.87,-1,1.2,52.3,0.71,0.06,-0.03,0.7
1697353650.64,-0.26,1.27,0.87,-1,1.2,52.3,0.71,0.06,-0.03,0.7
1697353650.65,0.01,0.46,1.02,-1.1,1.3,41,0.64,0.06,-0.03,0.77
1697353650.66,-0.24,0.4,1.42,-1.4,-0.3,38.1,0.64,0.06,-0.03,0.77
1697353650.67,-0.15,0.35,1.24,-3.7,-1.8,34.3,0.63,0.06,-0.03,0.77
1697353650.68,-0.16,0.24,0.91,-4.3,-2,32.6,0.63,0.06,-0.03,0.77
1697353650.69,-0.08,0.25,0.89,-5.4,-1.5,28.9,0.63,0.06,-0.03,0.78
1697353650.7,-0.21,0.23,0.91,-5.3,-0.8,25.5,0.63,0.06,-0.03,0.78
1697353650.71,-0.04,0.12,0.9,-5.3,-0.8,25.5,0.62,0.06,-0.03,0.78
1697353650.72,-0.04,0.12,0.9,-3.5,-0.3,22.3,0.62,0.06,-0.03,0.78
1697353650.73,-0.05,-0.18,0.54,-3,0.6,19.3,0.62,0.05,-0.03,0.78
1697353650.74,-0.05,-0.18,0.54,-3.8,1.2,16.3,0.62,0.05,-0.03,0.78
1697353650.75,-0.19,-0.25,1.42,-5.9,2,13.2,0.62,0.05,-0.03,0.78
1697353650.76,-0.02,-0.32,0.63,-8.1,2.3,10,0.62,0.05,-0.04,0.78
1697353650.77,-0.02,-0.51,1.04,-9.2,2.1,6.6,0.62,0.05,-0.04,0.78
1697353650.78,-0.21,-0.35,1.12,-9.8,1.4,2.6,0.62,0.05,-0.04,0.78
1697353650.79,-0.06,-0.64,1.04,-8.1,0.4,-2,0.62,0.05,-0.04,0.78
1697353650.8,-0.1,-0.76,0.93,-7.5,-0.2,-6,0.62,0.05,-0.04,0.78
1697353650.81,-0.03,-0.8,0.84,-8.3,-1,-10.1,0.62,0.05,-0.04,0.78
1697353650.82,-0.25,-0.81,1.24,-10.9,-1.3,-14.1,0.62,0.05,-0.04,0.78
1697353650.83,-0.12,-0.83,0.95,-12.3,-1.4,-19.5,0.62,0.05,-0.04,0.78
1697353650.84,-0.18,-0.83,1.24,-10.7,-1,-22.6,0.62,0.05,-0.04,0.78
1697353650.85,-0.21,-0.73,0.91,-7.6,-1.1,-26.4,0.63,0.05,-0.04,0.78
1697353650.86,-0.29,-0.88,1.14,-6.1,-0.8,-27.7,0.63,0.05,-0.04,0.78
1697353650.87,-0.15,-1.01,0.93,-3.4,-0.8,-30.2,0.63,0.05,-0.04,0.78
1697353650.88,-0.02,-1.03,0.97,-3.1,-0.6,-33.9,0.63,0.05,-0.04,0.77
1697353650.89,-0.23,-1.04,1.1,-4.5,-0.7,-36,0.64,0.05,-0.04,0.77
1697353650.9,-0.15,-0.9,1.07,-5,-0.5,-37.7,0.64,0.05,-0.04,0.77
1697353650.91,-0.11,-0.95,1.13,-3.6,-0.3,-39.2,0.64,0.05,-0.04,0.77
1697353650.92,-0.27,-0.87,1.18,-1.6,-0.4,-40.7,0.64,0.05,-0.04,0.77
1697353650.93,-0.19,-0.89,0.85,-0.5,-0.6,-41.8,0.64,0.05,-0.04,0.76
1697353650.94,-0.17,-0.99,1.14,0.6,-0.3,-42.6,0.65,0.05,-0.04,0.76
1697353650.95,-0.09,-0.96,0.76,0.4,-0.4,-43.4,0.65,0.05,-0.04,0.76
1697353650.96,-0.17,-0.96,1.11,-0.1,-0.6,-43.9,0.65,0.05,-0.04,0.76
1697353650.97,-0.24,-0.93,1.06,-0.2,-0.6,-44.2,0.66,0.05,-0.04,0.75
1697353650.98,-0.17,-0.95,0.81,-0.4,-0.2,-44.6,0.66,0.05,-0.04,0.75
1697353650.99,-0.2,-0.93,1.04,-1,0.3,-44.9,0.66,0.05,-0.04,0.75
1697353651,-0.1,-0.87,1.03,-2.1,0.5,-45.3,0.66,0.05,-0.04,0.74
1697353651.01,-0.16,-0.81,0.97,-2.5,1,-46.1,0.67,0.05,-0.04,0.74
1697353651.02,-0.18,-0.86,1.07,-0.3,1.1,-46.8,0.67,0.05,-0.04,0.74
1697353651.03,-0.13,-0.99,0.83,1.7,0.9,-47.7,0.67,0.05,-0.04,0.74
1697353651.04,-0.13,-0.99,0.83,1.7,0.9,-47.7,0.67,0.05,-0.04,0.74
1697353651.05,-0.13,-0.99,0.83,1.7,0.9,-47.7,0.67,0.05,-0.04,0.74
1697353651.06,-0.13,-0.99,0.83,1.7,0.9,-47.7,0.67,0.05,-0.04,0.74
1697353651.07,-0.13,-0.99,0.83,1.7,0.9,-47.7,0.67,0.05,-0.04,0.74
1697353651.08,-0.13,-0.99,0.83,1.7,0.9,-47.7,0.67,0.05,-0.04,0.74
1697353651.09,-0.13,-0.99,0.83,1.7,0.9,-47.7,0.67,0.05,-0.04,0.74
1697353651.1,-0.13,-0.99,0.83,1.7,0.9,-47.7,0.67,0.05,-0.04,0.74
1697353651.11,-0.13,-0.99,0.83,1.7,0.9,-47.7,0.67,0.05,-0.04,0.74
1697353651.12,-0.13,-0.99,0.83,1.7,0.9,-47.7,0.67,0.05,-0.04,0.74
1697353651.13,-0.13,-0.99,0.83,1.7,0.9,-47.7,0.67,0.05,-0.04,0.74
1697353651.14,-0.13,-0.99,0.83,1.7,0.9,-47.7,0.67,0.05,-0.04,0.74
1697353651.15,-0.13,-0.99,0.83,1.7,0.9,-47.7,0.67,0.05,-0.04,0.74
1697353651.16,-0.13,-0.99,0.83,1.7,0.9,-47.7,0.67,0.05,-0.04,0.74
1697353651.17,-0.26,-0.92,1.17,-0.2,1.5,-50.7,0.72,0.05,-0.04,0.69
1697353651.18,-0.26,-0.92,1.17,0.8,2.4,-51,0.72,0.05,-0.04,0.69
1697353651.19,-0.01,-0.87,0.79,0.8,2.7,-50.7,0.72,0.05,-0.04,0.69
1697353651.2,-0.14,-1.02,0.89,1.7,2.6,-50.8,0.72,0.05,-0.04,0.69
1697353651.21,-0.18,-1.06,1.08,1.2,1.7,-51.7,0.73,0.05,-0.04,0.68
1697353651.22,-0.19,-0.95,1.1,-0.9,1,-52.1,0.73,0.05,-0.04,0.68
1697353651.23,-0.26,-0.78,1.26,-1.4,0.5,-52.3,0.73,0.05,-0.04,0.68
1697353651.24,-0.26,-0.78,1.26,0,0.3,-52.6,0.74,0.05,-0.04,0.67
1697353651.25,-0.1,-0.82,0.75,1.6,0.3,-52.3,0.74,0.05,-0.03,0.67
1697353651.26,-0.21,-0.92,0.84,2.3,0.6,-52,0.74,0.05,-0.03,0.67
1697353651.27,-0.33,-0.89,1.19,1.8,1.1,-51.9,0.75,0.05,-0.03,0.66
1697353651.28,-0.2,-1.01,0.87,0,1.3,-51.4,0.75,0.05,-0.03,0.66
1697353651.29,-0.24,-0.99,1.1,0,1.3,-51.4,0.75,0.05,-0.03,0.66
1697353651.3,-0.11,-0.97,0.7,-1.6,2.2,-51.4,0.76,0.05,-0.03,0.65
1697353651.31,-0.15,-0.85,1.45,-1.4,1.6,-51.5,0.76,0.05,-0.03,0.65
1697353651.32,-0.04,-0.88,0.8,0.6,0.3,-51.6,0.76,0.05,-0.03,0.64
1697353651.33,-0.1,-0.84,1.11,2,-1.1,-51.9,0.77,0.05,-0.03,0.64
1697353651.34,-0.08,-0.91,1.13,1.4,-2.2,-52.3,0.77,0.05,-0.03,0.63
1697353651.35,-0.11,-0.99,0.78,0.4,-2.6,-52.7,0.77,0.05,-0.03,0.63
1697353651.36,-0.06,-0.88,0.89,-0.8,-2.7,-52.6,0.78,0.05,-0.03,0.63
1697353651.37,-0.18,-0.77,1.03,-0.5,-2.5,-52.3,0.78,0.05,-0.03,0.62
1697353651.38,-0.1,-0.8,0.5,0.5,-1.4,-52.1,0.78,0.05,-0.03,0.62
1697353651.39,-0.26,-0.88,1.41,0.5,0.3,-51.6,0.78,0.05,-0.03,0.62
1697353651.4,-0.18,-0.92,0.74,0.2,2,-51.6,0.79,0.05,-0.03,0.61
1697353651.41,-0.24,-0.89,0.76,0.2,2,-51.6,0.79,0.05,-0.03,0.61
1697353651.42,-0.29,-0.91,1.35,0,2.9,-51.1,0.79,0.05,-0.03,0.61
1697353651.43,-0.25,-0.89,0.73,0.5,3.9,-50.9,0.8,0.05,-0.03,0.6
1697353651.44,-0.25,-0.89,0.73,1.1,4.1,-50.9,0.8,0.05,-0.03,0.6
1697353651.45,-0.15,-0.96,1.02,0.2,4.1,-50.6,0.8,0.05,-0.03,0.6
1697353651.46,-0.1,-0.94,0.88,0.1,3.8,-51,0.8,0.05,-0.03,0.59
1697353651.47,-0.14,-0.92,0.98,0,2.7,-51.4,0.81,0.05,-0.03,0.59
1697353651.48,-0.06,-0.9,1.14,0.7,1.4,-52.1,0.81,0.05,-0.03,0.58
1697353651.49,-0.19,-0.92,1.03,1.8,0.3,-52.7,0.81,0.05,-0.03,0.58
1697353651.5,-0.21,-0.95,1.33,2.2,-0.5,-53.1,0.82,0.05,-0.03,0.58
1697353651.51,-0.07,-0.92,0.79,1,-1.2,-53.9,0.82,0.06,-0.03,0.57
1697353651.52,-0.07,-0.92,0.79,-0.6,-1.6,-54,0.82,0.06,-0.03,0.57
1697353651.53,-0.16,-0.72,1.09,-1.1,-1.3,-54.2,0.82,0.06,-0.03,0.56
1697353651.54,-0.16,-0.72,1.09,-0.5,-0.6,-53.9,0.82,0.06,-0.03,0.56
1697353651.55,-0.15,-0.78,0.86,0.8,0,-53.2,0.83,0.06,-0.03,0.56
1697353651.56,-0.21,-0.91,0.82,1.6,0.4,-52.7,0.83,0.06,-0.03,0.56
1697353651.57,-0.21,-0.92,1.18,0.7,0.8,-52.3,0.83,0.06,-0.03,0.55
1697353651.58,-0.21,-0.92,1.18,0.7,0.8,-52.3,0.83,0.06,-0.03,0.55
1697353651.59,-0.21,-0.92,1.18,0.7,0.8,-52.3,0.83,0.06,-0.03,0.55
1697353651.6,-0.21,-0.92,1.18,0.7,0.8,-52.3,0.83,0.06,-0.03,0.55
1697353651.61,-0.21,-0.92,1.18,0.7,0.8,-52.3,0.83,0.06,-0.03,0.55
1697353651.62,-0.21,-0.92,1.18,0.7,0.8,-52.3,0.83,0.06,-0.03,0.55
1697353651.63,-0.21,-0.92,1.18,0.7,0.8,-52.3,0.83,0.06,-0.03,0.55
1697353651.64,-0.21,-0.92,1.18,0.7,0.8,-52.3,0.83,0.06,-0.03,0.55
1697353651.65,-0.21,-0.92,1.18,0.7,0.8,-52.3,0.83,0.06,-0.03,0.55
1697353651.66,-0.21,-0.92,1.18,0.7,0.8,-52.3,0.83,0.06,-0.03,0.55
1697353651.67,-0.21,-0.92,1.18,0.7,0.8,-52.3,0.83,0.06,-0.03,0.55
1697353651.68,-0.21,-0.92,1.18,0.7,0.8,-52.3,0.83,0.06,-0.03,0.55
1697353651.69,-0.21,-0.92,1.18,0.7,0.8,-52.3,0.83,0.06,-0.03,0.55
1697353651.7,-0.2,0.44,2.15,4.8,-2.2,-25.8,0.86,0.06,-0.02,0.51
1697353651.71,-0.13,0.37,1.71,6.8,-1.3,-20.6,0.86,0.06,-0.02,0.51
1697353651.72,-0.22,0.44,1.87,12.3,-3,-15.5,0.86,0.06,-0.02,0.51
1697353651.73,-0.18,0.12,1.16,20.3,-8.2,-7.8,0.86,0.06,-0.02,0.51
1697353651.74,-0.14,0.02,0.01,14.1,-7.4,-4.4,0.86,0.07,-0.02,0.51
1697353651.75,-0.1,-0.15,-0.07,14.1,-7.4,-4.4,0.86,0.07,-0.02,0.51
1697353651.76,-0.2,0.61,0.35,0.7,-2.5,-1,0.86,0.07,-0.02,0.51
1697353651.77,-0.56,1.46,1.94,-11.1,1.8,1.1,0.86,0.07,-0.02,0.51
1697353651.78,-0.56,1.46,1.94,-12.2,5.7,3.8,0.86,0.07,-0.02,0.51
1697353651.79,-0.56,1.46,1.94,-12.2,5.7,3.8,0.86,0.07,-0.02,0.51
1697353651.8,-0.56,1.46,1.94,-12.2,5.7,3.8,0.86,0.07,-0.02,0.51
1697353651.81,-0.56,1.46,1.94,-12.2,5.7,3.8,0.86,0.07,-0.02,0.51
1697353651.82,-0.56,1.46,1.94,-12.2,5.7,3.8,0.86,0.07,-0.02,0.51
1697353651.83,-0.56,1.46,1.94,-12.2,5.7,3.8,0.86,0.07,-0.02,0.51
1697353651.84,-0.56,1.46,1.94,-12.2,5.7,3.8,0.86,0.07,-0.02,0.51
1697353651.85,-0.14,1.22,0.69,-3.3,-2.2,49.3,0.85,0.07,-0.02,0.52
1697353651.86,-0.21,1.25,1.02,-5,-3.3,53.7,0.85,0.07,-0.02,0.53
1697353651.87,-0.32,1.17,1.5,-2.8,-3.4,56.7,0.85,0.07,-0.02,0.53
1697353651.88,-0.14,1.2,0.46,0.3,-3,58.5,0.84,0.07,-0.02,0.54
1697353651.89,-0.25,0.94,1.25,3.9,-1.9,59,0.84,0.07,-0.02,0.54
1697353651.9,-0.27,0.83,1.04,5.7,-0.7,59.3,0.83,0.07,-0.02,0.55
1697353651.91,-0.18,0.66,1.14,6.2,0,57.8,0.83,0.07,-0.02,0.55
1697353651.92,-0.18,0.66,1.14,6.2,0,57.8,0.83,0.07,-0.02,0.55
1697353651.93,-0.2,0.81,1.08,-2,0,53.9,0.83,0.07,-0.02,0.56
1697353651.94,-0.14,1.07,0.75,-7.1,0.6,50.9,0.83,0.07,-0.02,0.56
1697353651.95,-0.22,1,0.95,-7.3,0.9,49.6,0.82,0.07,-0.02,0.57
1697353651.96,-0.22,1,0.95,-3.1,0.7,48.5,0.82,0.07,-0.02,0.57
1697353651.97,-0.12,0.9,0.89,0.8,1,47.6,0.82,0.07,-0.02,0.57
1697353651.98,-0.2,0.54,1.15,2.4,1.2,47.2,0.81,0.07,-0.02,0.58
1697353651.99,-0.19,0.55,0.67,0.1,1.2,46.4,0.81,0.07,-0.02,0.58
1697353652,-0.19,0.55,0.67,-3.1,1.2,45.5,0.81,0.07,-0.02,0.58
1697353652.01,-0.06,0.66,0.68,-4.2,1.1,45.3,0.81,0.07,-0.02,0.58
1697353652.02,-0.06,0.66,0.68,-2.8,0.9,45.1,0.81,0.07,-0.02,0.58
1697353652.03,-0.12,0.69,1.13,-0.7,0.9,44.8,0.81,0.07,-0.02,0.59
1697353652.04,-0.04,0.54,0.93,-0.1,0.8,44.6,0.8,0.07,-0.02,0.59
1697353652.05,-0.1,0.41,1.07,-0.5,0.7,43.8,0.8,0.07,-0.02,0.59
1697353652.06,-0.17,0.34,0.85,-2.8,0.7,42.8,0.8,0.07,-0.02,0.6
1697353652.07,-0.15,0.39,1.16,-4.8,0.5,41.4,0.8,0.07,-0.02,0.6
1697353652.08,-0.3,0.53,0.96,-4.6,0.6,39.2,0.79,0.07,-0.02,0.6
1697353652.09,-0.23,0.45,0.67,-4,1.6,37.9,0.79,0.07,-0.03,0.61
1697353652.1,-0.17,0.53,1.04,0.5,2.9,35.6,0.79,0.06,-0.03,0.61
1697353652.11,-0.18,0.23,1.04,1.3,3.3,34.1,0.79,0.06,-0.03,0.61
1697353652.12,-0.09,0.24,1.04,0.8,3.6,31.9,0.79,0.06,-0.03,0.61
1697353652.13,-0.15,0.19,1,-1.8,3.3,29.7,0.78,0.06,-0.03,0.62
1697353652.14,-0.04,0.29,1.06,-4,2.7,28.6,0.78,0.06,-0.03,0.62
1697353652.15,-0.06,0.35,0.97,-3.3,1.9,27.4,0.78,0.06,-0.03,0.62
1697353652.16,-0.06,0.44,1.08,-2.2,0.4,26.8,0.78,0.06,-0.03,0.62
1697353652.17,-0.06,0.44,1.08,-2.2,0.4,26.8,0.78,0.06,-0.03,0.62
1697353652.18,0.06,0.27,0.86,-0.3,-2,25.6,0.78,0.06,-0.03,0.63
1697353652.19,-0.04,0.12,0.89,-0.5,-2.6,24.7,0.77,0.06,-0.03,0.63
1697353652.2,-0.1,0.06,1.03,-1.8,-2.4,23.6,0.77,0.06,-0.03,0.63
1697353652.21,-0.14,0.11,1.07,-3.3,-1.6,22.6,0.77,0.06,-0.03,0.63
1697353652.22,-0.12,0.27,0.81,-3.3,-1.6,22.6,0.77,0.06,-0.03,0.63
1697353652.23,-0.1,0.14,1.15,-2.7,-0.8,21.5,0.77,0.06,-0.03,0.63
1697353652.24,-0.2,0.08,0.92,-0.5,-0.5,20.5,0.77,0.06,-0.03,0.64
1697353652.25,-0.21,0.13,1.1,0,0.3,19.5,0.77,0.06,-0.03,0.64
1697353652.26,-0.1,0.22,0.67,-0.4,0.7,18.4,0.77,0.06,-0.03,0.64
1697353652.27,-0.1,0.22,0.67,-1.5,1.3,17.7,0.77,0.06,-0.03,0.64
1697353652.28,-0.1,0.22,0.67,-1.5,1.3,17.7,0.77,0.06,-0.03,0.64
1697353652.29,-0.1,0.22,0.67,-1.5,1.3,17.7,0.77,0.06,-0.03,0.64
1697353652.3,-0.1,0.22,0.67,-1.5,1.3,17.7,0.77,0.06,-0.03,0.64
1697353652.31,-0.1,0.22,0.67,-1.5,1.3,17.7,0.77,0.06,-0.03,0.64
1697353652.32,-0.1,0.22,0.67,-1.5,1.3,17.7,0.77,0.06,-0.03,0.64
1697353652.33,-0.1,0.22,0.67,-1.5,1.3,17.7,0.77,0.06,-0.03,0.64
1697353652.34,-0.1,0.22,0.67,-1.5,1.3,17.7,0.77,0.06,-0.03,0.64
1697353652.35,-0.1,0.22,0.67,-1.5,1.3,17.7,0.77,0.06,-0.03,0.64
1697353652.36,-0.1,0.22,0.67,-1.5,1.3,17.7,0.77,0.06,-0.03,0.64
1697353652.37,-0.1,0.22,0.67,-1.5,1.3,17.7,0.77,0.06,-0.03,0.64
1697353652.38,-0.1,0.22,0.67,-1.5,1.3,17.7,0.77,0.06,-0.03,0.64
1697353652.39,-0.1,0.22,0.67,-1.5,1.3,17.7,0.77,0.06,-0.03,0.64
1697353652.4,-0.06,0.3,0.77,1.7,0.3,14.1,0.75,0.06,-0.03,0.65
1697353652.41,-0.11,0.21,1.24,0,0.8,14,0.75,0.06,-0.03,0.65
1697353652.42,-0.11,0.21,1.24,0,0.8,14,0.75,0.06,-0.03,0.65
1697353652.43,-0.01,0.18,0.68,1.1,2.1,13.7,0.75,0.06,-0.03,0.66
1697353652.44,0.04,0.19,0.76,1.1,2.1,13.7,0.75,0.06,-0.03,0.66
1697353652.45,-0.05,0.24,0.88,0.7,1.9,13.3,0.75,0.06,-0.03,0.66
1697353652.46,-0.06,0.27,1.03,0.4,1.9,12.7,0.75,0.06,-0.03,0.66
1697353652.47,-0.08,0.25,0.92,-0.4,1.8,12.8,0.75,0.06,-0.03,0.66
1697353652.48,-0.13,0.17,1.08,-0.3,1.3,12.8,0.75,0.06,-0.02,0.66
1697353652.49,-0.02,0.22,1.12,0.4,1.2,12.8,0.75,0.06,-0.02,0.66
1697353652.5,-0.07,0.16,1.12,-0.1,0,13.4,0.75,0.06,-0.02,0.66
1697353652.51,-0.11,0.21,1.06,-1.3,-0.5,13.8,0.75,0.06,-0.02,0.66
1697353652.52,-0.06,0.19,1.12,-1.8,-0.7,14.1,0.75,0.06,-0.02,0.66
1697353652.53,-0.18,0.31,1.37,-1.3,-0.6,14.5,0.74,0.06,-0.02,0.66
1697353652.54,-0.05,0.21,0.59,-0.4,-0.2,14.9,0.74,0.06,-0.02,0.67
1697353652.55,-0.19,0.21,1.25,0.5,0,14.9,0.74,0.06,-0.02,0.67
1697353652.56,-0.19,0.21,1.12,1.2,0.5,14.9,0.74,0.06,-0.02,0.67
1697353652.57,-0.08,0.18,1.05,1.8,1.2,15.1,0.74,0.06,-0.02,0.67
1697353652.58,-0.04,0.16,1.04,1.8,1.2,14.9,0.74,0.06,-0.02,0.67
1697353652.59,-0.03,0.17,0.79,1.8,1.2,14.9,0.74,0.06,-0.02,0.67
1697353652.6,-0.12,0.19,1.01,1.5,1.4,14.7,0.74,0.06,-0.02,0.67
1697353652.61,-0.11,0.24,0.84,2,1.1,14.5,0.74,0.06,-0.02,0.67
1697353652.62,-0.02,0.15,1.17,1.4,0.6,14.4,0.74,0.06,-0.02,0.67
1697353652.63,-0.08,0.24,0.95,0,0.3,14.5,0.74,0.06,-0.02,0.67
1697353652.64,-0.04,0.23,1.08,-0.9,0.3,14.5,0.74,0.06,-0.02,0.67
1697353652.65,-0.04,0.23,1.08,-0.9,0.3,14.5,0.74,0.06,-0.02,0.67
1697353652.66,-0.07,0.29,0.69,0,0.3,14.6,0.73,0.06,-0.02,0.68
1697353652.67,-0.07,0.29,0.69,0,0.3,14.6,0.73,0.06,-0.02,0.68
1697353652.68,0.01,0.25,0.9,-0.5,1.3,14.6,0.73,0.06,-0.02,0.68
1697353652.69,0.01,0.25,0.9,-0.5,1.3,14.6,0.73,0.06,-0.02,0.68
1697353652.7,-0.16,0.25,1.18,-1.1,1.6,14.8,0.73,0.06,-0.02,0.68
1697353652.71,-0.02,0.24,1.2,-1.1,1.6,14.8,0.73,0.06,-0.02,0.68
1697353652.72,-0.02,0.24,1.2,-0.4,1.5,15.1,0.73,0.06,-0.02,0.68
1697353652.73,-0.11,0.22,0.72,0.7,1.3,15.2,0.73,0.06,-0.02,0.68
1697353652.74,-0.11,0.22,0.72,0.7,0.7,15.4,0.73,0.06,-0.02,0.68
1697353652.75,-0.09,0.15,1.23,-0.2,-0.1,15.1,0.73,0.06,-0.02,0.68
1697353652.76,0.06,0.26,0.67,-0.2,-0.1,15.1,0.73,0.06,-0.02,0.69
1697353652.77,-0.05,0.2,1.15,-0.5,-1.7,15.3,0.72,0.06,-0.02,0.69
1697353652.78,-0.06,0.28,1.03,0.2,-1.8,15.4,0.72,0.06,-0.02,0.69
1697353652.79,-0.04,0.3,0.65,1.2,-1.5,15.4,0.72,0.06,-0.02,0.69
1697353652.8,-0.06,0.29,0.95,2.1,-1.2,15.5,0.72,0.06,-0.02,0.69
1697353652.81,-0.06,0.29,0.95,2.1,-1.2,15.5,0.72,0.06,-0.02,0.69
1697353652.82,-0.06,0.29,0.95,2.1,-1.2,15.5,0.72,0.06,-0.02,0.69
1697353652.83,-0.06,0.29,0.95,2.1,-1.2,15.5,0.72,0.06,-0.02,0.69
1697353652.84,-0.06,0.29,0.95,2.1,-1.2,15.5,0.72,0.06,-0.02,0.69
1697353652.85,-0.06,0.29,0.95,2.1,-1.2,15.5,0.72,0.06,-0.02,0.69
1697353652.86,-0.06,0.29,0.95,2.1,-1.2,15.5,0.72,0.06,-0.02,0.69
1697353652.87,-0.06,0.29,0.95,2.1,-1.2,15.5,0.72,0.06,-0.02,0.69
1697353652.88,-0.06,0.29,0.95,2.1,-1.2,15.5,0.72,0.06,-0.02,0.69
1697353652.89,-0.06,0.29,0.95,2.1,-1.2,15.5,0.72,0.06,-0.02,0.69
1697353652.9,-0.06,0.29,0.95,2.1,-1.2,15.5,0.72,0.06,-0.02,0.69
1697353652.91,-0.06,0.29,0.95,2.1,-1.2,15.5,0.72,0.06,-0.02,0.69
1697353652.92,-0.06,0.29,0.95,2.1,-1.2,15.5,0.72,0.06,-0.02,0.69
1697353652.93,-0.06,0.29,0.95,2.1,-1.2,15.5,0.72,0.06,-0.02,0.69
1697353652.94,-0.09,0.29,0.93,0.4,-1.4,23.6,0.7,0.06,-0.02,0.71
1697353652.95,-0.07,0.31,1.13,-0.9,-1.3,23.5,0.7,0.06,-0.02,0.71
1697353652.96,-0.18,0.31,1.1,-2.1,-0.8,23.4,0.7,0.06,-0.02,0.71
1697353652.97,-0.15,0.51,0.95,-2.1,-0.8,23.4,0.7,0.06,-0.02,0.71
1697353652.98,-0.09,0.38,1.04,-1.1,0.2,23.1,0.7,0.06,-0.02,0.71
1697353652.99,-0.08,0.37,0.89,0.5,1,22.8,0.7,0.06,-0.02,0.71
1697353653,-0.11,0.35,1.04,1,1.1,22.7,0.7,0.06,-0.02,0.72
1697353653.01,-0.09,0.28,0.98,0,1,22.6,0.7,0.06,-0.02,0.72
1697353653.02,0.02,0.39,0.7,0,1,22.6,0.69,0.06,-0.02,0.72
1697353653.03,-0.02,0.36,1.15,-2.6,0,22.2,0.69,0.06,-0.02,0.72
1697353653.04,-0.06,0.46,0.8,-2.6,0,22.2,0.69,0.06,-0.02,0.72
1697353653.05,-0.06,0.46,0.8,-2.1,-0.3,22.4,0.69,0.06,-0.02,0.72
1697353653.06,-0.06,0.29,1.2,0,-1,22.9,0.69,0.06,-0.02,0.72
1697353653.07,-0.06,0.29,1.2,0,-1,22.9,0.69,0.06,-0.02,0.72
1697353653.08,-0.1,0.27,1.11,0,-1.8,23.2,0.68,0.06,-0.02,0.73
1697353653.09,-0.16,0.25,1.27,-1,-2.3,23.3,0.68,0.06,-0.02,0.73
1697353653.1,-0.15,0.28,1.07,-2.5,-2.4,23.6,0.68,0.06,-0.03,0.73
1697353653.11,-0.12,0.43,0.96,-2.5,-2,23.8,0.68,0.06,-0.03,0.73
1697353653.12,-0.18,0.27,1.42,-0.7,-1.5,24,0.68,0.06,-0.03,0.73
1697353653.13,-0.1,0.32,0.99,0.9,-0.7,23.8,0.68,0.06,-0.03,0.73
1697353653.14,-0.14,0.28,0.93,0.3,0.5,23.8,0.68,0.06,-0.03,0.73
1697353653.15,-0.12,0.29,1.35,-0.3,1.1,23.4,0.67,0.06,-0.03,0.74
1697353653.16,0.01,0.35,0.73,-0.9,1.4,23.4,0.67,0.06,-0.03,0.74
1697353653.17,-0.11,0.38,1.05,-0.7,1.5,23.1,0.67,0.06,-0.03,0.74
1697353653.18,-0.02,0.35,0.93,0.4,0.7,23,0.67,0.06,-0.03,0.74
1697353653.19,-0.03,0.34,0.76,1.1,0.1,22.6,0.67,0.06,-0.03,0.74
1697353653.2,-0.05,0.27,1.1,-0.2,-0.8,22.3,0.67,0.06,-0.03,0.74
1697353653.21,-0.1,0.23,0.81,-1.3,-1.2,21.6,0.66,0.06,-0.03,0.74
1697353653.22,-0.1,0.23,0.81,-1.3,-1.2,21.6,0.66,0.06,-0.03,0.74
1697353653.23,-0.01,0.3,0.82,-2,-1.9,21.1,0.66,0.06,-0.03,0.75
1697353653.24,-0.09,0.28,1.03,-2,-1.9,21.1,0.66,0.06,-0.03,0.75
1697353653.25,0,0.31,0.73,-2.4,-1.9,20.3,0.66,0.06,-0.03,0.75
1697353653.26,-0.06,0.3,1.01,-2.2,-1.3,20.3,0.66,0.06,-0.03,0.75
1697353653.27,-0.07,0.28,1.19,-1.3,-0.6,20.1,0.66,0.06,-0.03,0.75
1697353653.28,-0.08,0.26,1.02,-1.5,-0.4,20.2,0.65,0.06,-0.03,0.75
1697353653.29,-0.1,0.22,1.22,-1.8,-0.3,20.2,0.65,0.06,-0.03,0.75
1697353653.3,-0.09,0.24,0.99,-0.8,-0.2,20.2,0.65,0.06,-0.03,0.76
1697353653.31,-0.1,0.22,1.16,-0.3,0.1,20.3,0.65,0.06,-0.03,0.76
1697353653.32,-0.08,0.21,1.19,0,0,20.2,0.65,0.06,-0.03,0.76
1697353653.33,-0.07,0.19,0.89,0,0,20.2,0.65,0.06,-0.03,0.76
1697353653.34,-0.07,0.19,0.89,0,0,20.2,0.65,0.06,-0.03,0.76
1697353653.35,-0.07,0.19,0.89,0,0,20.2,0.65,0.06,-0.03,0.76
1697353653.36,-0.07,0.19,0.89,0,0,20.2,0.65,0.06,-0.03,0.76
1697353653.37,-0.07,0.19,0.89,0,0,20.2,0.65,0.06,-0.03,0.76
1697353653.38,-0.07,0.19,0.89,0,0,20.2,0.65,0.06,-0.03,0.76
1697353653.39,-0.07,0.19,0.89,0,0,20.2,0.65,0.06,-0.03,0.76
1697353653.4,-0.07,0.19,0.89,0,0,20.2,0.65,0.06,-0.03,0.76
1697353653.41,-0.07,0.19,0.89,0,0,20.2,0.65,0.06,-0.03,0.76
1697353653.42,-0.07,0.19,0.89,0,0,20.2,0.65,0.06,-0.03,0.76
1697353653.43,-0.07,0.19,0.89,0,0,20.2,0.65,0.06,-0.03,0.76
1697353653.44,-0.07,0.19,0.89,0,0,20.2,0.65,0.06,-0.03,0.76
1697353653.45,-0.07,0.19,0.89,0,0,20.2,0.65,0.06,-0.03,0.76
1697353653.46,-0.12,0.23,1.22,0.9,-0.2,15,0.63,0.06,-0.03,0.77
1697353653.47,-0.07,0.15,1.08,0.4,-0.2,15.1,0.63,0.06,-0.03,0.77
1697353653.48,-0.13,0.19,1.19,-0.1,-0.5,15,0.63,0.06,-0.03,0.77
1697353653.49,-0.13,0.18,0.84,-0.5,-0.3,15.3,0.63,0.06,-0.03,0.77
1697353653.5,-0.11,0.2,1.02,-0.9,0.1,15.5,0.63,0.06,-0.03,0.77
1697353653.51,-0.03,0.18,1.18,-0.6,0.2,15.5,0.63,0.06,-0.03,0.77
1697353653.52,-0.09,0.25,0.88,0.4,1,15.6,0.63,0.06,-0.03,0.78
1697353653.53,-0.15,0.27,1.15,1.7,1.9,15.6,0.63,0.06,-0.03,0.78
1697353653.54,-0.05,0.17,0.88,2.3,2.8,15.5,0.63,0.06,-0.03,0.78
1697353653.55,-0.06,0.15,0.67,1.4,3.3,15.1,0.62,0.06,-0.03,0.78
1697353653.56,-0.04,0.16,0.93,0.1,3.2,14.9,0.62,0.06,-0.03,0.78
1697353653.57,-0.07,0.18,0.97,-1.2,2.7,14.8,0.62,0.05,-0.03,0.78
1697353653.58,-0.1,0.28,0.97,-1.3,1.9,15.2,0.62,0.05,-0.03,0.78
1697353653.59,-0.03,0.34,1.25,0.2,1.2,15.4,0.62,0.05,-0.03,0.78
1697353653.6,-0.03,0.32,0.89,1.7,0.7,15.5,0.62,0.05,-0.03,0.78
1697353653.61,-0.03,0.21,0.85,1.9,-0.3,15.4,0.62,0.05,-0.03,0.78
1697353653.62,-0.02,0.07,1.06,0,-1.1,15.5,0.62,0.05,-0.03,0.78
1697353653.63,-0.05,0.13,1.05,-2.7,-1.9,15.4,0.62,0.05,-0.03,0.79
1697353653.64,-0.05,0.13,1.05,-2.7,-1.9,15.4,0.62,0.05,-0.03,0.79
1697353653.65,-0.18,0.32,1.12,-0.8,-1,15.6,0.61,0.05,-0.03,0.79
1697353653.66,-0.04,0.32,0.73,2.2,0.1,15.8,0.61,0.05,-0.03,0.79
1697353653.67,-0.1,0.1,1.06,2.2,0.1,15.8,0.61,0.05,-0.03,0.79
1697353653.68,-0.02,0.06,0.79,2.3,1.4,15.6,0.61,0.05,-0.03,0.79
1697353653.69,-0.11,0.08,1.02,0.7,2.3,15.8,0.61,0.05,-0.03,0.79
1697353653.7,-0.04,0.18,1.06,0.7,2.3,15.8,0.61,0.05,-0.03,0.79
1697353653.71,-0.12,0.3,1.15,-2.5,2.4,16.2,0.61,0.05,-0.03,0.79
1697353653.72,-0.12,0.3,1.15,-2.5,2.4,16.2,0.61,0.05,-0.03,0.79
1697353653.73,-0.15,0.3,1.18,0.8,2,16.9,0.61,0.05,-0.03,0.79
1697353653.74,-0.15,0.3,1.18,0.8,2,16.9,0.6,0.05,-0.03,0.79
1697353653.75,0.1,0.08,0.46,2.4,1.3,17.3,0.6,0.05,-0.02,0.8
1697353653.76,-0.02,0.16,0.94,2.4,1.3,17.3,0.6,0.05,-0.02,0.8
1697353653.77,-0.02,0.16,0.94,0,0.9,16.9,0.6,0.05,-0.02,0.8
1697353653.78,-0.01,0.4,0.83,-3,0.9,16.7,0.6,0.05,-0.02,0.8
1697353653.79,-0.14,0.48,0.9,-0.6,1.3,16.7,0.6,0.05,-0.02,0.8
1697353653.8,-0.14,0.48,0.9,-0.6,1.3,16.7,0.6,0.05,-0.02,0.8
1697353653.81,-0.13,0.31,1.18,-0.6,1.3,16.7,0.6,0.05,-0.02,0.8
1697353653.82,-0.14,0.17,1.18,2.8,2.5,17.4,0.59,0.05,-0.02,0.8
1697353653.83,0.01,0.14,0.83,0.7,3.2,17.5,0.59,0.05,-0.02,0.8
1697353653.84,-0.13,0.3,1.1,-2.5,3.3,17.5,0.59,0.05,-0.02,0.8
1697353653.85,-0.09,0.39,0.99,-4.2,3.6,18,0.59,0.05,-0.02,0.8
1697353653.86,-0.08,0.46,1.06,-4.2,3.6,18,0.59,0.05,-0.02,0.8
1697353653.87,-0.08,0.46,1.06,-4.2,3.6,18,0.59,0.05,-0.02,0.8
1697353653.88,-0.08,0.46,1.06,-4.2,3.6,18,0.59,0.05,-0.02,0.8
1697353653.89,-0.08,0.46,1.06,-4.2,3.6,18,0.59,0.05,-0.02,0.8
1697353653.9,-0.08,0.46,1.06,-4.2,3.6,18,0.59,0.05,-0.02,0.8
1697353653.91,-0.08,0.46,1.06,-4.2,3.6,18,0.59,0.05,-0.02,0.8
1697353653.92,-0.08,0.46,1.06,-4.2,3.6,18,0.59,0.05,-0.02,0.8
1697353653.93,-0.08,0.46,1.06,-4.2,3.6,18,0.59,0.05,-0.02,0.8
1697353653.94,-0.08,0.46,1.06,-4.2,3.6,18,0.59,0.05,-0.02,0.8
1697353653.95,-0.08,0.46,1.06,-4.2,3.6,18,0.59,0.05,-0.02,0.8
1697353653.96,-0.08,0.46,1.06,-4.2,3.6,18,0.59,0.05,-0.02,0.8
1697353653.97,-0.08,0.46,1.06,-4.2,3.6,18,0.59,0.05,-0.02,0.8
1697353653.98,-0.08,0.46,1.06,-4.2,3.6,18,0.59,0.05,-0.02,0.8
1697353653.99,-0.1,0.33,0.91,-2,2.3,23.9,0.57,0.05,-0.02,0.82
1697353654,-0.09,0.41,1.05,-2.8,2.6,23.8,0.57,0.05,-0.02,0.82
1697353654.01,-0.11,0.41,1.08,-2.4,3.1,23.7,0.57,0.05,-0.02,0.82
1697353654.02,-0.1,0.44,0.95,-0.3,3.1,23.7,0.57,0.05,-0.02,0.82
1697353654.03,-0.1,0.29,1.03,1.2,2.7,23.8,0.56,0.05,-0.02,0.83
1697353654.04,-0.03,0.22,0.9,0.8,2.1,23.7,0.56,0.05,-0.02,0.83
1697353654.05,-0.06,0.24,0.8,0.1,1.7,23.7,0.56,0.05,-0.02,0.83
1697353654.06,-0.12,0.35,1.27,0.1,1.7,23.7,0.56,0.05,-0.02,0.83
1697353654.07,-0.02,0.29,0.71,-1.6,0.3,23.5,0.56,0.05,-0.02,0.83
1697353654.08,-0.03,0.33,0.99,-1.5,-0.4,23.5,0.55,0.05,-0.02,0.83
1697353654.09,-0.06,0.34,0.75,-1.5,-0.4,23.5,0.55,0.05,-0.02,0.83
1697353654.1,-0.11,0.39,1.2,-0.7,-0.8,23.7,0.55,0.05,-0.02,0.83
1697353654.11,-0.08,0.28,1.1,-0.7,-0.8,23.7,0.55,0.05,-0.02,0.83
1697353654.12,-0.08,0.28,1.1,0.4,-0.7,23.7,0.55,0.05,-0.02,0.84
1697353654.13,-0.13,0.27,0.97,0.6,-0.6,23.7,0.55,0.05,-0.02,0.84
1697353654.14,-0.15,0.33,1.18,0.9,-0.2,23.5,0.55,0.05,-0.02,0.84
