time,accel_x,accel_y,accel_z,gyro_x,gyro_y,gyro_z,quat_w,quat_x,quat_y,quat_z
1697354715.25,-0.3,1.04,0.83,-2.3,0.2,79.2,0.71,0.01,-0.01,-0.7
1697354715.26,-0.3,1.04,0.83,-2.3,0.2,79.2,0.71,0.01,-0.01,-0.7
1697354715.27,-0.3,1.04,0.83,-2.3,0.2,79.2,0.71,0.01,-0.01,-0.7
1697354715.28,-0.3,1.04,0.83,-2.3,0.2,79.2,0.71,0.01,-0.01,-0.7
1697354715.29,-0.3,1.04,0.83,-2.3,0.2,79.2,0.71,0.01,-0.01,-0.7
1697354715.3,-0.3,1.04,0.83,-2.3,0.2,79.2,0.71,0.01,-0.01,-0.7
1697354715.31,-0.3,1.04,0.83,-2.3,0.2,79.2,0.71,0.01,-0.01,-0.7
1697354715.32,-0.3,1.04,0.83,-2.3,0.2,79.2,0.71,0.01,-0.01,-0.7
1697354715.33,-0.32,0.95,1.11,0.5,3.9,86.1,0.77,0.02,-0.01,-0.63
1697354715.34,-0.27,0.89,0.96,0.9,3.3,86.1,0.78,0.02,-0.01,-0.63
1697354715.35,-0.25,0.83,0.98,0.7,2.8,85.9,0.78,0.02,-0.01,-0.62
1697354715.36,-0.21,0.85,0.89,0.3,1.8,85.6,0.79,0.02,-0.01,-0.61
1697354715.37,-0.27,0.84,1.07,-0.5,0.9,85.2,0.79,0.02,-0.01,-0.61
1697354715.38,-0.27,0.82,0.8,-1.4,0.5,84.6,0.8,0.02,-0.01,-0.6
1697354715.39,-0.3,0.87,0.98,-1.5,0.1,84,0.8,0.02,-0.01,-0.6
1697354715.4,-0.23,0.88,0.79,-2.1,0.1,83.7,0.81,0.02,-0.01,-0.59
1697354715.41,-0.33,0.78,1.25,-2.7,0.8,82.7,0.81,0.02,-0.01,-0.58
1697354715.42,-0.37,0.92,1.19,-3.4,0.6,82.1,0.82,0.02,-0.01,-0.58
1697354715.43,-0.27,0.88,0.8,-3.8,1.5,81.6,0.82,0.01,-0.01,-0.57
1697354715.44,-0.33,0.9,1.22,-2.5,2.2,81.1,0.82,0.01,-0.01,-0.57
1697354715.45,-0.3,0.95,1.07,-1.5,2.5,80.8,0.83,0.01,-0.01,-0.56
1697354715.46,-0.17,0.83,0.85,-1.5,2.5,80.8,0.83,0.01,-0.01,-0.55
1697354715.47,-0.31,0.83,1.11,0.6,3.3,80.9,0.84,0.01,-0.01,-0.55
1697354715.48,-0.32,0.8,1.15,0.5,3.5,81.1,0.84,0.01,-0.01,-0.54
1697354715.49,-0.32,0.8,1.14,0.5,3.5,81.1,0.84,0.01,-0.01,-0.54
1697354715.5,-0.32,0.8,1.14,-1.2,3.8,81.4,0.85,0.01,-0.01,-0.53
1697354715.51,-0.22,0.86,0.97,-2.5,3.6,81.6,0.85,0.01,-0.01,-0.53
1697354715.52,-0.26,0.8,1.26,-2.7,3.2,81.7,0.85,0.01,-0.01,-0.52
1697354715.53,-0.25,0.88,1.3,-1.9,2.7,81.7,0.86,0.01,-0.01,-0.52
1697354715.54,-0.17,0.87,0.81,-0.6,2.5,81.6,0.86,0.01,-0.01,-0.5
1697354715.55,-0.22,0.81,0.79,0.1,2,81.3,0.87,0.01,-0.01,-0.5
1697354715.56,-0.24,0.77,0.87,0.6,1.7,80.9,0.87,0.01,-0.01,-0.49
1697354715.57,-0.18,0.74,0.89,0,1.5,80.6,0.87,0.01,-0.01,-0.49
1697354715.58,-0.2,0.73,0.77,-0.7,1.3,79.9,0.87,0.01,-0.01,-0.48
1697354715.59,-0.22,0.73,0.91,-1,1.3,79.4,0.88,0.01,-0.01,-0.48
1697354715.6,-0.28,0.75,0.93,-0.7,1.4,79.1,0.88,0.01,-0.01,-0.47
1697354715.61,-0.27,0.74,1.02,-0.2,1.5,78.6,0.88,0.01,-0.01,-0.47
1697354715.62,-0.25,0.8,1.1,0.3,2.2,78.4,0.89,0.01,-0.01,-0.46
1697354715.63,-0.28,0.71,0.93,0,2.3,78,0.89,0.01,-0.01,-0.45
1697354715.64,-0.31,0.77,0.92,-0.4,2.5,77.7,0.89,0.01,-0.01,-0.45
1697354715.65,-0.23,0.74,1.03,-0.8,2.6,77.6,0.9,0.01,-0.01,-0.44
1697354715.66,0.08,0.72,0.8,-1.3,2.2,76.9,0.9,0.01,-0.01,-0.44
1697354715.67,-0.04,0.73,1.17,-1.5,1.4,76.2,0.9,0.01,-0.01,-0.43
1697354715.68,0.01,0.79,1.32,-0.1,0.4,75.6,0.91,0.01,-0.01,-0.42
1697354715.69,0.04,0.86,0.94,-0.1,0.4,75.6,0.91,0.01,-0.01,-0.42
1697354715.7,-0.18,0.82,1.11,2.5,-0.1,75.8,0.91,0.01,-0.01,-0.4
1697354715.71,-0.26,0.7,0.8,1,1.1,76.7,0.91,0.01,-0.01,-0.4
1697354715.72,-0.33,0.72,0.85,1,1.1,76.7,0.92,0.01,-0.01,-0.4
1697354715.73,-0.33,0.72,0.85,1,1.1,76.7,0.92,0.01,-0.01,-0.4
1697354715.74,-0.33,0.72,0.85,1,1.1,76.7,0.92,0.01,-0.01,-0.4
1697354715.75,-0.33,0.72,0.85,1,1.1,76.7,0.92,0.01,-0.01,-0.4
1697354715.76,-0.33,0.72,0.85,1,1.1,76.7,0.92,0.01,-0.01,-0.4
1697354715.77,-0.33,0.72,0.85,1,1.1,76.7,0.92,0.01,-0.01,-0.4
1697354715.78,-0.33,0.72,0.85,1,1.1,76.7,0.92,0.01,-0.01,-0.4
1697354715.79,-0.33,0.72,0.85,1,1.1,76.7,0.92,0.01,-0.01,-0.4
1697354715.8,-0.33,0.72,0.85,1,1.1,76.7,0.92,0.01,-0.01,-0.4
1697354715.81,-0.33,0.72,0.85,1,1.1,76.7,0.92,0.01,-0.01,-0.4
1697354715.82,-0.33,0.72,0.85,1,1.1,76.7,0.92,0.01,-0.01,-0.4
1697354715.83,-0.33,0.72,0.85,1,1.1,76.7,0.92,0.01,-0.01,-0.4
1697354715.84,-0.33,0.72,0.85,1,1.1,76.7,0.92,0.01,-0.01,-0.4
1697354715.85,-0.05,0.68,0.98,0.6,-1.6,73.6,0.95,0.01,-0.01,-0.31
1697354715.86,-0.15,0.73,1.14,0,-0.8,73.8,0.95,0.01,-0.01,-0.31
1697354715.87,-0.15,0.73,1.14,0,-0.8,73.8,0.95,0.01,-0.01,-0.3
1697354715.88,-0.17,0.69,0.95,-0.5,0.4,74.3,0.96,0.01,-0.01,-0.29
1697354715.89,-0.29,0.78,0.94,-0.5,0.4,74.3,0.96,0.01,-0.01,-0.29
1697354715.9,-0.3,0.72,0.9,-0.6,1.7,75.1,0.96,0.01,-0.01,-0.28
1697354715.91,-0.3,0.7,0.96,-1,3.2,76.3,0.96,0.01,-0.01,-0.27
1697354715.92,-0.22,0.74,0.99,-0.5,4,77,0.96,0.01,-0.01,-0.27
1697354715.93,-0.17,0.76,0.89,-0.7,4.3,77.6,0.97,0.01,-0.01,-0.26
1697354715.94,-0.13,0.81,0.88,0,4.2,77.9,0.97,0.01,-0.01,-0.25
1697354715.95,-0.16,0.73,0.99,2.7,2.1,77.4,0.97,0.01,-0.01,-0.25
1697354715.96,-0.14,0.68,1.08,2.5,1.1,76.9,0.97,0.01,-0.01,-0.24
1697354715.97,-0.1,0.64,1.03,1.4,0.2,76.2,0.97,0.01,-0.01,-0.23
1697354715.98,-0.07,0.63,0.85,0.6,-0.1,75.2,0.97,0.01,-0.01,-0.23
1697354715.99,-0.06,0.6,1.06,-0.9,0,74.3,0.98,0.01,-0.01,-0.22
1697354716,-0.1,0.76,0.95,-1.7,1.1,74,0.98,0.01,-0.01,-0.21
1697354716.01,-0.18,0.66,1.07,-1.2,2.2,73.8,0.98,0.01,-0.01,-0.21
1697354716.02,-0.19,0.67,1.15,-1.3,3.9,73.9,0.98,0.01,-0.01,-0.2
1697354716.03,-0.15,0.7,0.57,-1.3,5.2,74.7,0.98,0.01,-0.01,-0.19
1697354716.04,-0.21,0.68,1,-1.7,5.7,75,0.98,0.01,-0.01,-0.19
1697354716.05,-0.25,0.71,0.92,-1.6,5.9,75.3,0.98,0.01,-0.01,-0.18
1697354716.06,-0.3,0.61,1,-2.7,6.5,75.8,0.98,0.01,-0.01,-0.17
1697354716.07,-0.05,0.72,0.79,-2,6.6,75.7,0.99,0.01,-0.01,-0.17
1697354716.08,-0.12,0.77,1,0.3,6.2,75.4,0.99,0.01,-0.01,-0.16
1697354716.09,-0.1,0.72,0.82,1.8,5.6,75.1,0.99,0.01,-0.01,-0.16
1697354716.1,-0.11,0.57,1.11,1.9,5,74.2,0.99,0.01,-0,-0.15
1697354716.11,-0.01,0.64,0.62,1,5,73.5,0.99,0.01,-0,-0.14
1697354716.12,-0.1,0.54,1.05,-0.6,5.1,73,0.99,0.01,-0,-0.14
1697354716.13,-0.14,0.65,0.99,-1.6,5.2,72.8,0.99,0.01,-0,-0.13
1697354716.14,-0.14,0.65,0.99,-1.6,5.2,72.8,0.99,0.01,-0,-0.13
1697354716.15,-0.13,0.63,0.82,-1.7,5.8,72.9,0.99,0.01,-0,-0.12
1697354716.16,-0.1,0.71,0.72,-0.8,5.9,72.9,0.99,0.01,-0,-0.11
1697354716.17,-0.1,0.71,0.72,-0.3,6.5,73.2,0.99,0.01,-0,-0.11
1697354716.18,-0.13,0.67,0.99,0,6.3,73.3,1,0.01,-0,-0.1
1697354716.19,-0.13,0.67,0.99,0,6.3,73.3,1,0.01,-0,-0.1
1697354716.2,-0.04,0.59,0.88,0,6,72.8,1,0.01,-0,-0.08
1697354716.21,-0.15,0.62,1.27,0,6,72.8,1,0.01,-0,-0.08
1697354716.22,-0.15,0.62,1.27,-0.1,5.9,72.4,1,0.01,0,-0.08
1697354716.23,-0.11,0.54,1.09,-0.6,6,71.9,1,0.01,0,-0.07
1697354716.24,-0.04,0.64,0.84,-0.5,6,71.8,1,0.01,0,-0.07
1697354716.25,-0.04,0.64,0.84,-0.5,6,71.8,1,0.01,0,-0.07
1697354716.26,-0.04,0.64,0.84,-0.5,6,71.8,1,0.01,0,-0.07
1697354716.27,-0.04,0.64,0.84,-0.5,6,71.8,1,0.01,0,-0.07
1697354716.28,-0.04,0.64,0.84,-0.5,6,71.8,1,0.01,0,-0.07
1697354716.29,-0.04,0.64,0.84,-0.5,6,71.8,1,0.01,0,-0.07
1697354716.3,-0.04,0.64,0.84,-0.5,6,71.8,1,0.01,0,-0.07
1697354716.31,-0.04,0.64,0.84,-0.5,6,71.8,1,0.01,0,-0.07
1697354716.32,-0.04,0.64,0.84,-0.5,6,71.8,1,0.01,0,-0.07
1697354716.33,-0.04,0.64,0.84,-0.5,6,71.8,1,0.01,0,-0.07
1697354716.34,-0.04,0.64,0.84,-0.5,6,71.8,1,0.01,0,-0.07
1697354716.35,-0.04,0.64,0.84,-0.5,6,71.8,1,0.01,0,-0.07
1697354716.36,-0.04,0.64,0.84,-0.5,6,71.8,1,0.01,0,-0.07
1697354716.37,-0.15,0.66,0.84,0.6,5.7,71.8,1,0.01,0.01,0.02
1697354716.38,-0.07,0.64,0.82,-0.1,6.2,72.4,1,0.01,0.01,0.03
1697354716.39,-0.05,0.8,0.64,0.5,6.2,72.6,1,0.01,0.01,0.03
1697354716.4,-0.16,0.69,1.16,1.5,6,73.3,1,0.01,0.01,0.04
1697354716.41,-0.06,0.66,0.93,2,5.3,73.6,1,0.01,0.01,0.05
1697354716.42,-0.09,0.6,0.99,1.7,5,74,1,0.01,0.01,0.05
1697354716.43,-0.01,0.62,0.69,0,3.4,73.6,1,0.01,0.01,0.06
1697354716.44,-0.1,0.58,1.02,-0.6,2.5,73.2,1,0.01,0.01,0.07
1697354716.45,-0.04,0.65,0.81,-0.8,2.2,73.1,1,0.01,0.01,0.07
1697354716.46,-0.23,0.72,1.2,-0.8,2.2,73.1,1,0.01,0.01,0.07
1697354716.47,-0.04,0.67,1.08,0.5,1.7,72.7,1,0.01,0.01,0.08
1697354716.48,-0.19,0.71,1.31,1.2,1.6,72.5,1,0.01,0.01,0.09
1697354716.49,-0.1,0.64,0.96,1.1,1.7,72.7,1,0.01,0.01,0.09
1697354716.5,-0.17,0.57,1.05,1.4,1.7,72.8,0.99,0.01,0.01,0.1
1697354716.51,-0.15,0.62,1.06,0.4,1.7,72.8,0.99,0.01,0.01,0.1
1697354716.52,-0.17,0.64,1.08,-0.5,1.5,73,0.99,0.01,0.01,0.11
1697354716.53,-0.08,0.67,1.14,-1.3,1.8,73.3,0.99,0.01,0.01,0.12
1697354716.54,-0.05,0.63,1.01,-0.9,1.7,73.3,0.99,0.01,0.01,0.12
1697354716.55,-0.07,0.71,1.09,-0.9,1.7,73.3,0.99,0.01,0.01,0.13
1697354716.56,-0.07,0.71,1.09,-0.9,1.7,73.3,0.99,0.01,0.01,0.14
1697354716.57,-0.14,0.58,1.17,-0.6,1.2,73.5,0.99,0.01,0.01,0.15
1697354716.58,-0.09,0.7,1.06,0,0.4,73.3,0.99,0.01,0.01,0.15
1697354716.59,-0.09,0.7,1.06,0,-0.2,73.5,0.99,0.01,0.01,0.16
1697354716.6,-0.07,0.7,0.74,0.7,-1.5,74,0.99,0.01,0.01,0.16
1697354716.61,-0.07,0.7,0.74,0.7,-1.5,74,0.99,0.01,0.01,0.17
1697354716.62,-0.19,0.61,0.93,0.9,-1.8,74.2,0.98,0.01,0.01,0.18
1697354716.63,-0.15,0.61,0.96,0.4,-1.9,74.2,0.98,0.01,0.01,0.18
1697354716.64,-0.14,0.62,0.86,-1,-1.9,74,0.98,0.01,0.01,0.19
1697354716.65,-0.16,0.68,0.7,-1.4,-1.5,74,0.98,0.01,0.01,0.2
1697354716.66,-0.2,0.68,1.06,-0.5,-0.9,74,0.98,0.01,0.01,0.2
1697354716.67,-0.18,0.61,0.89,0.7,0,73.6,0.98,0.01,0.01,0.21
1697354716.68,-0.18,0.62,0.96,1.3,1.2,73.3,0.98,0.01,0.01,0.22
1697354716.69,-0.16,0.54,1.11,0,2.7,73.1,0.97,0.01,0.01,0.22
1697354716.7,-0.16,0.65,1.01,-0.9,2.9,73.3,0.97,0.01,0.01,0.23
1697354716.71,-0.12,0.63,1.13,-0.3,2.5,73.4,0.97,0.01,0.01,0.24
1697354716.72,-0.15,0.77,1.08,0.2,2.1,73.8,0.97,0.01,0.01,0.24
1697354716.73,-0.1,0.7,1.01,1.6,1.1,73.9,0.97,0.01,0.01,0.25
1697354716.74,-0.15,0.64,1.16,1.5,0.2,73.9,0.97,0.01,0.01,0.26
1697354716.75,-0.05,0.65,0.84,0.3,-0.3,74.1,0.97,0.01,0.01,0.26
1697354716.76,-0.1,0.61,0.99,-0.8,-0.9,73.9,0.96,0.01,0.01,0.27
1697354716.77,-0.1,0.61,0.99,-0.8,-0.9,73.9,0.96,0.01,0.01,0.27
1697354716.78,-0.1,0.61,0.99,-0.8,-0.9,73.9,0.96,0.01,0.01,0.27
1697354716.79,-0.1,0.61,0.99,-0.8,-0.9,73.9,0.96,0.01,0.01,0.27
1697354716.8,-0.1,0.61,0.99,-0.8,-0.9,73.9,0.96,0.01,0.01,0.27
1697354716.81,-0.1,0.61,0.99,-0.8,-0.9,73.9,0.96,0.01,0.01,0.27
1697354716.82,-0.1,0.61,0.99,-0.8,-0.9,73.9,0.96,0.01,0.01,0.27
1697354716.83,-0.1,0.61,0.99,-0.8,-0.9,73.9,0.96,0.01,0.01,0.27
1697354716.84,-0.1,0.61,0.99,-0.8,-0.9,73.9,0.96,0.01,0.01,0.27
1697354716.85,-0.1,0.61,0.99,-0.8,-0.9,73.9,0.96,0.01,0.01,0.27
1697354716.86,-0.1,0.61,0.99,-0.8,-0.9,73.9,0.96,0.01,0.01,0.27
1697354716.87,-0.1,0.61,0.99,-0.8,-0.9,73.9,0.96,0.01,0.01,0.27
1697354716.88,-0.1,0.61,0.99,-0.8,-0.9,73.9,0.96,0.01,0.01,0.27
1697354716.89,-0.04,0.68,0.89,-0.8,-0.9,73.9,0.94,0.01,0.01,0.34
1697354716.9,-0.11,0.65,1.12,0.8,1.4,73.5,0.93,0.01,0.01,0.36
1697354716.91,-0.1,0.58,1.07,0.9,0.3,73.4,0.93,0.01,0.01,0.36
1697354716.92,-0.07,0.6,0.85,0,-0.2,73.3,0.93,0.01,0.01,0.37
1697354716.93,-0.14,0.64,0.93,-0.7,-0.7,73.2,0.93,0.01,0.01,0.37
1697354716.94,-0.14,0.64,0.93,-0.7,-0.7,73.2,0.93,0.01,0.01,0.37
1697354716.95,-0.08,0.65,0.76,-1.3,-0.7,72.9,0.93,0.01,0.01,0.38
1697354716.96,-0.08,0.65,0.76,-1.3,-0.7,72.9,0.92,0.01,0.01,0.39
1697354716.97,-0.08,0.63,0.93,-1,-0.2,72.7,0.92,0.01,0.01,0.39
1697354716.98,-0.05,0.63,0.68,0.2,0.4,72.3,0.92,0.01,0.01,0.4
1697354716.99,-0.21,0.65,1.15,2.7,1,72.2,0.91,0.01,0.01,0.4
1697354717,-0.18,0.54,1.32,1.8,1.5,72,0.91,0.01,0.01,0.41
1697354717.01,-0.04,0.46,0.64,-0.7,2.8,72,0.91,0.01,0.01,0.42
1697354717.02,-0.2,0.57,1.18,-3.4,3.6,72.9,0.91,0.01,0.01,0.42
1697354717.03,-0.07,0.64,0.92,-3.8,4,72.7,0.9,0.01,0.01,0.43
1697354717.04,-0.04,0.74,0.94,-2.6,3.7,72.9,0.9,0.01,0.01,0.43
1697354717.05,-0.08,0.72,1.06,-0.8,2.9,72.9,0.9,0.01,0.01,0.44
1697354717.06,-0.02,0.67,0.62,0,1.6,72.8,0.89,0.01,0.01,0.45
1697354717.07,-0.06,0.65,0.94,-0.1,0.7,72.5,0.89,0.01,0.01,0.45
1697354717.08,-0.03,0.53,0.76,-1.5,-0.2,71.8,0.89,0.01,0.01,0.46
1697354717.09,0.01,0.57,0.6,-3.4,-1.5,71,0.89,0.01,0.01,0.46
1697354717.1,-0.08,0.62,1.03,-4,-2,71,0.88,0.01,0.01,0.47
1697354717.11,-0.02,0.64,0.55,-2.1,-0.9,70.7,0.88,0.01,0.01,0.47
1697354717.12,-0.09,0.45,1.21,0.3,-0.5,69.5,0.88,0.01,0.01,0.48
1697354717.13,-0.01,0.59,0.53,1.2,0.5,68.9,0.87,0.01,0.01,0.48
1697354717.14,-0.06,0.51,1.15,0.3,1,68.7,0.87,0.01,0.01,0.48
1697354717.15,0.03,0.48,1.15,0.3,1,68.7,0.87,0.01,0.01,0.49
1697354717.16,-0.06,0.46,1.15,0.3,1,68.7,0.87,0.01,0.01,0.49
1697354717.17,-0.06,0.48,1.22,-1.8,1.1,68.1,0.86,0.01,0.01,0.51
1697354717.18,0.02,0.43,0.75,-1.8,1.1,68.1,0.86,0.01,0.01,0.51
1697354717.19,-0.04,0.52,1.02,-1.8,1.5,68,0.86,0.01,0.01,0.51
1697354717.2,0.03,0.47,0.71,-1.1,1.8,67.6,0.86,0.01,0.01,0.52
1697354717.21,0.02,0.43,0.89,-0.5,1.4,66.4,0.85,0.01,0.01,0.53
1697354717.22,-0.02,0.48,0.86,-0.5,1.4,66.4,0.85,0.01,0.01,0.53
1697354717.23,0,0.35,1.14,0.6,1.3,62.6,0.84,0.01,0.01,0.54
1697354717.24,-0.02,0.4,1.14,0.6,1.3,62.6,0.84,0.01,0.01,0.54
1697354717.25,0.09,0.35,0.95,0.5,0.6,60,0.84,0.01,0.01,0.55
1697354717.26,0.01,0.33,1.16,0,0.2,58.8,0.84,0.01,0.01,0.55
1697354717.27,0.07,0.42,1.22,-0.4,-0.2,58,0.83,0.01,0.01,0.55
1697354717.28,0.07,0.42,1.22,-0.4,-0.2,58,0.83,0.01,0.01,0.55
1697354717.29,0.07,0.42,1.22,-0.4,-0.2,58,0.83,0.01,0.01,0.55
1697354717.3,0.07,0.42,1.22,-0.4,-0.2,58,0.83,0.01,0.01,0.55
1697354717.31,0.07,0.42,1.22,-0.4,-0.2,58,0.83,0.01,0.01,0.55
1697354717.32,0.07,0.42,1.22,-0.4,-0.2,58,0.83,0.01,0.01,0.55
1697354717.33,0.07,0.42,1.22,-0.4,-0.2,58,0.83,0.01,0.01,0.55
1697354717.34,0.07,0.42,1.22,-0.4,-0.2,58,0.83,0.01,0.01,0.55
1697354717.35,0.07,0.42,1.22,-0.4,-0.2,58,0.83,0.01,0.01,0.55
1697354717.36,0.07,0.42,1.22,-0.4,-0.2,58,0.83,0.01,0.01,0.55
1697354717.37,0.07,0.42,1.22,-0.4,-0.2,58,0.83,0.01,0.01,0.55
1697354717.38,0.07,0.42,1.22,-0.4,-0.2,58,0.83,0.01,0.01,0.55
1697354717.39,0.07,0.42,1.22,-0.4,-0.2,58,0.83,0.01,0.01,0.55
1697354717.4,0.07,0.42,1.22,-0.4,-0.2,58,0.83,0.01,0.01,0.55
1697354717.41,0.07,0.42,1.22,-0.4,-0.2,58,0.83,0.01,0.01,0.55
1697354717.42,0.04,0.2,0.89,-2.9,-1.9,43.5,0.8,0.01,0,0.61
1697354717.43,0.09,0.28,0.94,-4.3,-1.7,42.6,0.79,0.01,0,0.61
1697354717.44,-0.01,0.29,0.96,-3.7,-1.2,41.8,0.79,0.01,0,0.61
1697354717.45,0.06,0.31,1.05,-1.9,-0.4,40.9,0.79,0.01,0,0.61
1697354717.46,0.05,0.23,1.05,-0.3,0.3,40,0.79,0.01,0,0.62
1697354717.47,0,0.12,0.88,0.8,0.7,39,0.78,0.01,0,0.62
1697354717.48,-0.05,0.07,1.11,0.6,1,37.7,0.78,0.01,0,0.62
1697354717.49,0.16,0.14,0.96,0.4,0.8,35.3,0.78,0.01,0,0.63
1697354717.5,0.11,0.07,1.11,1.1,0.3,34.5,0.78,0.01,0,0.63
1697354717.51,0.19,0.06,1.07,1.6,-0.8,33.6,0.78,0.01,0,0.63
1697354717.52,0.08,0.09,1.16,1.1,-2.1,32.6,0.77,0.01,0,0.63
1697354717.53,0.07,0.17,0.88,0.3,-2.1,31.8,0.77,0.01,0,0.64
1697354717.54,0.04,0.19,0.8,-0.8,-1,31,0.77,0.01,0,0.64
1697354717.55,0.03,0.21,0.9,-1.3,0,30.2,0.77,0.01,0,0.64
1697354717.56,0.04,0.13,1.1,-1.3,0,30.2,0.77,0.01,0,0.64
1697354717.57,0.11,0.18,0.89,-1.1,0.8,27.4,0.77,0.01,0,0.64
1697354717.58,0.03,0.1,1.22,-1.4,0.9,26.1,0.77,0.01,0,0.64
1697354717.59,0.03,0.1,1.22,-1.4,0.9,26.1,0.76,0.01,0,0.65
1697354717.6,0.1,0.13,0.93,-2.3,0.9,23.5,0.76,0.01,0,0.65
1697354717.61,0.11,0.08,0.93,-2.3,0.9,23.5,0.76,0.01,0,0.65
1697354717.62,0.07,0.06,0.95,-1.9,0.9,22.3,0.76,0.01,0,0.65
1697354717.63,0.11,0.06,1,-1.6,0.9,21.4,0.76,0.01,0,0.65
1697354717.64,0.11,0.06,1,-1.3,0.7,20.5,0.76,0.01,0,0.65
1697354717.65,0.03,0.01,1.08,-1.3,0.8,19.6,0.76,0.01,0,0.65
1697354717.66,0.05,-0.01,0.96,-1.1,1,18.8,0.75,0.01,0,0.66
1697354717.67,0.07,-0.04,0.91,-1,1.3,18,0.75,0.01,0,0.66
1697354717.68,0.09,-0.07,0.98,-1,1.2,17,0.75,0.01,0,0.66
1697354717.69,0.13,-0.07,1.01,-1,1.1,16,0.75,0.01,0,0.66
1697354717.7,0.09,-0.07,1.01,-0.9,0.7,14.9,0.75,0.01,0,0.66
1697354717.71,0.12,-0.05,0.96,-1.3,0.3,13.8,0.75,0.01,0,0.66
1697354717.72,0.03,-0.09,1.05,-1.2,0,12.7,0.75,0.01,0,0.66
1697354717.73,0.01,-0.09,1.06,-1.9,-0.5,11,0.75,0.01,0,0.66
1697354717.74,0.06,-0.03,1.02,-1.7,-1,9.9,0.75,0.01,-0,0.66
1697354717.75,0.03,-0.04,1.04,-0.5,-0.9,8.5,0.75,0.01,-0,0.66
1697354717.76,0.11,-0.04,0.94,0.2,-0.5,7.2,0.75,0.01,-0,0.66
1697354717.77,-0.02,-0.08,0.99,0.3,-0.1,6.1,0.75,0.01,-0,0.67
1697354717.78,0.06,-0.19,0.97,-0.4,0,4.8,0.75,0.01,-0,0.67
1697354717.79,0.12,-0.17,0.93,-0.4,0,4.8,0.75,0.01,-0,0.67
1697354717.8,-0.05,-0.07,1.1,-2.3,1,2.8,0.75,0.01,-0,0.67
1697354717.81,-0.05,-0.07,1.1,-2.3,1,2.8,0.75,0.01,-0,0.67
1697354717.82,-0.05,-0.07,1.1,-2.3,1,2.8,0.75,0.01,-0,0.67
1697354717.83,-0.05,-0.07,1.1,-2.3,1,2.8,0.75,0.01,-0,0.67
1697354717.84,-0.05,-0.07,1.1,-2.3,1,2.8,0.75,0.01,-0,0.67
1697354717.85,-0.05,-0.07,1.1,-2.3,1,2.8,0.75,0.01,-0,0.67
1697354717.86,-0.05,-0.07,1.1,-2.3,1,2.8,0.75,0.01,-0,0.67
1697354717.87,-0.05,-0.07,1.1,-2.3,1,2.8,0.75,0.01,-0,0.67
1697354717.88,-0.05,-0.07,1.1,-2.3,1,2.8,0.75,0.01,-0,0.67
1697354717.89,-0.05,-0.07,1.1,-2.3,1,2.8,0.75,0.01,-0,0.67
1697354717.9,-0.05,-0.07,1.1,-2.3,1,2.8,0.75,0.01,-0,0.67
1697354717.91,-0.05,-0.07,1.1,-2.3,1,2.8,0.75,0.01,-0,0.67
1697354717.92,-0.05,-0.07,1.1,-2.3,1,2.8,0.75,0.01,-0,0.67
1697354717.93,-0.05,-0.07,1.1,-2.3,1,2.8,0.75,0.01,-0,0.67
1697354717.94,-0.05,-0.07,1.1,-2.3,1,2.8,0.75,0.01,-0,0.67
1697354717.95,-0.05,-0.07,1.1,-2.3,1,2.8,0.75,0.01,-0,0.67
1697354717.96,-0.05,-0.07,1.1,-2.3,1,2.8,0.75,0.01,-0,0.67
1697354717.97,-0.05,-0.07,1.1,-2.3,1,2.8,0.75,0.01,-0,0.67
1697354717.98,-0.05,-0.07,1.1,-2.3,1,2.8,0.75,0.01,-0,0.67
1697354717.99,-0.05,-0.07,1.1,-2.3,1,2.8,0.75,0.01,-0,0.67
1697354718,-0.05,-0.07,1.1,-2.3,1,2.8,0.75,0.01,-0,0.67
1697354718.01,-0.05,-0.07,1.1,-2.3,1,2.8,0.75,0.01,-0,0.67
1697354718.02,-0.05,-0.07,1.1,-2.3,1,2.8,0.75,0.01,-0,0.67
1697354718.03,-0.05,-0.07,1.1,-2.3,1,2.8,0.75,0.01,-0,0.67
1697354718.04,-0.05,-0.07,1.1,-2.3,1,2.8,0.75,0.01,-0,0.67
1697354718.05,-0.05,-0.07,1.1,-2.3,1,2.8,0.75,0.01,-0,0.67
1697354718.06,-0.05,-0.07,1.1,-2.3,1,2.8,0.75,0.01,-0,0.67
1697354718.07,-0.05,-0.07,1.1,-2.3,1,2.8,0.75,0.01,-0,0.67
1697354718.08,-0.05,-0.07,1.1,-2.3,1,2.8,0.75,0.01,-0,0.67
1697354718.09,-0.05,-0.07,1.1,-2.3,1,2.8,0.75,0.01,-0,0.67
1697354718.1,-0.05,-0.07,1.1,-2.3,1,2.8,0.75,0.01,-0,0.67
1697354718.11,-0.05,-0.07,1.1,-2.3,1,2.8,0.75,0.01,-0,0.67
1697354718.12,-0.05,-0.07,1.1,-2.3,1,2.8,0.75,0.01,-0,0.67
1697354718.13,-0.05,-0.07,1.1,-2.3,1,2.8,0.75,0.01,-0,0.67
1697354718.14,-0.05,-0.07,1.1,-2.3,1,2.8,0.75,0.01,-0,0.67
1697354718.15,-0.05,-0.07,1.1,-2.3,1,2.8,0.75,0.01,-0,0.67
1697354718.16,-0.05,-0.07,1.1,-2.3,1,2.8,0.75,0.01,-0,0.67
1697354718.17,-0.05,-0.07,1.1,-2.3,1,2.8,0.75,0.01,-0,0.67
1697354718.18,-0.05,-0.07,1.1,-2.3,1,2.8,0.75,0.01,-0,0.67
1697354718.19,-0.05,-0.07,1.1,-2.3,1,2.8,0.75,0.01,-0,0.67
1697354718.2,-0.05,-0.07,1.1,-2.3,1,2.8,0.75,0.01,-0,0.67
1697354718.21,-0.05,-0.07,1.1,-2.3,1,2.8,0.75,0.01,-0,0.67
1697354718.22,-0.05,-0.07,1.1,-2.3,1,2.8,0.75,0.01,-0,0.67
1697354718.23,-0.05,-0.07,1.1,-2.3,1,2.8,0.75,0.01,-0,0.67
1697354718.24,-0.05,-0.07,1.1,-2.3,1,2.8,0.75,0.01,-0,0.67
1697354718.25,-0.05,-0.07,1.1,-2.3,1,2.8,0.75,0.01,-0,0.67
1697354718.26,-0.05,-0.07,1.1,-2.3,1,2.8,0.75,0.01,-0,0.67
1697354718.27,-0.05,-0.07,1.1,-2.3,1,2.8,0.75,0.01,-0,0.67
1697354718.28,-0.05,-0.07,1.1,-2.3,1,2.8,0.75,0.01,-0,0.67
1697354718.29,-0.05,-0.07,1.1,-2.3,1,2.8,0.75,0.01,-0,0.67
1697354718.3,-0.05,-0.07,1.1,-2.3,1,2.8,0.75,0.01,-0,0.67
1697354718.31,-0.05,-0.07,1.1,-2.3,1,2.8,0.75,0.01,-0,0.67
1697354718.32,-0.05,-0.07,1.1,-2.3,1,2.8,0.75,0.01,-0,0.67
1697354718.33,-0.05,-0.07,1.1,-2.3,1,2.8,0.75,0.01,-0,0.67
1697354718.34,-0.05,-0.07,1.1,-2.3,1,2.8,0.75,0.01,-0,0.67
1697354718.35,-0.05,-0.07,1.1,-2.3,1,2.8,0.75,0.01,-0,0.67
1697354718.36,-0.05,-0.07,1.1,-2.3,1,2.8,0.75,0.01,-0,0.67
1697354718.37,-0.05,-0.07,1.1,-2.3,1,2.8,0.75,0.01,-0,0.67
1697354718.38,-0.05,-0.07,1.1,-2.3,1,2.8,0.75,0.01,-0,0.67
1697354718.39,-0.05,-0.07,1.1,-2.3,1,2.8,0.75,0.01,-0,0.67
1697354718.4,-0.05,-0.07,1.1,-2.3,1,2.8,0.75,0.01,-0,0.67
1697354718.41,-0.05,-0.07,1.1,-2.3,1,2.8,0.75,0.01,-0,0.67
1697354718.42,-0.05,-0.07,1.1,-2.3,1,2.8,0.75,0.01,-0,0.67
1697354718.43,-0.05,-0.07,1.1,-2.3,1,2.8,0.75,0.01,-0,0.67
1697354718.44,-0.05,-0.07,1.1,-2.3,1,2.8,0.75,0.01,-0,0.67
1697354718.45,-0.05,-0.07,1.1,-2.3,1,2.8,0.75,0.01,-0,0.67
1697354718.46,-0.05,-0.07,1.1,-2.3,1,2.8,0.75,0.01,-0,0.67
1697354718.47,-0.05,-0.07,1.1,-2.3,1,2.8,0.75,0.01,-0,0.67
1697354718.48,-0.05,-0.07,1.1,-2.3,1,2.8,0.75,0.01,-0,0.67
1697354718.49,-0.05,-0.07,1.1,-2.3,1,2.8,0.75,0.01,-0,0.67
1697354718.5,-0.05,-0.07,1.1,-2.3,1,2.8,0.75,0.01,-0,0.67
1697354718.51,-0.05,-0.07,1.1,-2.3,1,2.8,0.75,0.01,-0,0.67
1697354718.52,-0.05,-0.07,1.1,-2.3,1,2.8,0.75,0.01,-0,0.67
1697354718.53,-0.05,-0.07,1.1,-2.3,1,2.8,0.75,0.01,-0,0.67
1697354718.54,-0.05,-0.07,1.1,-2.3,1,2.8,0.75,0.01,-0,0.67
1697354718.55,-0.05,-0.07,1.1,-2.3,1,2.8,0.75,0.01,-0,0.67
1697354718.56,-0.05,-0.07,1.1,-2.3,1,2.8,0.75,0.01,-0,0.67
1697354718.57,-0.05,-0.07,1.1,-2.3,1,2.8,0.75,0.01,-0,0.67
1697354718.58,-0.05,-0.07,1.1,-2.3,1,2.8,0.75,0.01,-0,0.67
1697354718.59,-0.02,-0.5,1.11,-0.9,0,-45.9,0.87,0,-0.01,0.49
1697354718.6,-0.01,-0.46,0.94,-0.1,-0.4,-45.7,0.87,0,-0.01,0.49
1697354718.61,-0.01,-0.46,0.94,-0.1,-0.4,-45.7,0.87,0,-0.01,0.49
1697354718.62,-0.04,-0.56,1.05,3.4,-0.8,-45.7,0.87,0,-0.01,0.49
1697354718.63,0,-0.63,0.99,4.1,-0.7,-45.7,0.88,0,-0.01,0.48
1697354718.64,-0.02,-0.6,1.21,4.1,-0.7,-45.7,0.88,0,-0.01,0.48
1697354718.65,-0.06,-0.52,1.02,1.2,0.5,-45.9,0.88,0,-0.01,0.48
1697354718.66,-0.02,-0.54,0.86,0.8,1.2,-46,0.88,0,-0.01,0.47
1697354718.67,0.03,-0.49,0.87,0.8,1.2,-46,0.88,0,-0.01,0.47
1697354718.68,0,-0.43,0.93,0.1,1.8,-45.9,0.89,0,-0.01,0.46
1697354718.69,0,-0.43,0.93,-0.4,1.8,-45.7,0.89,0,-0.01,0.46
1697354718.7,-0.02,-0.4,1.05,0,1.8,-45.9,0.89,0,-0.01,0.46
1697354718.71,-0.07,-0.46,0.96,0.2,1.6,-45.7,0.89,0,-0.01,0.45
1697354718.72,0.01,-0.49,0.91,0.3,1.6,-45.7,0.89,0,-0.01,0.45
1697354718.73,0.02,-0.49,0.97,0.6,1.5,-45.9,0.9,0,-0.01,0.45
1697354718.74,0.06,-0.5,0.99,0.4,1.3,-46,0.9,0,-0.01,0.44
1697354718.75,0.04,-0.53,0.88,-0.9,0.5,-46.2,0.9,0,-0.01,0.44
1697354718.76,-0.06,-0.48,0.92,-0.1,0,-46.2,0.9,0,-0.01,0.43
1697354718.77,-0.04,-0.53,1.18,0.4,-0.3,-46.1,0.9,0,-0.01,0.43
1697354718.78,0.05,-0.51,1.05,0.5,-0.5,-46.2,0.9,0,-0.01,0.43
1697354718.79,0.06,-0.58,0.98,-0.5,-0.6,-46.1,0.91,0,-0.01,0.42
1697354718.8,0.03,-0.49,1.05,-1.4,-0.3,-46,0.91,0,-0.01,0.42
1697354718.81,-0.02,-0.45,0.88,0,0.2,-46,0.91,0,-0.01,0.42
1697354718.82,-0.01,-0.43,1.06,0,0.2,-46,0.91,0,-0.01,0.42
1697354718.83,-0.07,-0.51,1.08,1.2,1.1,-45.9,0.91,0,-0.01,0.41
1697354718.84,0.02,-0.54,0.9,1.4,1.6,-45.7,0.91,0,-0.01,0.41
1697354718.85,0,-0.49,0.83,0.6,2.2,-45.6,0.92,0,-0.01,0.4
1697354718.86,0.07,-0.45,0.91,0.3,3,-45.3,0.92,0,-0.01,0.4
1697354718.87,-0.03,-0.49,0.97,0.6,3.7,-44.8,0.92,0,-0.01,0.39
1697354718.88,0.01,-0.55,1.04,1.3,4.2,-44.4,0.92,0,-0.01,0.39
1697354718.89,0.01,-0.51,0.99,1.4,3.5,-44.4,0.92,0,-0.01,0.39
1697354718.9,0.11,-0.55,0.91,0.5,2.4,-44.4,0.92,0,-0.01,0.38
1697354718.91,0.04,-0.49,1.04,-0.1,1.7,-44.4,0.93,0,-0.01,0.38
1697354718.92,0.08,-0.4,0.85,-0.3,1.1,-44.2,0.93,0,-0,0.38
1697354718.93,-0.08,-0.42,1.07,-0.1,0.2,-43.8,0.93,0,-0,0.37
1697354718.94,0.01,-0.32,0.97,0.9,-0.3,-42.6,0.93,0,-0,0.37
1697354718.95,-0.04,-0.38,1.03,1.4,-0.3,-42.1,0.93,0,-0,0.36
1697354718.96,-0.01,-0.38,1.03,1.7,-0.1,-41.4,0.93,0,-0,0.36
1697354718.97,0.07,-0.39,0.8,1.1,0.5,-40.6,0.93,0.01,-0,0.36
1697354718.98,0.03,-0.38,0.93,0.2,1.2,-39.9,0.93,0.01,-0,0.36
1697354718.99,0.03,-0.38,0.93,0.2,1.2,-39.9,0.93,0.01,-0,0.36
1697354719,0.03,-0.38,0.93,0.2,1.2,-39.9,0.93,0.01,-0,0.36
1697354719.01,0.03,-0.38,0.93,0.2,1.2,-39.9,0.93,0.01,-0,0.36
1697354719.02,0.03,-0.38,0.93,0.2,1.2,-39.9,0.93,0.01,-0,0.36
1697354719.03,0.03,-0.38,0.93,0.2,1.2,-39.9,0.93,0.01,-0,0.36
1697354719.04,0.03,-0.38,0.93,0.2,1.2,-39.9,0.93,0.01,-0,0.36
1697354719.05,0.03,-0.38,0.93,0.2,1.2,-39.9,0.93,0.01,-0,0.36
1697354719.06,0.03,-0.38,0.93,0.2,1.2,-39.9,0.93,0.01,-0,0.36
1697354719.07,0.03,-0.38,0.93,0.2,1.2,-39.9,0.93,0.01,-0,0.36
1697354719.08,0.03,-0.38,0.93,0.2,1.2,-39.9,0.93,0.01,-0,0.36
1697354719.09,0.03,-0.38,0.93,0.2,1.2,-39.9,0.93,0.01,-0,0.36
1697354719.1,0.03,-0.38,0.93,0.2,1.2,-39.9,0.93,0.01,-0,0.36
1697354719.11,0.03,-0.38,0.93,0.2,1.2,-39.9,0.93,0.01,-0,0.36
1697354719.12,0.03,-0.38,0.93,0.2,1.2,-39.9,0.93,0.01,-0,0.36
1697354719.13,0.03,-0.38,0.93,0.2,1.2,-39.9,0.93,0.01,-0,0.36
1697354719.14,0.03,-0.38,0.93,0.2,1.2,-39.9,0.93,0.01,-0,0.36
1697354719.15,0.03,-0.38,0.93,0.2,1.2,-39.9,0.93,0.01,-0,0.36
1697354719.16,0.03,-0.38,0.93,0.2,1.2,-39.9,0.93,0.01,-0,0.36
1697354719.17,0.03,-0.38,0.93,0.2,1.2,-39.9,0.93,0.01,-0,0.36
1697354719.18,0.03,-0.38,0.93,0.2,1.2,-39.9,0.93,0.01,-0,0.36
1697354719.19,0.03,-0.38,0.93,0.2,1.2,-39.9,0.93,0.01,-0,0.36
1697354719.2,0.03,-0.38,0.93,0.2,1.2,-39.9,0.93,0.01,-0,0.36
1697354719.21,0.03,-0.38,0.93,0.2,1.2,-39.9,0.93,0.01,-0,0.36
1697354719.22,0.03,-0.38,0.93,0.2,1.2,-39.9,0.93,0.01,-0,0.36
1697354719.23,0.03,-0.38,0.93,0.2,1.2,-39.9,0.93,0.01,-0,0.36
1697354719.24,0.03,-0.38,0.93,0.2,1.2,-39.9,0.93,0.01,-0,0.36
1697354719.25,0.03,-0.38,0.93,0.2,1.2,-39.9,0.93,0.01,-0,0.36
1697354719.26,0.03,-0.38,0.93,0.2,1.2,-39.9,0.93,0.01,-0,0.36
1697354719.27,0.03,-0.38,0.93,0.2,1.2,-39.9,0.93,0.01,-0,0.36
1697354719.28,0.03,-0.38,0.93,0.2,1.2,-39.9,0.93,0.01,-0,0.36
1697354719.29,0.03,-0.38,0.93,0.2,1.2,-39.9,0.93,0.01,-0,0.36
1697354719.3,0.03,-0.38,0.93,0.2,1.2,-39.9,0.93,0.01,-0,0.36
1697354719.31,0.03,-0.38,0.93,0.2,1.2,-39.9,0.93,0.01,-0,0.36
1697354719.32,0.03,-0.38,0.93,0.2,1.2,-39.9,0.93,0.01,-0,0.36
1697354719.33,0.03,-0.38,0.93,0.2,1.2,-39.9,0.93,0.01,-0,0.36
1697354719.34,0.03,-0.38,0.93,0.2,1.2,-39.9,0.93,0.01,-0,0.36
1697354719.35,0.03,-0.38,0.93,0.2,1.2,-39.9,0.93,0.01,-0,0.36
1697354719.36,0.03,-0.38,0.93,0.2,1.2,-39.9,0.93,0.01,-0,0.36
1697354719.37,0.03,-0.38,0.93,0.2,1.2,-39.9,0.93,0.01,-0,0.36
1697354719.38,0.03,-0.38,0.93,0.2,1.2,-39.9,0.93,0.01,-0,0.36
1697354719.39,0.03,-0.38,0.93,0.2,1.2,-39.9,0.93,0.01,-0,0.36
1697354719.4,0.03,-0.38,0.93,0.2,1.2,-39.9,0.93,0.01,-0,0.36
1697354719.41,0.03,-0.38,0.93,0.2,1.2,-39.9,0.93,0.01,-0,0.36
1697354719.42,0.03,-0.38,0.93,0.2,1.2,-39.9,0.93,0.01,-0,0.36
1697354719.43,0.03,-0.38,0.93,0.2,1.2,-39.9,0.93,0.01,-0,0.36
1697354719.44,0.03,-0.38,0.93,0.2,1.2,-39.9,0.93,0.01,-0,0.36
1697354719.45,0.03,-0.38,0.93,0.2,1.2,-39.9,0.93,0.01,-0,0.36
1697354719.46,0.03,-0.38,0.93,0.2,1.2,-39.9,0.93,0.01,-0,0.36
1697354719.47,0.03,-0.38,0.93,0.2,1.2,-39.9,0.93,0.01,-0,0.36
1697354719.48,0.03,-0.38,0.93,0.2,1.2,-39.9,0.93,0.01,-0,0.36
1697354719.49,0.03,-0.38,0.93,0.2,1.2,-39.9,0.93,0.01,-0,0.36
1697354719.5,0.03,-0.38,0.93,0.2,1.2,-39.9,0.93,0.01,-0,0.36
1697354719.51,0.05,-0.22,1.08,1.2,2,-17.3,0.93,0.01,-0,0.36
1697354719.52,0.04,-0.17,0.99,0.2,3.5,-16.8,0.97,0.01,0,0.22
1697354719.53,0.06,-0.16,1.05,-0.4,3.7,-16.2,0.98,0.01,0,0.22
1697354719.54,0.05,-0.09,1.11,-0.4,3.7,-15.6,0.98,0.01,0,0.22
1697354719.55,0.08,-0.13,0.93,0.2,1.9,-14.4,0.98,0.01,0,0.22
1697354719.56,0.08,-0.13,1.13,0,0.6,-14,0.98,0.01,0,0.22
1697354719.57,0.11,-0.15,0.9,0,-0.5,-13.9,0.98,0.01,0,0.22
1697354719.58,0.1,-0.18,1,-0.2,-1.4,-13.8,0.98,0.01,0,0.21
1697354719.59,0.25,-0.16,0.84,0.1,-2.1,-14.1,0.98,0.01,0,0.21
1697354719.6,0.08,-0.16,0.91,0.8,-2.8,-14.3,0.98,0.01,0,0.21
1697354719.61,0.1,-0.17,0.96,0.8,-2.8,-14.3,0.98,0.01,0,0.21
1697354719.62,0.01,-0.13,0.94,1.2,-2.8,-14.5,0.98,0.01,0,0.21
1697354719.63,-0.03,-0.19,1.1,1.7,-2.5,-14.7,0.98,0.01,0,0.21
1697354719.64,-0.02,-0.25,1.09,1.4,-1.9,-15,0.98,0.01,0,0.21
1697354719.65,0.07,-0.17,0.9,-0.1,-1.2,-15.2,0.98,0.01,-0,0.21
1697354719.66,0.07,-0.17,0.9,-0.1,-1.2,-15.2,0.98,0.01,-0,0.21
1697354719.67,0.02,-0.11,1.05,-1.2,-0.3,-15.4,0.98,0.01,-0,0.2
1697354719.68,0.07,-0.11,0.94,-1.1,0,-15.4,0.98,0.01,-0,0.2
1697354719.69,0.04,-0.24,1.03,-0.7,0.8,-15.4,0.98,0.01,-0,0.2
1697354719.7,0.04,-0.24,1.03,-0.7,0.8,-15.4,0.98,0.01,-0,0.2
1697354719.71,0.04,-0.25,0.84,-1.5,1.4,-15.7,0.98,0.01,-0,0.2
1697354719.72,0.1,-0.16,1.16,-3.9,1.8,-16.1,0.98,0.01,-0,0.2
1697354719.73,0.1,-0.1,1.14,-4.9,1.7,-15.9,0.98,0.01,0,0.2
1697354719.74,-0.01,-0.1,0.97,-3.7,1.6,-15.9,0.98,0.01,0,0.19
1697354719.75,0.05,-0.27,0.93,1.5,0.9,-16,0.98,0.01,0,0.19
1697354719.76,0.05,-0.27,0.93,1.5,0.9,-16,0.98,0.01,0,0.19
1697354719.77,0.04,-0.35,1.02,1.4,1,-15.9,0.98,0.01,0,0.19
1697354719.78,0.04,-0.35,1.02,-0.1,1.3,-15.9,0.98,0.01,0,0.19
1697354719.79,0.07,-0.25,0.76,-1,1.7,-15.8,0.98,0.01,0,0.19
1697354719.8,0.08,-0.13,0.93,-0.8,2,-15.7,0.98,0.01,0,0.19
1697354719.81,0.08,-0.13,0.93,0.5,2.1,-15.5,0.98,0.01,0,0.18
1697354719.82,-0.14,-0.15,1.14,1.4,2.3,-15.5,0.98,0.01,0,0.18
1697354719.83,-0.14,-0.15,1.14,1.7,2.3,-15.3,0.98,0.01,0,0.18
1697354719.84,0.03,-0.18,1.1,1.9,1.9,-15.4,0.98,0.01,0,0.18
1697354719.85,0.09,-0.27,1,2,1.7,-15.7,0.98,0.01,0,0.18
1697354719.86,0.05,-0.23,0.99,1.4,1.4,-16.3,0.98,0.01,0,0.18
1697354719.87,-0.06,-0.23,1.12,0,1.4,-16.5,0.98,0.01,0,0.18
1697354719.88,0.07,-0.2,1.04,-0.6,1.4,-16.7,0.98,0.01,0,0.17
1697354719.89,-0.02,-0.1,1.05,-0.2,1.4,-16.9,0.98,0.01,0,0.17
1697354719.9,0.03,-0.09,0.78,0.9,1.2,-16.4,0.99,0.01,0,0.17
1697354719.91,-0.02,-0.28,1.18,2.9,1.7,-16.1,0.99,0.01,0,0.17
1697354719.92,-0.02,-0.28,1.18,2.9,1.7,-16.1,0.99,0.01,0,0.17
1697354719.93,-0.02,-0.28,1.18,2.9,1.7,-16.1,0.99,0.01,0,0.17
1697354719.94,-0.02,-0.28,1.18,2.9,1.7,-16.1,0.99,0.01,0,0.17
1697354719.95,-0.02,-0.28,1.18,2.9,1.7,-16.1,0.99,0.01,0,0.17
1697354719.96,-0.02,-0.28,1.18,2.9,1.7,-16.1,0.99,0.01,0,0.17
1697354719.97,-0.02,-0.28,1.18,2.9,1.7,-16.1,0.99,0.01,0,0.17
1697354719.98,-0.02,-0.28,1.18,2.9,1.7,-16.1,0.99,0.01,0,0.17
1697354719.99,-0.02,-0.28,1.18,2.9,1.7,-16.1,0.99,0.01,0,0.17
1697354720,-0.02,-0.28,1.18,2.9,1.7,-16.1,0.99,0.01,0,0.17
1697354720.01,-0.02,-0.28,1.18,2.9,1.7,-16.1,0.99,0.01,0,0.17
1697354720.02,-0.02,-0.28,1.18,2.9,1.7,-16.1,0.99,0.01,0,0.17
1697354720.03,-0.02,-0.28,1.18,2.9,1.7,-16.1,0.99,0.01,0,0.17
1697354720.04,-0.02,-0.28,1.18,2.9,1.7,-16.1,0.99,0.01,0,0.17
1697354720.05,-0.02,-0.28,1.18,2.9,1.7,-16.1,0.99,0.01,0,0.17
1697354720.06,-0.02,-0.28,1.18,2.9,1.7,-16.1,0.99,0.01,0,0.17
1697354720.07,-0.02,-0.28,1.18,2.9,1.7,-16.1,0.99,0.01,0,0.17
1697354720.08,-0.02,-0.28,1.18,2.9,1.7,-16.1,0.99,0.01,0,0.17
1697354720.09,-0.02,-0.28,1.18,2.9,1.7,-16.1,0.99,0.01,0,0.17
1697354720.1,0.01,-0.24,1.06,-1.4,1.6,-15.8,0.99,0,0,0.14
1697354720.11,-0.02,-0.23,1.05,-2.2,1.5,-15.9,0.99,0,0,0.14
1697354720.12,-0.02,-0.12,1.02,-2.2,1.5,-15.9,0.99,0,0,0.14
1697354720.13,0.1,-0.08,1.02,-3.1,1.4,-15.7,0.99,0,0,0.14
1697354720.14,0.1,-0.08,1.02,-2.7,1.4,-15.6,0.99,0,0,0.14
1697354720.15,0.01,-0.18,1,1.6,-0.1,-15.3,0.99,0,0,0.14
1697354720.16,0.01,-0.18,1,1.6,-0.1,-15.3,0.99,0,0,0.14
1697354720.17,-0.03,-0.27,0.95,2.5,-1,-15.1,0.99,0,0,0.13
1697354720.18,-0.03,-0.27,0.95,2.1,-1.9,-15.2,0.99,0,0,0.13
1697354720.19,-0.05,-0.26,1.02,0.9,-2,-15.4,0.99,0,0,0.13
1697354720.2,0.08,-0.15,0.92,-0.5,-1.7,-15.5,0.99,0,0,0.13
1697354720.21,0.04,-0.07,0.86,-0.5,-0.9,-15.1,0.99,0,0,0.13
1697354720.22,0.02,-0.08,1.06,0.5,-0.3,-14.7,0.99,0,0,0.13
1697354720.23,0.02,-0.08,1.06,3.1,0.6,-14.6,0.99,0,0,0.13
1697354720.24,-0.08,-0.24,1.22,5,1,-14.3,0.99,0,0,0.13
1697354720.25,0.05,-0.35,1.07,4.3,1,-14.2,0.99,0,0,0.12
1697354720.26,0.04,-0.27,0.91,1,1,-14.3,0.99,0,0,0.12
1697354720.27,0.09,-0,0.95,-1.9,0.6,-14.6,0.99,-0,0,0.12
1697354720.28,0.14,0.01,0.8,-1.6,0.7,-13.8,0.99,-0,0,0.12
1697354720.29,0.14,0.01,0.8,1,0,-13.7,0.99,-0,0,0.12
1697354720.3,0.06,-0.17,1,2.7,-0.4,-13.6,0.99,-0,0,0.12
1697354720.31,0.06,-0.17,1,2.6,-1,-13.5,0.99,-0,0,0.12
1697354720.32,0.03,-0.16,0.9,1,-1.8,-13.5,0.99,0,0,0.12
1697354720.33,0.01,-0.12,1.13,-1,-2.3,-13.2,0.99,0,0,0.12
1697354720.34,0.02,-0.06,1.16,-1,-2.3,-13.2,0.99,-0,0,0.11
1697354720.35,-0.01,-0.05,0.85,-1.7,-3,-12.9,0.99,-0,0,0.11
1697354720.36,-0.06,-0.05,1.12,-0.6,-2.7,-12.6,0.99,-0,0,0.11
1697354720.37,-0.07,-0.14,1.07,0.2,-2.4,-12.4,0.99,-0,0,0.11
1697354720.38,-0.01,-0.09,0.77,-0.3,-1,-12.4,0.99,-0,0,0.11
1697354720.39,0.07,-0.1,0.98,-1.3,0,-12.2,0.99,-0,0,0.11
1697354720.4,0,-0.09,1.13,-1.2,1.1,-12.1,0.99,-0,0,0.11
1697354720.41,-0.01,-0.11,1.09,-0.3,1.6,-12.3,0.99,-0,0,0.11
1697354720.42,0.03,-0.18,1.06,-0.1,1.7,-12.5,0.99,-0,0,0.11
1697354720.43,-0.04,-0.2,1.04,-0.5,1.4,-12.5,0.99,-0,0,0.1
1697354720.44,-0.12,-0.18,1.2,-0.8,1,-12.8,0.99,-0,0,0.1
1697354720.45,0.01,-0.18,0.98,-1,0.5,-12.9,0.99,-0,0,0.1
1697354720.46,0.04,-0.17,1.11,-1.2,0.7,-12.6,0.99,-0,0,0.1
1697354720.47,0.03,-0.14,1.07,-1.7,0.7,-12.5,0.99,-0,0,0.1
1697354720.48,0.03,-0.12,1.08,-2.4,0.6,-12,0.99,-0,0,0.1
1697354720.49,0.03,-0.12,1.08,-2.4,0.6,-12,0.99,-0,0,0.1
1697354720.5,0.03,-0.12,1.08,-2.4,0.6,-12,0.99,-0,0,0.1
1697354720.51,0.03,-0.12,1.08,-2.4,0.6,-12,0.99,-0,0,0.1
1697354720.52,0.03,-0.12,1.08,-2.4,0.6,-12,0.99,-0,0,0.1
1697354720.53,0.03,-0.12,1.08,-2.4,0.6,-12,0.99,-0,0,0.1
1697354720.54,0.03,-0.12,1.08,-2.4,0.6,-12,0.99,-0,0,0.1
1697354720.55,0.03,-0.12,1.08,-2.4,0.6,-12,0.99,-0,0,0.1
1697354720.56,0.03,-0.12,1.08,-2.4,0.6,-12,0.99,-0,0,0.1
1697354720.57,0.03,-0.12,1.08,-2.4,0.6,-12,0.99,-0,0,0.1
1697354720.58,0.03,-0.12,1.08,-2.4,0.6,-12,0.99,-0,0,0.1
1697354720.59,0.03,-0.12,1.08,-2.4,0.6,-12,0.99,-0,0,0.1
1697354720.6,0.03,-0.12,1.08,-2.4,0.6,-12,0.99,-0,0,0.1
1697354720.61,0.03,-0.12,1.08,-2.4,0.6,-12,0.99,-0,0,0.1
1697354720.62,0.07,-0.03,0.78,0.8,-1,-8.8,1,-0,0,0.09
1697354720.63,0.04,0.05,0.82,0.5,-1.7,-8.1,1,-0,0,0.08
1697354720.64,0.04,0.05,0.82,0.4,-2.4,-7.5,1,-0,0,0.08
1697354720.65,0.12,0.04,0.9,0.6,-3.2,-6.7,1,-0,0,0.08
1697354720.66,0.04,-0.01,0.93,1.7,-4,-6,1,-0,0,0.08
1697354720.67,0,-0.09,0.95,1.8,-4.4,-5.1,1,-0,-0,0.08
1697354720.68,0.01,-0.07,0.79,1.3,-4.4,-5,1,-0,-0,0.08
1697354720.69,-0.03,-0.01,1.03,-0.6,-3.4,-4.7,1,-0,-0,0.08
1697354720.7,0.02,0.1,0.96,-2.4,-2,-4.3,1,-0,-0,0.08
1697354720.71,-0.1,0.31,1.1,-2.7,0,-3.2,1,-0,-0,0.08
1697354720.72,-0.03,0.18,1.22,-1.4,1.6,-2.3,1,-0,-0,0.08
1697354720.73,-0.01,0.2,1.17,0.6,2.6,-1.3,1,-0,-0,0.08
1697354720.74,0.06,0.06,0.92,1.8,2.7,-0.6,1,-0,-0,0.08
1697354720.75,0.03,-0.08,1.22,1.5,2.6,0,1,-0,-0,0.08
1697354720.76,0.11,-0.03,1.04,0,2.2,-0.1,1,-0,-0,0.08
1697354720.77,0.03,-0.04,0.94,-1.9,1.6,-0.2,1,-0,-0,0.08
1697354720.78,0.02,0.07,1.1,-3.1,1,-0.6,1,-0,-0,0.08
1697354720.79,0.07,0.12,1.09,-1.4,0.8,-0.8,1,-0,-0,0.08
1697354720.8,0.09,-0.01,1.22,0,0.4,-1.3,1,-0,0,0.08
1697354720.81,0.1,-0.1,1.06,0,-0.1,-1.6,1,-0,0,0.08
1697354720.82,0.18,0.1,0.66,-1,-1.1,-1.5,1,-0,0,0.08
1697354720.83,0.13,0.03,0.69,-1,-1.3,-0.9,1,-0,-0,0.08
1697354720.84,-0.01,-0.02,0.93,0.3,-1.2,-1.1,1,-0,-0,0.08
1697354720.85,0.02,-0.03,1.11,0.7,-1.1,-1.1,1,-0,-0,0.08
1697354720.86,0.06,-0.13,0.91,-1.2,-1,-0.6,1,-0,-0,0.08
1697354720.87,0.06,0.07,1.03,-2.5,-0.9,-0.4,1,-0,-0,0.08
1697354720.88,0.11,0.07,1.11,-1.8,-0.9,-0.3,1,-0,-0,0.08
1697354720.89,0.17,0.01,0.8,0.9,-0.7,-0.1,1,-0,-0,0.08
1697354720.9,0.18,-0.02,0.8,2.8,0.1,-0.4,1,-0,-0,0.08
1697354720.91,-0.03,-0.13,0.96,2.8,0.1,-0.4,1,-0,-0,0.08
1697354720.92,0.09,-0.03,0.86,1,1.4,0,1,-0,-0,0.08
1697354720.93,0,0.03,0.73,-0.4,2.6,-0.4,1,-0,-0,0.08
1697354720.94,0,0.03,0.73,-0.4,2.6,-0.4,1,-0,-0,0.08
1697354720.95,0.09,0.03,1.17,0.6,2.6,-0.3,1,-0,0,0.08
1697354720.96,0.09,0.03,1.17,1.1,2.1,-0.3,1,-0,0,0.08
1697354720.97,0.1,0.01,0.95,1,0.9,0,1,-0,0,0.08
1697354720.98,0.19,0.07,0.95,0.8,0,0,1,-0,0,0.08
1697354720.99,0.09,0.01,0.96,0.9,-1,0,1,-0,0,0.08
1697354721,0.01,-0,0.84,0.3,-1,0.2,1,-0,0,0.08
1697354721.01,0.01,-0,0.84,0.3,-1,0.2,1,-0,0,0.08
1697354721.02,0.01,-0,0.84,0.3,-1,0.2,1,-0,0,0.08
1697354721.03,0.01,-0,0.84,0.3,-1,0.2,1,-0,0,0.08
1697354721.04,0.01,-0,0.84,0.3,-1,0.2,1,-0,0,0.08
1697354721.05,0.01,-0,0.84,0.3,-1,0.2,1,-0,0,0.08
1697354721.06,0.01,-0,0.84,0.3,-1,0.2,1,-0,0,0.08
1697354721.07,0.01,-0,0.84,0.3,-1,0.2,1,-0,0,0.08
1697354721.08,0.01,-0,0.84,0.3,-1,0.2,1,-0,0,0.08
1697354721.09,0.01,-0,0.84,0.3,-1,0.2,1,-0,0,0.08
1697354721.1,0.01,-0,0.84,0.3,-1,0.2,1,-0,0,0.08
1697354721.11,0.01,-0,0.84,0.3,-1,0.2,1,-0,0,0.08
1697354721.12,0.01,-0,0.84,0.3,-1,0.2,1,-0,0,0.08
1697354721.13,0.09,0.04,0.7,0.8,0,0.9,1,-0,0,0.08
1697354721.14,-0.01,-0.11,1.09,-2.1,-0.2,0.9,1,-0,0,0.08
1697354721.15,0.12,-0.05,0.88,-3.6,-0.5,0.7,1,-0,0,0.08
1697354721.16,0.06,0.11,0.85,-2.3,-1,0.9,1,-0,0,0.08
1697354721.17,-0.1,0.13,1.11,-0.7,-1,1.5,1,-0,0,0.08
1697354721.18,-0.1,0.13,1.11,-0.7,-1,1.5,1,-0,0,0.08
1697354721.19,-0.02,0.09,1.08,0.5,-1.1,2.2,1,-0,0,0.08
1697354721.2,0.02,0.15,1.07,0,-1.4,3.9,1,-0,-0,0.08
1697354721.21,0.02,0.15,1.07,0,-1.4,3.9,1,-0,-0,0.08
1697354721.22,0.09,0.18,1,-0.1,-1.2,5.8,1,-0,-0,0.08
1697354721.23,-0.05,0.12,1.33,-0.1,-1.2,5.8,1,-0,-0,0.08
1697354721.24,0.16,0.14,1.03,0.7,-1,7.2,1,-0,-0,0.08
1697354721.25,0.16,0.14,1.03,0.7,-1,7.2,1,-0,-0,0.08
1697354721.26,0.07,0.14,0.93,1.1,-1.4,7.6,1,-0,-0,0.08
1697354721.27,0.06,0.19,0.94,1.4,-1.8,8.1,1,-0,-0,0.08
1697354721.28,0.06,0.19,0.94,1.4,-2.1,8.3,1,-0,-0,0.09
1697354721.29,0.03,0.24,1.2,2.6,-3.4,9.1,1,-0,-0,0.09
1697354721.3,0.01,0.14,0.98,4.1,-4.7,9.8,1,-0,-0,0.09
1697354721.31,0.01,0.14,0.98,4.2,-5.8,10.7,1,-0,-0,0.09
1697354721.32,-0.1,0.26,1.11,2.8,-6.3,11.2,1,-0,-0,0.09
1697354721.33,-0.1,0.26,1.11,0.7,-6,12.1,1,-0,-0,0.09
1697354721.34,0,0.33,0.79,-0.1,-5.7,12.8,1,-0,-0,0.09
1697354721.35,0.02,0.37,0.86,-0.2,-4.8,13.6,1,-0,-0,0.09
1697354721.36,0.07,0.33,0.96,1.3,-4.2,14.6,1,0,-0,0.09
1697354721.37,-0.02,0.27,1.02,1.8,-3.3,15.3,1,0,-0,0.09
1697354721.38,-0.03,0.21,0.86,0.6,-2.8,15.8,1,0,-0,0.1
1697354721.39,-0.11,0.33,1.05,-1.5,-2.1,16.1,1,0,-0.01,0.1
1697354721.4,-0.01,0.47,1.05,-2.8,-1.4,16.7,0.99,0,-0.01,0.1
1697354721.41,-0.01,0.35,1.02,-1.9,-0.9,17.5,0.99,0,-0.01,0.1
1697354721.42,0,0.36,1.07,-0.4,-0.5,18.1,0.99,0,-0.01,0.1
1697354721.43,-0.03,0.24,1.11,0.6,0.2,18.6,0.99,0,-0.01,0.1
1697354721.44,0.2,0.26,0.93,0.9,0.7,19,0.99,0,-0.01,0.11
1697354721.45,0.04,0.14,1.02,-0.2,0.7,19.2,0.99,0,-0.01,0.11
1697354721.46,-0.02,0.21,1.02,-1.7,0.8,18.9,0.99,0,-0.01,0.11
1697354721.47,0.03,0.29,1.14,-1.7,0.8,18.8,0.99,0,-0.01,0.11
1697354721.48,-0.02,0.2,0.99,-1,0.5,18.6,0.99,0,-0,0.11
1697354721.49,0.02,0.22,1.03,-1,0.4,18.4,0.99,0,-0,0.11
1697354721.5,-0.03,0.24,1.11,-0.6,0.4,18.1,0.99,0,-0,0.12
1697354721.51,0.02,0.25,1.11,-0.1,0.2,18,0.99,0,-0,0.12
1697354721.52,0.02,0.25,1.11,-0.1,0.2,18,0.99,0,-0,0.12
1697354721.53,0.02,0.25,1.11,-0.1,0.2,18,0.99,0,-0,0.12
1697354721.54,0.02,0.25,1.11,-0.1,0.2,18,0.99,0,-0,0.12
1697354721.55,0.02,0.25,1.11,-0.1,0.2,18,0.99,0,-0,0.12
1697354721.56,0.02,0.25,1.11,-0.1,0.2,18,0.99,0,-0,0.12
1697354721.57,0.02,0.25,1.11,-0.1,0.2,18,0.99,0,-0,0.12
1697354721.58,0.02,0.25,1.11,-0.1,0.2,18,0.99,0,-0,0.12
1697354721.59,0.02,0.25,1.11,-0.1,0.2,18,0.99,0,-0,0.12
1697354721.6,0.02,0.25,1.11,-0.1,0.2,18,0.99,0,-0,0.12
1697354721.61,0.02,0.25,1.11,-0.1,0.2,18,0.99,0,-0,0.12
1697354721.62,0.02,0.25,1.11,-0.1,0.2,18,0.99,0,-0,0.12
1697354721.63,0.02,0.25,1.11,-0.1,0.2,18,0.99,0,-0,0.12
1697354721.64,-0.01,0.32,0.91,-1.7,-1.8,19.1,0.99,0,-0,0.14
1697354721.65,-0.01,0.32,0.91,-0.5,-1.8,19.3,0.99,0,-0,0.14
1697354721.66,-0.05,0.33,1.17,1.2,-1.5,19.4,0.99,0,-0,0.14
1697354721.67,-0.03,0.25,0.81,2.9,-0.9,19.7,0.99,0.01,-0,0.14
1697354721.68,-0.04,0.19,1.15,3.7,-0.4,20,0.99,0.01,-0,0.14
1697354721.69,-0.02,0.31,1.03,2.3,0,20.5,0.99,0.01,-0,0.15
1697354721.7,-0.02,0.31,1.03,0.5,0.3,20.8,0.99,0.01,-0,0.15
1697354721.71,0.02,0.36,0.94,-1.4,0.3,21.5,0.99,0.01,-0,0.15
1697354721.72,-0.05,0.41,1.04,-1.6,-0.2,22.3,0.99,0.01,-0,0.15
1697354721.73,-0.08,0.56,1.11,-0.4,-0.4,23.2,0.99,0.01,-0,0.15
1697354721.74,-0.02,0.41,1,2.4,0,24.2,0.99,0.01,-0,0.16
1697354721.75,-0.07,0.28,1.04,4.4,0.3,24.6,0.99,0.01,-0,0.16
1697354721.76,0.02,0.32,1.12,4.4,0.1,24.9,0.99,0.01,-0,0.16
1697354721.77,0.06,0.27,0.87,2.3,-0.2,25.6,0.99,0.01,-0,0.16
1697354721.78,-0.07,0.39,1.04,-0.7,-1.2,25.7,0.99,0.01,-0,0.16
1697354721.79,-0.09,0.42,1.11,-1.3,-1.3,25.9,0.99,0.01,-0,0.17
1697354721.8,-0.14,0.44,0.97,-1.1,-0.9,26.5,0.99,0.01,-0,0.17
1697354721.81,-0.03,0.45,1.05,0.1,-0.6,26.5,0.99,0.01,-0,0.17
1697354721.82,-0.01,0.34,1.16,1.5,-0.3,26.5,0.98,0.01,-0,0.17
1697354721.83,0.14,0.26,0.68,1.7,-0.2,26.2,0.98,0.01,-0,0.18
1697354721.84,0.04,0.16,1.19,1.2,0,26.1,0.98,0.01,-0,0.18
1697354721.85,0.01,0.19,0.86,-3.3,1.2,25.2,0.98,0.01,-0,0.18
1697354721.86,0.04,0.32,0.87,-5.9,2.3,25.4,0.98,0.01,-0,0.18
1697354721.87,-0.03,0.39,0.94,-5.5,3.3,25.4,0.98,0.01,-0,0.19
1697354721.88,0.07,0.49,0.77,-2.2,3.7,25.3,0.98,0.01,-0,0.19
1697354721.89,0.03,0.34,1,0.9,3.5,25.4,0.98,0.01,-0,0.19
1697354721.9,0.05,0.18,0.95,1.9,3,25.6,0.98,0.01,-0,0.19
1697354721.91,-0.1,0.1,1,1,2.4,25.7,0.98,0.01,-0,0.19
1697354721.92,0.1,0.22,0.7,-1.9,1.6,25.8,0.98,0.01,-0,0.19
1697354721.93,0.03,0.16,0.85,-3.3,1.3,25.8,0.98,0.01,-0,0.2
1697354721.94,0,0.39,1,-4.5,1.8,25.5,0.98,0.01,-0,0.2
1697354721.95,-0.08,0.38,1.1,-4.5,1.8,25.5,0.98,0.01,-0,0.2
1697354721.96,0.04,0.48,1.06,-3.2,1.7,25.9,0.98,0.01,-0,0.2
1697354721.97,0.12,0.39,0.92,3.4,0.8,26,0.98,0.01,-0,0.21
1697354721.98,0,0.17,1.1,4.5,0.6,26.3,0.98,0.01,-0,0.21
1697354721.99,-0.03,0.19,1,2.9,0.8,26,0.98,0.01,-0,0.21
1697354722,-0.03,0.19,1,2.9,0.8,26,0.98,0.01,-0,0.21
1697354722.01,0.03,0.24,1.09,0.7,1.4,26,0.98,0.01,-0,0.21
1697354722.02,-0.03,0.33,1.11,0.2,2,26.1,0.98,0.01,-0,0.22
1697354722.03,0.04,0.35,0.89,0.6,2.5,26.3,0.98,0.01,-0,0.22
1697354722.04,0.04,0.35,0.89,0.6,2.5,26.3,0.98,0.01,-0,0.22
1697354722.05,0.04,0.35,0.89,0.6,2.5,26.3,0.98,0.01,-0,0.22
1697354722.06,0.04,0.35,0.89,0.6,2.5,26.3,0.98,0.01,-0,0.22
1697354722.07,0.04,0.35,0.89,0.6,2.5,26.3,0.98,0.01,-0,0.22
1697354722.08,0.04,0.35,0.89,0.6,2.5,26.3,0.98,0.01,-0,0.22
1697354722.09,0.04,0.35,0.89,0.6,2.5,26.3,0.98,0.01,-0,0.22
1697354722.1,0.04,0.35,0.89,0.6,2.5,26.3,0.98,0.01,-0,0.22
1697354722.11,0.04,0.35,0.89,0.6,2.5,26.3,0.98,0.01,-0,0.22
1697354722.12,0.04,0.35,0.89,0.6,2.5,26.3,0.98,0.01,-0,0.22
1697354722.13,0.04,0.35,0.89,0.6,2.5,26.3,0.98,0.01,-0,0.22
1697354722.14,0.04,0.35,0.89,0.6,2.5,26.3,0.98,0.01,-0,0.22
1697354722.15,0.04,0.35,0.89,0.6,2.5,26.3,0.98,0.01,-0,0.22
1697354722.16,-0.1,0.38,1.18,0.6,2.5,26.3,0.97,0.01,0,0.25
1697354722.17,0.03,0.34,0.91,0,1,32.7,0.97,0.01,0,0.26
1697354722.18,-0.03,0.32,1.11,0,1,32.7,0.97,0.01,0,0.26
1697354722.19,-0.05,0.31,0.93,-0.5,2.2,32,0.96,0.01,0,0.26
1697354722.2,-0.03,0.36,0.88,-0.1,2.8,31.5,0.96,0.01,0,0.27
1697354722.21,-0.05,0.39,1.2,0,2.9,31.6,0.96,0.01,0,0.27
1697354722.22,0.08,0.4,1,0.5,2.8,31.5,0.96,0.01,0,0.27
1697354722.23,-0.1,0.34,1.03,0.5,2.8,31.5,0.96,0.01,0,0.27
1697354722.24,-0.1,0.34,1.03,0.8,2.5,31.7,0.96,0.01,0,0.27
1697354722.25,0.07,0.35,0.98,1.1,0.8,32.2,0.96,0.01,0,0.28
1697354722.26,0.07,0.35,0.98,1.1,0.8,32.2,0.96,0.01,0,0.28
1697354722.27,0.11,0.35,0.58,-1,-1.1,32.7,0.96,0.01,0,0.28
1697354722.28,-0.04,0.37,1.06,-1,-1.1,32.7,0.96,0.01,0,0.29
1697354722.29,-0.03,0.43,0.96,-2.2,-1.4,32.5,0.96,0.01,0,0.29
1697354722.3,-0.05,0.47,0.86,-1,-0.9,32.6,0.96,0.01,0,0.29
1697354722.31,0,0.52,1.13,-1,-0.9,32.6,0.96,0.01,0,0.29
1697354722.32,0.01,0.46,1.05,3.2,0.3,32.4,0.95,0.01,0,0.3
1697354722.33,-0.03,0.33,0.92,3.8,1,32.4,0.95,0.01,0,0.3
1697354722.34,-0.08,0.34,0.83,2.6,1.6,32.5,0.95,0.01,0,0.3
1697354722.35,-0.07,0.4,1.16,0.5,1.7,32.8,0.95,0.01,0,0.3
1697354722.36,-0.02,0.51,0.98,0.5,1.7,32.8,0.95,0.01,0,0.31
1697354722.37,-0,0.62,0.72,-0.3,1.8,33.6,0.95,0.01,0,0.31
1697354722.38,0.03,0.5,0.94,1.2,1.9,34.8,0.95,0.01,0,0.31
1697354722.39,0.08,0.48,0.94,3.2,1.8,35.7,0.95,0.01,0,0.32
1697354722.4,-0.07,0.29,1.14,5.7,1.8,36.5,0.95,0.01,0,0.32
1697354722.41,-0.07,0.29,1.14,6.2,1.8,37.2,0.95,0.01,0,0.32
1697354722.42,0.1,0.33,0.81,4.7,1.7,37.1,0.95,0.01,0,0.33
1697354722.43,-0.05,0.42,1.11,1.1,1.1,37.3,0.95,0.01,0,0.33
1697354722.44,-0.08,0.53,1.09,-1.4,0.5,37.8,0.94,0.01,0,0.33
1697354722.45,-0.04,0.72,1.15,-1.8,0.4,38,0.94,0.01,0,0.33
1697354722.46,-0.1,0.66,1.06,0,0.2,38.6,0.94,0.01,0,0.34
1697354722.47,-0.09,0.61,0.9,2.6,-0.1,39.2,0.94,0.01,0,0.34
1697354722.48,-0.19,0.52,1.16,4.3,-0.2,39.7,0.94,0.01,0,0.34
1697354722.49,0.04,0.38,1.01,3.5,0.1,40,0.94,0.01,0,0.34
1697354722.5,-0.01,0.47,0.84,1.7,0.1,39.9,0.94,0.01,0,0.35
1697354722.51,-0.07,0.52,1.04,0,0.6,40.1,0.94,0.01,0,0.35
1697354722.52,0.01,0.56,0.95,-0.4,0.7,40.4,0.93,0.01,0,0.35
1697354722.53,-0.05,0.63,0.92,-0.1,0.8,40.8,0.93,0.01,0,0.36
1697354722.54,-0.06,0.64,0.72,0.9,0.6,41.4,0.93,0.01,0,0.36
1697354722.55,-0.12,0.61,1.06,0.9,0.6,41.4,0.93,0.01,0,0.37
1697354722.56,-0.12,0.61,1.06,0.9,0.6,41.4,0.93,0.01,0,0.37
1697354722.57,-0.12,0.61,1.06,0.9,0.6,41.4,0.93,0.01,0,0.37
1697354722.58,-0.12,0.61,1.06,0.9,0.6,41.4,0.93,0.01,0,0.37
1697354722.59,-0.12,0.61,1.06,0.9,0.6,41.4,0.93,0.01,0,0.37
1697354722.6,-0.12,0.61,1.06,0.9,0.6,41.4,0.93,0.01,0,0.37
1697354722.61,-0.12,0.61,1.06,0.9,0.6,41.4,0.93,0.01,0,0.37
1697354722.62,-0.12,0.61,1.06,0.9,0.6,41.4,0.93,0.01,0,0.37
1697354722.63,-0.12,0.61,1.06,0.9,0.6,41.4,0.93,0.01,0,0.37
1697354722.64,-0.12,0.61,1.06,0.9,0.6,41.4,0.93,0.01,0,0.37
1697354722.65,-0.12,0.61,1.06,0.9,0.6,41.4,0.93,0.01,0,0.37
1697354722.66,-0.12,0.61,1.06,0.9,0.6,41.4,0.93,0.01,0,0.37
1697354722.67,-0.12,0.61,1.06,0.9,0.6,41.4,0.93,0.01,0,0.37
1697354722.68,-0.12,0.61,1.06,0.9,0.6,41.4,0.93,0.01,0,0.37
1697354722.69,-0.02,0.67,1.05,-0.4,1.9,50.5,0.91,0.02,0,0.42
1697354722.7,-0.07,0.73,0.86,-0.2,2,51,0.91,0.02,0,0.42
1697354722.71,-0.1,0.71,1.26,0.2,1.6,51.7,0.9,0.02,0,0.43
1697354722.72,-0.14,0.66,1.17,0.6,1,52.1,0.9,0.02,0,0.43
1697354722.73,-0.14,0.64,1.05,0.6,1,52.1,0.9,0.02,0,0.44
1697354722.74,-0.07,0.71,0.98,0.3,0,52.7,0.9,0.02,0,0.44
1697354722.75,-0.08,0.71,1.17,0.3,-0.3,53.1,0.9,0.02,0,0.44
1697354722.76,-0.08,0.71,1.17,0.3,-0.3,53.1,0.9,0.02,0,0.44
1697354722.77,-0.11,0.71,0.9,1.2,-0.3,53.3,0.89,0.02,0,0.45
1697354722.78,-0.11,0.71,0.9,1.8,-0.6,53.4,0.89,0.02,0,0.45
1697354722.79,-0.15,0.63,1.28,1.1,-1.1,53.4,0.89,0.02,0,0.46
1697354722.8,-0.13,0.56,0.89,0.1,-1.1,53.3,0.89,0.02,0,0.46
1697354722.81,-0.07,0.54,1.06,-0.7,-1.2,53.3,0.89,0.02,0,0.47
1697354722.82,-0.17,0.54,1.09,-0.6,-0.8,53,0.88,0.02,0,0.47
1697354722.83,-0.26,0.66,1.04,0,-0.2,52.9,0.88,0.02,0,0.47
1697354722.84,-0.23,0.62,1.26,0.9,0.1,52.8,0.88,0.02,0,0.48
1697354722.85,-0.15,0.54,1.04,0.8,0.3,52.8,0.88,0.02,0,0.48
1697354722.86,-0.14,0.56,1.13,0,0.3,52.8,0.87,0.02,0,0.49
1697354722.87,-0.17,0.6,1.02,-1,0.2,52.8,0.87,0.02,0,0.49
1697354722.88,-0.01,0.69,0.85,-1,0.3,52.9,0.87,0.02,0,0.49
1697354722.89,-0.03,0.64,1.11,-0.7,0.3,53,0.86,0.02,0,0.5
1697354722.9,-0.14,0.62,0.97,-0.2,0,53.1,0.86,0.02,0,0.51
1697354722.91,-0.07,0.66,0.89,0.1,0.1,53.1,0.86,0.02,0,0.51
1697354722.92,-0.23,0.61,1.31,0.3,0.5,53.3,0.86,0.02,0,0.51
1697354722.93,-0.09,0.6,0.96,0,1.1,53.4,0.85,0.02,0,0.52
1697354722.94,-0.03,0.6,0.77,-0.1,1.2,53.4,0.85,0.02,0,0.52
1697354722.95,-0.07,0.62,1.04,-0.6,1.6,53.4,0.85,0.02,0,0.52
1697354722.96,-0.06,0.61,1,-0.8,1.6,53.3,0.85,0.02,0,0.53
1697354722.97,-0.13,0.64,1.07,-1,1.6,53.3,0.84,0.02,0,0.54
1697354722.98,-0.12,0.67,0.95,-0.3,1.5,53.2,0.84,0.02,0,0.54
1697354722.99,-0.05,0.61,1.09,0.5,1.1,53.1,0.84,0.02,0,0.54
1697354723,-0.15,0.57,1.08,0.3,0.7,52.9,0.84,0.02,0,0.54
1697354723.01,-0.08,0.64,0.94,-0.2,0,52.7,0.83,0.02,0,0.55
1697354723.02,-0.18,0.62,1.25,-0.7,0,52.7,0.83,0.02,0,0.55
1697354723.03,-0.12,0.66,0.85,-0.4,0,52.7,0.83,0.02,0,0.56
1697354723.04,-0.13,0.62,1.21,1.2,0.3,52.7,0.83,0.02,0,0.56
1697354723.05,-0.04,0.54,0.8,0.4,0.4,52.4,0.82,0.02,0,0.57
1697354723.06,-0.09,0.53,0.83,0.4,0.4,52.4,0.82,0.02,0,0.57
1697354723.07,-0.09,0.53,0.83,-0.8,0.6,52.2,0.82,0.02,0,0.57
1697354723.08,-0.09,0.63,1.02,-2.3,0.8,52.5,0.82,0.02,0,0.57
1697354723.09,-0.09,0.63,1.02,-2.3,0.8,52.5,0.82,0.02,0,0.57
1697354723.1,-0.09,0.63,1.02,-2.3,0.8,52.5,0.82,0.02,0,0.57
1697354723.11,-0.09,0.63,1.02,-2.3,0.8,52.5,0.82,0.02,0,0.57
1697354723.12,-0.09,0.63,1.02,-2.3,0.8,52.5,0.82,0.02,0,0.57
1697354723.13,-0.09,0.63,1.02,-2.3,0.8,52.5,0.82,0.02,0,0.57
1697354723.14,-0.09,0.63,1.02,-2.3,0.8,52.5,0.82,0.02,0,0.57
1697354723.15,-0.09,0.63,1.02,-2.3,0.8,52.5,0.82,0.02,0,0.57
1697354723.16,-0.09,0.63,1.02,-2.3,0.8,52.5,0.82,0.02,0,0.57
1697354723.17,-0.09,0.63,1.02,-2.3,0.8,52.5,0.82,0.02,0,0.57
1697354723.18,-0.09,0.63,1.02,-2.3,0.8,52.5,0.82,0.02,0,0.57
1697354723.19,-0.09,0.63,1.02,-2.3,0.8,52.5,0.82,0.02,0,0.57
1697354723.2,-0.09,0.63,1.02,-2.3,0.8,52.5,0.82,0.02,0,0.57
1697354723.21,-0.18,0.54,1.04,-2.3,0.8,52.5,0.78,0.01,0,0.62
1697354723.22,-0.19,0.59,1.2,-1.1,1.1,52.7,0.78,0.01,0,0.63
1697354723.23,0.03,0.65,0.81,-2,1.2,52.7,0.78,0.01,0,0.63
1697354723.24,-0.15,0.75,1.01,-0.9,1.4,52.7,0.77,0.01,0,0.63
1697354723.25,-0.01,0.66,0.62,2,1.8,52.8,0.77,0.01,0,0.64
1697354723.26,-0.03,0.53,1.07,3.7,1.7,52.8,0.77,0.01,0,0.64
1697354723.27,0.06,0.52,0.79,3.5,1.8,52.5,0.76,0.01,0,0.65
1697354723.28,-0.06,0.52,0.76,1.2,1.8,52.5,0.76,0.01,0,0.65
1697354723.29,-0.11,0.61,1.1,-1.3,1.6,52.4,0.76,0.01,0,0.65
1697354723.3,-0.08,0.69,1.06,-1.8,1.4,52.4,0.75,0.01,0,0.66
1697354723.31,-0,0.75,0.8,-0.6,0.9,52.6,0.75,0.01,0,0.66
1697354723.32,-0.07,0.67,0.84,1.5,0.6,53,0.75,0.01,0,0.66
1697354723.33,-0.09,0.58,0.87,1.5,0.6,53,0.75,0.01,0,0.66
1697354723.34,-0.07,0.52,1.2,-0.7,0.3,52.8,0.74,0.01,0,0.67
1697354723.35,0.03,0.55,0.98,-2.3,0.7,52.6,0.74,0.01,0,0.67
1697354723.36,-0.05,0.64,0.91,-2.9,0.9,52.4,0.73,0.01,0,0.68
1697354723.37,-0.01,0.71,1.03,-1.3,1.1,52.4,0.73,0.01,0,0.68
1697354723.38,-0.01,0.7,1.07,0.5,1.1,52.3,0.73,0.01,0,0.68
1697354723.39,0.02,0.61,0.89,1.4,1.1,51.8,0.73,0.01,0,0.69
1697354723.4,-0.05,0.47,1.09,0.3,1.1,51.4,0.72,0.01,0,0.69
1697354723.41,-0.05,0.48,0.86,-1.4,1.2,51.1,0.72,0.01,0,0.69
1697354723.42,-0,0.52,1.04,-2.2,1.7,50.3,0.72,0.01,0,0.69
1697354723.43,-0,0.53,1,-1.9,1.6,49.9,0.71,0.01,0,0.7
1697354723.44,0.01,0.58,0.86,-0.4,1.6,49.6,0.71,0.01,0,0.7
1697354723.45,0.01,0.58,0.86,-0.4,1.6,49.6,0.71,0.01,0,0.7
1697354723.46,0.05,0.59,0.73,1.2,1.4,49.1,0.71,0.01,0,0.71
1697354723.47,0.07,0.43,0.9,2,0.9,48.4,0.7,0.01,0,0.71
1697354723.48,0.07,0.43,0.9,1.2,0.7,47.6,0.7,0.01,0,0.71
1697354723.49,0.01,0.4,0.8,-1,0.2,46,0.7,0.01,0,0.72
1697354723.5,0.01,0.4,0.8,-1,0.2,46,0.69,0.01,0,0.72
1697354723.51,-0.02,0.49,0.98,-1.2,0.5,45.3,0.69,0.01,0,0.72
1697354723.52,-0.09,0.44,0.96,-0.3,0.8,44.6,0.69,0.01,0,0.73
1697354723.53,-0.03,0.46,0.97,-0.3,0.8,44.6,0.69,0.01,0,0.73
1697354723.54,-0.12,0.44,1.11,0.6,1,44,0.68,0.01,0,0.73
1697354723.55,-0.04,0.38,1.16,0.8,1.4,43.3,0.68,0.01,0,0.73
1697354723.56,0.05,0.32,0.84,0.6,1.2,42.3,0.68,0.01,0,0.74
1697354723.57,0.06,0.34,0.92,-0.4,0.9,41.4,0.67,0.01,0,0.74
1697354723.58,0.05,0.37,1.05,-2,0.8,40.5,0.67,0.01,0,0.74
1697354723.59,0.09,0.45,0.83,-2.6,0.2,39.6,0.67,0.01,0,0.74
1697354723.6,0.09,0.45,0.83,-2.6,0.2,39.6,0.67,0.01,0,0.74
1697354723.61,0.09,0.45,0.83,-2.6,0.2,39.6,0.67,0.01,0,0.74
1697354723.62,0.09,0.45,0.83,-2.6,0.2,39.6,0.67,0.01,0,0.74
1697354723.63,0.09,0.45,0.83,-2.6,0.2,39.6,0.67,0.01,0,0.74
1697354723.64,0.09,0.45,0.83,-2.6,0.2,39.6,0.67,0.01,0,0.74
1697354723.65,0.09,0.45,0.83,-2.6,0.2,39.6,0.67,0.01,0,0.74
1697354723.66,0.09,0.45,0.83,-2.6,0.2,39.6,0.67,0.01,0,0.74
1697354723.67,0.09,0.45,0.83,-2.6,0.2,39.6,0.67,0.01,0,0.74
1697354723.68,0.09,0.45,0.83,-2.6,0.2,39.6,0.67,0.01,0,0.74
1697354723.69,0.09,0.45,0.83,-2.6,0.2,39.6,0.67,0.01,0,0.74
1697354723.7,0.09,0.45,0.83,-2.6,0.2,39.6,0.67,0.01,0,0.74
1697354723.71,0.09,0.45,0.83,-2.6,0.2,39.6,0.67,0.01,0,0.74
1697354723.72,0.07,0.06,0.95,-0.3,1.5,25.8,0.64,0.01,-0,0.77
1697354723.73,0.06,0.05,1,-1.8,1.7,24.6,0.64,0.01,-0,0.77
1697354723.74,0.05,0.15,0.96,-2.7,1.8,23.2,0.64,0.01,-0,0.77
1697354723.75,0.01,0.24,1.07,-2.5,1.5,22.6,0.64,0.01,-0,0.77
1697354723.76,0.12,0.24,1.13,-0.8,0.8,22.2,0.64,0.01,-0,0.77
1697354723.77,0.13,0.17,1.03,0.2,-0.1,21.8,0.63,0.01,-0,0.77
1697354723.78,0.05,0.1,1.26,0.2,-0.1,21.8,0.63,0.01,-0,0.77
1697354723.79,0.02,0.06,0.89,-1.6,-2.1,19.9,0.63,0.01,-0,0.78
1697354723.8,0.02,0.08,1.01,-1.5,-1.8,18.8,0.63,0.01,-0,0.78
1697354723.81,0.02,0.08,1.01,-1.5,-1.8,18.8,0.63,0.01,-0,0.78
1697354723.82,-0.01,-0.04,1.07,-1.3,-0.8,15.6,0.63,0.01,-0,0.78
1697354723.83,0.06,-0.01,0.88,-1.3,-0.8,15.6,0.63,0.01,-0,0.78
1697354723.84,-0.1,-0.07,1.04,-1.6,-0.1,13.8,0.63,0.01,-0,0.78
1697354723.85,-0.1,-0.07,1.04,-1,0.1,12.2,0.63,0.01,-0,0.78
1697354723.86,0.07,-0.01,0.67,-0.3,0.5,10.5,0.62,0.01,-0,0.78
1697354723.87,-0.02,-0.05,0.83,-0.2,1,8.7,0.62,0.01,-0,0.78
1697354723.88,0.04,-0.06,1,-0.9,1,7.6,0.62,0.01,-0,0.78
1697354723.89,-0.01,-0.06,1.04,-2.1,1,6.9,0.62,0.01,-0,0.78
1697354723.9,0.06,-0.06,0.87,-2.4,0.9,6.3,0.62,0.01,-0,0.78
1697354723.91,0.08,0,0.91,-2.3,0.7,5.9,0.62,0.01,-0,0.78
1697354723.92,-0.01,-0.03,1.04,-1.7,0.5,5.5,0.62,0.01,-0,0.78
1697354723.93,0.02,-0.01,0.97,-1.5,0.5,5.2,0.62,0.01,-0,0.78
1697354723.94,0.04,-0.03,0.76,-0.8,0.6,4.7,0.62,0.01,-0,0.78
1697354723.95,0.04,-0.1,1.06,-0.8,0.7,4,0.62,0.01,-0,0.78
1697354723.96,-0.02,-0.18,0.9,-1.4,0.6,2.7,0.62,0.01,-0,0.78
1697354723.97,-0.04,-0.16,0.99,-2.5,0.9,1.6,0.62,0.01,-0,0.78
1697354723.98,0.09,-0.15,1.05,-3.1,0.8,0.5,0.62,0.01,-0,0.78
1697354723.99,-0,-0.1,0.86,-3.2,0.8,-0.5,0.62,0.01,-0,0.78
1697354724,0,0,0.86,-3,0.9,-1.3,0.62,0.01,-0,0.78
1697354724.01,-0.09,-0.05,1.29,-1.9,1,-1.9,0.62,0.01,-0,0.78
1697354724.02,0.1,-0.04,1.12,-0.5,0.7,-2.5,0.62,0.01,-0.01,0.78
1697354724.03,-0.04,-0.18,1.02,-0.1,0.4,-2.8,0.62,0.01,-0.01,0.78
1697354724.04,-0.02,-0.25,1.16,0,0.1,-3.5,0.62,0.01,-0.01,0.78
1697354724.05,0.07,-0.25,0.85,-2.3,-1.1,-4.8,0.62,0.01,-0.01,0.78
1697354724.06,0.01,-0.23,0.79,-3.5,-1.7,-5.4,0.62,0.01,-0.01,0.78
1697354724.07,-0.01,-0.15,1.11,-3.3,-2.1,-6.2,0.62,0.01,-0.01,0.78
1697354724.08,0,-0.15,1.1,-2,-2.1,-6.7,0.62,0.01,-0.01,0.78
1697354724.09,-0.04,-0.16,0.9,-2,-2.1,-6.7,0.62,0.01,-0.01,0.78
1697354724.1,0.05,-0.26,0.94,0,-1.4,-8.2,0.62,0.01,-0.01,0.78
1697354724.11,0.05,-0.26,0.94,0,-1.4,-8.2,0.62,0.01,-0.01,0.78
1697354724.12,0.05,-0.26,0.94,0,-1.4,-8.2,0.62,0.01,-0.01,0.78
1697354724.13,0.05,-0.26,0.94,0,-1.4,-8.2,0.62,0.01,-0.01,0.78
1697354724.14,0.05,-0.26,0.94,0,-1.4,-8.2,0.62,0.01,-0.01,0.78
1697354724.15,0.05,-0.26,0.94,0,-1.4,-8.2,0.62,0.01,-0.01,0.78
1697354724.16,0.05,-0.26,0.94,0,-1.4,-8.2,0.62,0.01,-0.01,0.78
1697354724.17,0.05,-0.26,0.94,0,-1.4,-8.2,0.62,0.01,-0.01,0.78
1697354724.18,0.05,-0.26,0.94,0,-1.4,-8.2,0.62,0.01,-0.01,0.78
1697354724.19,0.05,-0.26,0.94,0,-1.4,-8.2,0.62,0.01,-0.01,0.78
1697354724.2,0.05,-0.26,0.94,0,-1.4,-8.2,0.62,0.01,-0.01,0.78
1697354724.21,0.05,-0.26,0.94,0,-1.4,-8.2,0.62,0.01,-0.01,0.78
1697354724.22,0.05,-0.26,0.94,0,-1.4,-8.2,0.62,0.01,-0.01,0.78
1697354724.23,0.05,-0.26,0.94,0,-1.4,-8.2,0.62,0.01,-0.01,0.78
1697354724.24,0.05,-0.26,0.94,0,-1.4,-8.2,0.62,0.01,-0.01,0.78
1697354724.25,0.05,-0.26,0.94,0,-1.4,-8.2,0.62,0.01,-0.01,0.78
1697354724.26,0.05,-0.26,0.94,0,-1.4,-8.2,0.62,0.01,-0.01,0.78
1697354724.27,-0.01,-0.22,1.05,0.6,0.3,-18.6,0.64,0.01,-0.01,0.77
1697354724.28,-0.01,-0.22,1.05,0.6,0.3,-18.6,0.64,0.01,-0.01,0.77
1697354724.29,-0.02,-0.41,0.9,0.9,1,-19.9,0.64,0.01,-0.01,0.77
1697354724.3,-0.06,-0.46,1.02,-1.5,0.8,-20.7,0.64,0.01,-0.01,0.76
1697354724.31,-0.02,-0.32,1.07,-3.6,0.4,-21.2,0.65,0.01,-0.01,0.76
1697354724.32,0.05,-0.23,1.02,-3.6,0.4,-21.2,0.65,0.01,-0.01,0.76
1697354724.33,0.05,-0.23,1.02,-2.7,-0.1,-21.5,0.65,0.01,-0.01,0.76
1697354724.34,-0.01,-0.17,1.17,-0.7,-0.5,-21.6,0.65,0.01,-0.01,0.76
1697354724.35,-0.06,-0.26,1.12,2,-0.8,-21.2,0.65,0.01,-0.01,0.76
1697354724.36,0.04,-0.36,0.84,2,-0.8,-21.2,0.65,0.01,-0.01,0.76
1697354724.37,-0.08,-0.36,0.9,0.3,-0.4,-21.5,0.65,0.01,-0.01,0.76
1697354724.38,-0.08,-0.36,0.9,0.3,-0.4,-21.5,0.65,0.01,-0.01,0.76
1697354724.39,0.05,-0.18,1.13,-2.8,0.1,-21.6,0.66,0.01,-0.01,0.76
1697354724.4,0.01,-0.19,0.91,-1.3,0.3,-21.8,0.66,0.01,-0.01,0.75
1697354724.41,-0.02,-0.3,0.97,-1.3,0.3,-21.8,0.66,0.01,-0.01,0.75
1697354724.42,-0.01,-0.38,0.96,2,0.4,-22.4,0.66,0.01,-0.01,0.75
1697354724.43,0.01,-0.42,1.37,2,0.4,-22.4,0.66,0.01,-0.01,0.75
1697354724.44,0.11,-0.49,0.88,0.7,0.7,-22.7,0.66,0.01,-0.01,0.75
1697354724.45,-0.04,-0.44,0.74,-1.9,1,-23.9,0.67,0.01,-0.01,0.75
1697354724.46,-0.03,-0.37,1.19,-1.9,1,-23.9,0.67,0.01,-0.01,0.74
1697354724.47,-0.03,-0.37,1.19,-1.6,1,-24.6,0.67,0.01,-0.01,0.74
1697354724.48,-0.07,-0.37,1.06,-0.2,0.4,-25.2,0.67,0.01,-0.01,0.74
1697354724.49,-0.15,-0.42,1.21,0.5,0,-25.9,0.67,0.01,-0.01,0.74
1697354724.5,0.04,-0.44,0.91,0.7,0,-27,0.67,0.01,-0.01,0.74
1697354724.51,0,-0.45,1.06,0,-0.3,-28,0.68,0.01,-0.01,0.74
1697354724.52,0.05,-0.48,0.82,-1.1,-0.4,-29.2,0.68,0.01,-0.01,0.73
1697354724.53,-0,-0.47,1.06,-1.2,-0.6,-30.2,0.68,0.01,-0.01,0.73
1697354724.54,0.05,-0.43,0.82,-0.9,-0.9,-31,0.68,0.01,-0.01,0.73
1697354724.55,0.07,-0.47,0.84,-0.8,-1.1,-31.3,0.68,0.01,-0.01,0.73
1697354724.56,0.09,-0.48,1.02,-1.2,-1.2,-31.6,0.69,0.01,-0.01,0.73
1697354724.57,-0.08,-0.46,0.87,-1.5,-1.2,-32,0.69,0.01,-0.01,0.73
1697354724.58,-0.03,-0.41,0.96,-2.1,-0.9,-32,0.69,0.01,-0.01,0.72
1697354724.59,-0.08,-0.4,0.99,-2.8,-0.5,-31.8,0.69,0.01,-0.01,0.72
1697354724.6,-0.05,-0.33,0.97,-2.8,0.1,-31.7,0.69,0.01,-0.01,0.72
1697354724.61,-0.06,-0.41,1.03,-0.4,0.6,-31.8,0.7,0.01,-0.01,0.72
1697354724.62,-0.02,-0.52,1.09,0.6,1.3,-31.9,0.7,0.01,-0.01,0.71
1697354724.63,-0.07,-0.5,0.95,0.7,1.7,-32.4,0.7,0.01,-0.01,0.71
1697354724.64,-0.07,-0.48,0.93,-0.3,1.9,-32.5,0.7,0,-0.01,0.71
1697354724.65,-0.11,-0.34,1.24,-1.7,1.9,-32.8,0.71,0,-0.01,0.71
1697354724.66,0.01,-0.29,1.28,-1.4,1.2,-32.9,0.71,0,-0.01,0.71
1697354724.67,0.01,-0.29,1.28,-1.4,1.2,-32.9,0.71,0,-0.01,0.71
1697354724.68,0.01,-0.29,1.28,-1.4,1.2,-32.9,0.71,0,-0.01,0.71
1697354724.69,0.01,-0.29,1.28,-1.4,1.2,-32.9,0.71,0,-0.01,0.71
1697354724.7,0.01,-0.29,1.28,-1.4,1.2,-32.9,0.71,0,-0.01,0.71
1697354724.71,0.01,-0.29,1.28,-1.4,1.2,-32.9,0.71,0,-0.01,0.71
1697354724.72,0.01,-0.29,1.28,-1.4,1.2,-32.9,0.71,0,-0.01,0.71
1697354724.73,0.01,-0.29,1.28,-1.4,1.2,-32.9,0.71,0,-0.01,0.71
1697354724.74,0.01,-0.29,1.28,-1.4,1.2,-32.9,0.71,0,-0.01,0.71
1697354724.75,0.01,-0.29,1.28,-1.4,1.2,-32.9,0.71,0,-0.01,0.71
1697354724.76,0.01,-0.29,1.28,-1.4,1.2,-32.9,0.71,0,-0.01,0.71
1697354724.77,0.01,-0.29,1.28,-1.4,1.2,-32.9,0.71,0,-0.01,0.71
1697354724.78,0.01,-0.29,1.28,-1.4,1.2,-32.9,0.71,0,-0.01,0.71
1697354724.79,0.01,-0.29,1.28,-1.4,1.2,-32.9,0.71,0,-0.01,0.71
1697354724.8,-0.01,-0.29,1.06,1,-1.4,-32.3,0.73,0.01,-0.01,0.68
1697354724.81,-0.01,-0.49,1.06,0.2,-0.4,-32.5,0.74,0.01,-0.01,0.68
1697354724.82,-0.09,-0.38,0.95,-1.9,0.4,-32.7,0.74,0.01,-0.01,0.67
1697354724.83,-0.09,-0.38,0.95,-3.3,1.2,-32.5,0.74,0.01,-0.01,0.67
1697354724.84,-0.04,-0.29,1.01,-2.5,1.5,-32.6,0.74,0,-0.01,0.67
1697354724.85,-0.04,-0.29,1.01,0,1.5,-32.8,0.74,0,-0.01,0.67
1697354724.86,0.02,-0.34,1.1,1.7,1.5,-32.8,0.75,0,-0.01,0.67
1697354724.87,-0.13,-0.43,1.01,2.3,1.5,-32.9,0.75,0,-0.01,0.66
1697354724.88,0.01,-0.44,1.03,2.4,1.2,-32.7,0.75,0,-0.01,0.66
1697354724.89,0.12,-0.51,0.79,1.2,0.9,-32.8,0.75,0.01,-0.01,0.66
1697354724.9,0.08,-0.44,0.91,0.3,0,-33,0.75,0.01,-0.01,0.66
1697354724.91,0.17,-0.46,0.77,0.2,-0.5,-33.1,0.76,0.01,-0.01,0.66
1697354724.92,0.02,-0.35,1.01,0.3,-0.6,-32.7,0.76,0.01,-0.01,0.65
1697354724.93,-0.01,-0.41,1.04,0.5,-0.5,-32.4,0.76,0.01,-0.01,0.65
1697354724.94,-0.04,-0.4,1.05,-0.3,-0.8,-32.3,0.76,0.01,-0.01,0.65
1697354724.95,0.05,-0.41,1.08,-0.9,-1.5,-32.1,0.76,0.01,-0.01,0.65
1697354724.96,0.03,-0.36,1.06,-0.6,-2.1,-32.1,0.76,0.01,-0.01,0.64
1697354724.97,-0.11,-0.35,1,0.6,-1.9,-32.1,0.77,0.01,-0.01,0.64
1697354724.98,-0.01,-0.33,1,1.7,-1.3,-32.2,0.77,0.01,-0.01,0.64
1697354724.99,0.05,-0.36,0.93,1.9,-0.4,-32.3,0.77,0.01,-0.01,0.64
1697354725,0.01,-0.37,1.25,2,0.2,-32.5,0.77,0.01,-0.01,0.64
1697354725.01,-0.02,-0.5,0.98,1.2,0.6,-32.8,0.77,0.01,-0.01,0.63
1697354725.02,-0.08,-0.57,1.03,-0.2,0.9,-33.2,0.78,0.01,-0.01,0.63
1697354725.03,-0.11,-0.4,1.17,-2.7,1.1,-33.1,0.78,0.01,-0.01,0.63
1697354725.04,-0.01,-0.35,1.03,-3,1,-32.8,0.78,0.01,-0.01,0.63
1697354725.05,0,-0.31,1.12,-0.3,0.6,-32.8,0.78,0.01,-0.01,0.62
1697354725.06,-0.01,-0.35,0.97,1.1,0.3,-32.7,0.78,0.01,-0.01,0.62
1697354725.07,0.05,-0.46,0.93,0.7,0.6,-32.5,0.78,0.01,-0.01,0.62
1697354725.08,-0.01,-0.51,0.95,0.7,0.6,-32.5,0.79,0.01,-0.01,0.62
1697354725.09,0,-0.37,0.81,-1.6,1.4,-32.6,0.79,0.01,-0.01,0.62
1697354725.1,0.03,-0.29,1.25,-0.8,1.3,-32.4,0.79,0.01,-0.01,0.61
1697354725.11,0.19,-0.24,0.75,1.4,1.2,-32.2,0.79,0.01,-0.01,0.61
1697354725.12,0.06,-0.38,1.05,2.9,1.1,-31.5,0.79,0.01,-0.01,0.61
1697354725.13,-0.14,-0.55,1.08,3.2,0.9,-31.3,0.79,0.01,-0.01,0.61
1697354725.14,-0.03,-0.45,0.92,3.2,0.9,-31.3,0.8,0.01,-0.01,0.6
1697354725.15,-0.03,-0.37,0.83,2.5,0.7,-31.1,0.8,0.01,-0.01,0.6
1697354725.16,-0.03,-0.35,1.06,1.3,0.7,-30.7,0.8,0.01,-0.01,0.6
1697354725.17,-0.03,-0.35,1.06,0.8,0.7,-30.2,0.8,0.01,-0.01,0.6
1697354725.18,-0.06,-0.4,1.06,1.2,0.4,-29.9,0.8,0.01,-0.01,0.6
1697354725.19,-0.09,-0.38,0.89,1,0.2,-29.8,0.8,0.01,-0.01,0.59
1697354725.2,-0.09,-0.38,0.89,1,0.2,-29.8,0.8,0.01,-0.01,0.59
1697354725.21,-0.09,-0.38,0.89,1,0.2,-29.8,0.8,0.01,-0.01,0.59
1697354725.22,-0.09,-0.38,0.89,1,0.2,-29.8,0.8,0.01,-0.01,0.59
1697354725.23,-0.09,-0.38,0.89,1,0.2,-29.8,0.8,0.01,-0.01,0.59
1697354725.24,-0.09,-0.38,0.89,1,0.2,-29.8,0.8,0.01,-0.01,0.59
1697354725.25,-0.09,-0.38,0.89,1,0.2,-29.8,0.8,0.01,-0.01,0.59
1697354725.26,-0.09,-0.38,0.89,1,0.2,-29.8,0.8,0.01,-0.01,0.59
1697354725.27,-0.09,-0.38,0.89,1,0.2,-29.8,0.8,0.01,-0.01,0.59
1697354725.28,-0.09,-0.38,0.89,1,0.2,-29.8,0.8,0.01,-0.01,0.59
1697354725.29,-0.09,-0.38,0.89,1,0.2,-29.8,0.8,0.01,-0.01,0.59
1697354725.3,-0.09,-0.38,0.89,1,0.2,-29.8,0.8,0.01,-0.01,0.59
1697354725.31,-0.09,-0.38,0.89,1,0.2,-29.8,0.8,0.01,-0.01,0.59
1697354725.32,-0.09,-0.38,0.89,1,0.2,-29.8,0.8,0.01,-0.01,0.59
1697354725.33,-0.07,-0.44,1.13,0.3,1.4,-29.2,0.8,0.01,-0.01,0.59
1697354725.34,-0.04,-0.39,1,-0.7,1.8,-29.2,0.83,0.01,-0.01,0.56
1697354725.35,-0.01,-0.36,0.91,-0.4,1.9,-28.9,0.83,0.01,-0.01,0.56
1697354725.36,-0,-0.33,1.1,-0.3,1.5,-28.5,0.83,0.01,-0.01,0.56
1697354725.37,0.04,-0.26,1.15,0.3,1.3,-28.1,0.83,0.01,-0.01,0.56
1697354725.38,0.07,-0.28,0.99,1.3,0.8,-27.9,0.83,0.01,-0.01,0.56
1697354725.39,-0.09,-0.34,1.01,2.2,0,-27.8,0.83,0.01,-0.01,0.55
1697354725.4,0.05,-0.36,1.06,3,-0.8,-27.8,0.84,0.01,-0.01,0.55
1697354725.41,0.16,-0.4,0.97,1.1,-1.5,-27.8,0.84,0.01,-0.01,0.55
1697354725.42,0.02,-0.41,0.73,-0.2,-1.5,-27.8,0.84,0.01,-0.01,0.54
1697354725.43,-0.02,-0.34,1.1,-2,-1.3,-27.7,0.84,0.01,-0.01,0.54
1697354725.44,0,-0.19,0.83,-2.6,-1.2,-27.3,0.84,0.01,-0.01,0.54
1697354725.45,-0.03,-0.1,0.88,-2.4,-1,-27.1,0.84,0.01,-0.01,0.54
1697354725.46,0.03,-0.13,0.85,-0.4,-0.4,-26.4,0.84,0.01,-0.01,0.54
1697354725.47,0.07,-0.23,0.96,1.6,0.1,-25.8,0.85,0.01,-0.01,0.53
1697354725.48,0.07,-0.36,0.97,1.6,0.1,-25.8,0.85,0.01,-0.01,0.53
1697354725.49,0.04,-0.34,0.86,-2,2.7,-24.5,0.85,0.01,-0.01,0.53
1697354725.5,-0.05,-0.26,1.11,-3.3,3,-24,0.85,0,-0.01,0.53
1697354725.51,0.07,-0.15,1.02,-2.5,2.9,-23.6,0.85,0,-0.01,0.53
1697354725.52,0.12,-0.11,0.86,-0.3,2.8,-22.8,0.85,0,-0.01,0.53
1697354725.53,0.05,-0.1,1,-0.3,2.8,-22.8,0.85,0,-0.01,0.53
1697354725.54,-0.09,-0.17,1.17,3.8,1.9,-20.7,0.85,0,-0.01,0.52
1697354725.55,0,-0.22,1.1,3.8,1.9,-20.7,0.85,0,-0.01,0.52
1697354725.56,0,-0.24,1.1,2,0.5,-18.5,0.85,0,-0.01,0.52
1697354725.57,0,-0.24,1.1,2,0.5,-18.5,0.85,0,-0.01,0.52
1697354725.58,0,-0.24,0.93,0.1,0.2,-17.1,0.86,0,-0.01,0.52
1697354725.59,0.06,0.04,1.03,-0.9,0,-15.7,0.86,0,-0.01,0.52
1697354725.6,0.06,0.04,1.03,-0.2,0.3,-14.2,0.86,0,-0.01,0.52
1697354725.61,0.07,0.09,0.74,1.9,0.6,-12.9,0.86,0,-0.01,0.51
1697354725.62,0.09,-0.04,0.95,2.5,0.7,-12.6,0.86,0,-0.01,0.51
1697354725.63,-0.08,-0.19,1.37,4.4,0.7,-12.2,0.86,0,-0.01,0.51
1697354725.64,0.03,-0.22,0.76,4.2,0.6,-12.3,0.86,0,-0.01,0.51
1697354725.65,-0.16,-0.24,1.33,1.5,0.8,-12.4,0.86,0,-0.01,0.51
1697354725.66,0.06,-0.04,1.11,-1.7,1.1,-13,0.86,0,-0.01,0.51
1697354725.67,0.05,0.1,0.77,-1,1.1,-12.5,0.86,0,-0.01,0.51
1697354725.68,-0.02,0.17,1.21,2.2,0.8,-11.9,0.86,0,-0.01,0.51
1697354725.69,0.06,0.03,1.05,3.7,0.1,-11.1,0.86,0,-0.01,0.51
1697354725.7,0.13,-0.17,0.99,1.7,-0.3,-10.6,0.86,0,-0.01,0.51
1697354725.71,0.04,-0.28,0.8,-2.3,-0.7,-10.1,0.86,0,-0.01,0.5
1697354725.72,0.04,-0.28,0.8,-2.3,-0.7,-10.1,0.86,0,-0.01,0.5
1697354725.73,0.04,-0.28,0.8,-2.3,-0.7,-10.1,0.86,0,-0.01,0.5
1697354725.74,0.04,-0.28,0.8,-2.3,-0.7,-10.1,0.86,0,-0.01,0.5
1697354725.75,0.04,-0.28,0.8,-2.3,-0.7,-10.1,0.86,0,-0.01,0.5
1697354725.76,0.04,-0.28,0.8,-2.3,-0.7,-10.1,0.86,0,-0.01,0.5
1697354725.77,0.04,-0.28,0.8,-2.3,-0.7,-10.1,0.86,0,-0.01,0.5
1697354725.78,0.04,-0.28,0.8,-2.3,-0.7,-10.1,0.86,0,-0.01,0.5
1697354725.79,0.04,-0.28,0.8,-2.3,-0.7,-10.1,0.86,0,-0.01,0.5
1697354725.8,0.04,-0.28,0.8,-2.3,-0.7,-10.1,0.86,0,-0.01,0.5
1697354725.81,0.04,-0.28,0.8,-2.3,-0.7,-10.1,0.86,0,-0.01,0.5
1697354725.82,0.04,-0.28,0.8,-2.3,-0.7,-10.1,0.86,0,-0.01,0.5
1697354725.83,0.04,-0.28,0.8,-2.3,-0.7,-10.1,0.86,0,-0.01,0.5
1697354725.84,0.04,-0.28,0.8,-2.3,-0.7,-10.1,0.86,0,-0.01,0.5
1697354725.85,-0,0.03,1.08,5.4,-0.9,0.4,0.87,0,-0.01,0.5
1697354725.86,0.12,-0.04,1.06,3.4,-1,0.8,0.87,0,-0.01,0.5
1697354725.87,0.12,-0.04,1.06,0.3,-1.3,1,0.87,0,-0.01,0.5
1697354725.88,0.06,0.09,0.79,-1.5,-1.1,1.3,0.87,0,-0.01,0.5
1697354725.89,-0.03,0.19,0.85,-1.2,-0.9,1.9,0.87,0,-0.01,0.5
1697354725.9,0.02,0.31,1.05,0.6,-0.9,2.5,0.87,0,-0.01,0.5
1697354725.91,0.01,0.24,1.09,2.4,-0.7,3.2,0.87,0.01,-0.01,0.5
1697354725.92,0.01,0.15,1.08,2.2,-0.5,4,0.87,0.01,-0.01,0.5
1697354725.93,-0.04,0,0.92,0,-0.2,4.2,0.87,0.01,-0.01,0.5
1697354725.94,0.08,0.07,1.15,-2.6,-0.3,4.5,0.86,0.01,-0.01,0.5
1697354725.95,0.01,0.14,1.16,-3.5,-0.2,5.1,0.86,0.01,-0.01,0.5
1697354725.96,0.03,0.21,0.89,-2.5,0,5.9,0.86,0.01,-0.01,0.5
1697354725.97,0.03,0.27,0.85,-0.5,0.2,6.6,0.86,0.01,-0.01,0.5
1697354725.98,0.14,0.26,0.74,1.9,0.2,7.2,0.86,0.01,-0.01,0.5
1697354725.99,-0.07,0.12,1.16,2.8,0.9,7.2,0.86,0.01,-0,0.5
1697354726,-0.07,-0.01,0.99,1.5,0.8,7.2,0.86,0.01,-0,0.5
1697354726.01,0.1,0.01,1.07,-0.6,0.6,7.2,0.86,0.01,-0,0.51
1697354726.02,0.01,0.12,0.72,-0.9,0.7,7.5,0.86,0.01,-0,0.51
1697354726.03,-0.04,0.16,1.2,-0.1,0.5,7.9,0.86,0.01,-0,0.51
1697354726.04,0.01,0.25,1.24,1.2,0.3,8.4,0.86,0.01,-0,0.51
1697354726.05,0.18,0.2,0.92,2.7,0.1,8.9,0.86,0.01,-0,0.51
1697354726.06,0.01,0.04,1.08,3,0,9.2,0.86,0.01,-0,0.51
1697354726.07,-0.03,0.03,1.17,2.3,0.1,9.3,0.86,0.01,-0,0.51
1697354726.08,0.1,0.04,0.68,0.3,-0.3,9.4,0.86,0.01,-0,0.51
1697354726.09,-0.01,0.11,1.23,0.3,-0.3,9.4,0.86,0.01,-0,0.51
1697354726.1,0.06,0.18,1.17,-0.5,-0.8,9.4,0.86,0.01,-0,0.51
1697354726.11,0.03,0.15,0.74,-1.5,-0.6,9.6,0.86,0.01,-0,0.51
1697354726.12,0.01,0.19,1.02,-1.2,-0.5,9.5,0.86,0.01,-0,0.51
1697354726.13,-0.1,0.13,0.96,-0.5,-0.5,9.5,0.86,0.01,-0,0.51
1697354726.14,-0.07,0.13,1.19,0.1,-0.1,9.4,0.86,0.01,-0,0.51
1697354726.15,0.17,0.08,0.95,-0.6,1,9,0.86,0.01,-0,0.51
1697354726.16,0.07,0.1,0.72,-2,1,8.7,0.86,0.01,-0,0.52
1697354726.17,-0.06,0.13,1.02,-2.9,0.9,8.8,0.86,0.01,-0,0.52
1697354726.18,0.09,0.23,1.29,-2.9,0.9,8.8,0.86,0.01,-0,0.52
1697354726.19,0.07,0.23,1.14,0.6,0,9.3,0.86,0.01,-0,0.52
1697354726.2,-0.09,0.15,1.02,2.4,-0.5,9.5,0.86,0.01,-0,0.52
1697354726.21,0.05,0.03,1.18,2.1,-0.6,9.6,0.86,0.01,-0,0.52
1697354726.22,0.01,0.04,0.98,0.3,-0.9,9.7,0.85,0.01,-0,0.52
1697354726.23,0.01,0.04,0.98,0.3,-0.9,9.7,0.85,0.01,-0,0.52
1697354726.24,-0.09,0.04,1.18,-0.5,-0.8,9.7,0.85,0.01,-0,0.52
1697354726.25,-0.09,0.04,1.18,-0.5,-0.8,9.7,0.85,0.01,-0,0.52
1697354726.26,-0.09,0.04,1.18,-0.5,-0.8,9.7,0.85,0.01,-0,0.52
1697354726.27,-0.09,0.04,1.18,-0.5,-0.8,9.7,0.85,0.01,-0,0.52
1697354726.28,-0.09,0.04,1.18,-0.5,-0.8,9.7,0.85,0.01,-0,0.52
1697354726.29,-0.09,0.04,1.18,-0.5,-0.8,9.7,0.85,0.01,-0,0.52
1697354726.3,-0.09,0.04,1.18,-0.5,-0.8,9.7,0.85,0.01,-0,0.52
1697354726.31,-0.09,0.04,1.18,-0.5,-0.8,9.7,0.85,0.01,-0,0.52
1697354726.32,-0.09,0.04,1.18,-0.5,-0.8,9.7,0.85,0.01,-0,0.52
1697354726.33,-0.09,0.04,1.18,-0.5,-0.8,9.7,0.85,0.01,-0,0.52
1697354726.34,-0.09,0.04,1.18,-0.5,-0.8,9.7,0.85,0.01,-0,0.52
1697354726.35,-0.09,0.04,1.18,-0.5,-0.8,9.7,0.85,0.01,-0,0.52
1697354726.36,-0.09,0.04,1.18,-0.5,-0.8,9.7,0.85,0.01,-0,0.52
1697354726.37,-0.04,0.14,1.16,-1.1,-1.2,9.1,0.85,0.01,-0,0.53
1697354726.38,0.09,0.13,1.07,-2.5,-1.5,9,0.85,0.01,-0,0.53
1697354726.39,-0.06,0.12,1.08,-2.2,-1.7,8.7,0.85,0.01,-0,0.53
1697354726.4,0.13,0.16,0.93,-1.3,-1.2,8.5,0.85,0.01,-0,0.53
1697354726.41,0.04,0.15,0.98,-0.2,-0.7,8.7,0.85,0.01,-0,0.53
1697354726.42,-0.11,0.11,1.14,1.2,-0.1,8.7,0.85,0.01,-0,0.53
1697354726.43,0.04,0,1.14,1.2,-0.1,8.7,0.85,0.01,-0,0.53
1697354726.44,0.1,0.05,0.81,0.3,1.3,9.4,0.85,0.01,-0,0.53
1697354726.45,0.08,0.12,1,0.7,1.6,9.8,0.84,0.01,-0,0.54
1697354726.46,0.04,0.08,1.02,1.2,1.9,9.9,0.84,0.01,-0,0.54
1697354726.47,0.04,0.06,0.84,0.8,1.4,9.8,0.84,0.01,-0,0.54
1697354726.48,-0.03,0.07,1.22,0,0.5,10.1,0.84,0.01,-0,0.54
1697354726.49,0.13,0.18,0.56,-0.1,0.3,10.1,0.84,0.01,-0,0.54
1697354726.5,0.04,0.18,0.89,0.9,-2.6,9.8,0.84,0.01,-0,0.54
1697354726.51,-0.01,0.19,1.37,1.6,-3.1,9.7,0.84,0.01,-0,0.54
1697354726.52,0.03,0.12,0.9,1.5,-3.4,9.5,0.84,0.01,-0,0.54
1697354726.53,0.1,0.09,0.92,0.7,-3.5,9.4,0.84,0.01,-0,0.54
1697354726.54,-0,0.08,0.89,-0.7,-2.8,9.2,0.84,0.01,-0,0.54
1697354726.55,-0.01,0.15,1.04,-2,-2,9.2,0.84,0.01,-0,0.54
1697354726.56,0,0.15,1.12,-2.8,-1.2,9,0.84,0.01,-0,0.54
1697354726.57,0.03,0.16,0.96,-2.5,-0.3,9,0.84,0.01,-0,0.54
1697354726.58,0.03,0.16,0.96,-2.5,-0.3,9,0.84,0.01,-0,0.54
1697354726.59,0.12,0.13,1.04,-2,0.2,9.2,0.84,0.01,-0,0.54
1697354726.6,-0.09,0.12,1.41,-0.6,0.7,9.3,0.84,0.01,-0,0.55
1697354726.61,0.09,0.09,0.85,-0.1,1,9.3,0.84,0.01,-0,0.55
1697354726.62,0.09,0.09,0.85,-0.3,1.4,9.4,0.84,0.01,-0,0.55
1697354726.63,-0,0.07,0.97,-0.6,1.7,9.6,0.84,0.01,-0,0.55
1697354726.64,0.14,0.09,0.73,-0.7,1.6,9.8,0.84,0.01,-0,0.55
1697354726.65,0.08,0.1,1.08,0.1,0.8,10,0.84,0.01,-0,0.55
1697354726.66,0.01,0.19,1.04,2.4,0.2,10.1,0.84,0.01,-0,0.55
1697354726.67,0.02,0.16,1.2,4.7,-0.6,10.2,0.83,0.01,-0,0.55
1697354726.68,0.07,-0,0.64,3.3,-1.5,10.3,0.83,0.01,-0,0.55
1697354726.69,0.06,-0.01,0.96,0.6,-1.5,10,0.83,0.01,-0,0.55
1697354726.7,-0.19,0.04,1.29,-1.8,-0.9,9.7,0.83,0.01,-0,0.55
1697354726.71,-0.02,0.18,0.88,-1.9,-0.1,9.6,0.83,0.01,-0,0.55
1697354726.72,0.04,0.33,1.04,0.4,0.6,9.6,0.83,0.01,-0,0.55
1697354726.73,-0.02,0.29,1.11,2.5,0.5,9.6,0.83,0.01,-0,0.55
1697354726.74,-0.04,0.21,1.1,3.7,1.5,9.5,0.83,0.01,-0,0.56
1697354726.75,0.07,0.14,0.97,3.7,1.5,9.5,0.83,0.01,-0,0.56
1697354726.76,0.07,0.14,0.97,3.7,1.5,9.5,0.83,0.01,-0,0.56
1697354726.77,0.07,0.14,0.97,3.7,1.5,9.5,0.83,0.01,-0,0.56
1697354726.78,0.07,0.14,0.97,3.7,1.5,9.5,0.83,0.01,-0,0.56
1697354726.79,0.07,0.14,0.97,3.7,1.5,9.5,0.83,0.01,-0,0.56
1697354726.8,0.07,0.14,0.97,3.7,1.5,9.5,0.83,0.01,-0,0.56
1697354726.81,0.07,0.14,0.97,3.7,1.5,9.5,0.83,0.01,-0,0.56
1697354726.82,0.07,0.14,0.97,3.7,1.5,9.5,0.83,0.01,-0,0.56
1697354726.83,0.07,0.14,0.97,3.7,1.5,9.5,0.83,0.01,-0,0.56
1697354726.84,0.07,0.14,0.97,3.7,1.5,9.5,0.83,0.01,-0,0.56
1697354726.85,0.07,0.14,0.97,3.7,1.5,9.5,0.83,0.01,-0,0.56
1697354726.86,0.07,0.14,0.97,3.7,1.5,9.5,0.83,0.01,-0,0.56
1697354726.87,0.07,0.14,0.97,3.7,1.5,9.5,0.83,0.01,-0,0.56
1697354726.88,0.08,0.26,1.08,2.7,1.1,10.6,0.83,0.01,-0,0.56
1697354726.89,-0.04,0.04,1.55,3.6,1,11.2,0.82,0.01,-0,0.57
1697354726.9,0.03,-0.02,0.93,3.6,1,11.2,0.82,0.01,-0,0.57
1697354726.91,0.01,0.1,1.04,1.6,0.6,11.5,0.82,0.01,-0,0.57
1697354726.92,0.01,0.1,1.04,1.6,0.6,11.5,0.82,0.01,-0,0.57
1697354726.93,-0.03,0.2,1.01,0.1,-0.2,11.6,0.82,0.01,-0,0.57
1697354726.94,0.09,0.24,0.74,0.2,-0.7,11.9,0.82,0.01,-0,0.57
1697354726.95,0.09,0.24,0.74,1.2,-1.2,12.1,0.82,0.01,-0,0.57
1697354726.96,0.06,0.25,1.07,1.8,-1.8,12.1,0.82,0.01,-0,0.57
1697354726.97,-0.05,0.22,1.25,2.2,-2.3,12.2,0.82,0.01,-0,0.57
1697354726.98,0.12,0.12,1.12,2.1,-2.5,12.1,0.82,0.01,-0,0.57
1697354726.99,-0.07,0.1,1.07,1.3,-2.9,11.9,0.82,0.01,-0,0.57
1697354727,0.04,0.07,0.85,-0.3,-3.1,11.8,0.82,0.01,-0,0.58
1697354727.01,-0.01,0.2,1.2,-2.7,-2.6,11.4,0.82,0.01,-0,0.58
1697354727.02,0.04,0.29,1.08,-1.4,-0.8,11.7,0.82,0.01,-0.01,0.58
1697354727.03,0.01,0.17,1.03,0.2,0.1,11.5,0.82,0.01,-0.01,0.58
1697354727.04,-0.01,0.13,0.84,0.4,0.7,11.3,0.82,0.01,-0,0.58
1697354727.05,-0.03,0.15,1.03,-1.1,1,11.4,0.81,0.01,-0,0.58
1697354727.06,0.02,0.11,1.05,-2.1,0.7,11.5,0.81,0.01,-0,0.58
1697354727.07,0.06,0.17,1.18,-2,0.5,11.5,0.81,0.01,-0,0.58
1697354727.08,0.16,0.24,0.68,-1.1,-0.1,11.7,0.81,0.01,-0,0.58
1697354727.09,-0.15,0.21,1.18,-0.1,-0.3,12.1,0.81,0.01,-0,0.58
1697354727.1,0.03,0.14,1.24,0.5,-0.3,12.4,0.81,0.01,-0.01,0.58
1697354727.11,0.17,0.1,1.08,-0.1,0.1,12.4,0.81,0.01,-0.01,0.58
1697354727.12,-0.02,0.09,0.77,-0.7,1,11.9,0.81,0.01,-0,0.59
1697354727.13,0.01,0.13,1.13,-1.3,1.4,11.9,0.81,0.01,-0,0.59
1697354727.14,0.09,0.14,0.91,-0.5,1.1,11.8,0.81,0.01,-0,0.59
1697354727.15,-0.02,0.19,1.21,1.2,0.8,11.6,0.81,0.01,-0,0.59
1697354727.16,0.06,0.17,0.95,2.1,0.2,11.4,0.81,0.01,-0,0.59
1697354727.17,-0.03,0.1,1.17,1.4,-0.2,11.1,0.81,0.01,-0,0.59
1697354727.18,0.05,0.06,0.87,-1.1,-0.5,11.3,0.81,0.01,-0,0.59
1697354727.19,0.01,0.13,1.03,-1.7,-1,11.3,0.81,0.01,-0,0.59
1697354727.2,0.01,0.13,1.03,-1.7,-1,11.3,0.81,0.01,-0,0.59
1697354727.21,-0.02,0.18,1.13,-2.2,-1.2,11.5,0.8,0.01,-0.01,0.59
1697354727.22,0.04,0.18,1.22,-2,-1.1,11.5,0.8,0.01,-0.01,0.59
1697354727.23,0.09,0.19,0.75,-2,-1.1,11.5,0.8,0.01,-0.01,0.59
1697354727.24,-0,0.16,0.98,-2,-0.9,11.5,0.8,0.01,-0.01,0.59
1697354727.25,-0,0.16,0.98,-2.1,-0.6,11.5,0.8,0.01,-0.01,0.6
1697354727.26,0.05,0.13,1.27,-0.9,0,11,0.8,0.01,-0.01,0.6
1697354727.27,0.05,0.13,1.27,-0.9,0,11,0.8,0.01,-0.01,0.6
1697354727.28,0.05,0.13,1.27,-0.9,0,11,0.8,0.01,-0.01,0.6
1697354727.29,0.05,0.13,1.27,-0.9,0,11,0.8,0.01,-0.01,0.6
1697354727.3,0.05,0.13,1.27,-0.9,0,11,0.8,0.01,-0.01,0.6
1697354727.31,0.05,0.13,1.27,-0.9,0,11,0.8,0.01,-0.01,0.6
1697354727.32,0.05,0.13,1.27,-0.9,0,11,0.8,0.01,-0.01,0.6
1697354727.33,0.05,0.13,1.27,-0.9,0,11,0.8,0.01,-0.01,0.6
1697354727.34,0.05,0.13,1.27,-0.9,0,11,0.8,0.01,-0.01,0.6
1697354727.35,0.05,0.13,1.27,-0.9,0,11,0.8,0.01,-0.01,0.6
1697354727.36,0.05,0.13,1.27,-0.9,0,11,0.8,0.01,-0.01,0.6
1697354727.37,0.05,0.13,1.27,-0.9,0,11,0.8,0.01,-0.01,0.6
1697354727.38,0.05,0.13,1.27,-0.9,0,11,0.8,0.01,-0.01,0.6
1697354727.39,0.05,0.13,1.27,-0.9,0,11,0.8,0.01,-0.01,0.6
1697354727.4,-0.03,0.05,1.18,-1,-0.2,8.8,0.8,0.01,-0.01,0.61
1697354727.41,-0.01,0.13,1.03,-1.5,0,8.7,0.8,0.01,-0.01,0.61
1697354727.42,0.07,0.16,0.87,-1.8,0.6,8.7,0.79,0.01,-0.01,0.61
1697354727.43,-0.05,0.16,1.34,-2.4,0.9,8.9,0.79,0.01,-0.01,0.61
1697354727.44,0.09,0.13,0.82,-2.2,0.5,8.8,0.79,0.01,-0.01,0.61
1697354727.45,0.09,0.13,0.82,-2.2,0.5,8.8,0.79,0.01,-0.01,0.61
1697354727.46,0.13,0.17,1.22,-0.1,-0.4,8.5,0.79,0.01,-0.01,0.61
1697354727.47,-0,0.08,0.62,-0.1,-0.4,8.5,0.79,0.01,-0.01,0.61
1697354727.48,-0,0.08,0.62,-0.1,-0.4,8.5,0.79,0.01,-0.01,0.61
1697354727.49,0.07,0.03,0.88,-0.7,-0.4,8.1,0.79,0.01,-0.01,0.61
1697354727.5,-0.04,0.11,0.67,-1.5,0.2,7.9,0.79,0.01,-0.01,0.61
1697354727.51,-0.04,0.11,0.67,-1.5,0.2,7.9,0.79,0.01,-0.01,0.61
1697354727.52,0.1,0.13,1.18,1.7,0,8.1,0.79,0.01,-0.01,0.61
1697354727.53,0.1,0.13,1.18,1.7,0,8.1,0.79,0.01,-0.01,0.61
1697354727.54,0.01,0.12,0.86,3.1,-0.6,8.3,0.79,0.01,-0.01,0.61
1697354727.55,0.09,-0.03,1.02,3.2,-0.9,8.1,0.79,0.01,-0.01,0.61
1697354727.56,0.09,0.04,1.03,2.9,-1,8.1,0.79,0.01,-0.01,0.61
1697354727.57,-0.02,0.05,0.88,0,-0.2,8,0.79,0.01,-0.01,0.62
1697354727.58,-0.02,0.05,0.88,-0.8,0,8,0.79,0.01,-0.01,0.62
1697354727.59,0.01,0.19,1.02,0,0,8.1,0.79,0.01,-0.01,0.62
1697354727.6,-0.01,0.21,1.09,0.9,0,8.3,0.79,0.01,-0.01,0.62
1697354727.61,0.07,0.11,1.16,1.9,-0.2,8.3,0.79,0.01,-0.01,0.62
1697354727.62,-0.04,0.04,0.79,1.1,-0.3,8.1,0.79,0.01,-0.01,0.62
1697354727.63,0,0.06,1.11,0.4,-0.3,7.9,0.79,0.01,-0.01,0.62
1697354727.64,0.17,-0.01,1.17,-1,-0.4,7.6,0.79,0.01,-0.01,0.62
1697354727.65,-0.01,-0.01,0.58,-2.1,-0.7,6.8,0.78,0.01,-0.01,0.62
1697354727.66,-0.01,0.17,1.16,-3.1,-0.7,6.4,0.78,0.01,-0.01,0.62
1697354727.67,0,0.12,1.06,-3.2,-0.6,5.9,0.78,0.01,-0.01,0.62
1697354727.68,0.04,0.02,0.85,-2.4,0,5.5,0.78,0.01,-0.01,0.62
1697354727.69,-0.07,0.09,0.76,-1.5,0.3,5,0.78,0.01,-0.01,0.62
1697354727.7,-0.04,0.05,1.27,-1.5,0.4,4.6,0.78,0.01,-0.01,0.62
1697354727.71,0.08,-0.01,0.75,-1.3,0.3,4.1,0.78,0.01,-0.01,0.62
1697354727.72,-0.18,0.1,1.24,-0.7,0.2,3.9,0.78,0.01,-0.01,0.62
1697354727.73,0.08,0.03,1.08,0.6,0.1,3.9,0.78,0.01,-0.01,0.62
1697354727.74,-0.04,-0.09,1,2.6,0.2,3.5,0.78,0.01,-0.01,0.62
1697354727.75,0.04,-0.09,0.89,2.2,0.8,3.4,0.78,0.01,-0.01,0.62
1697354727.76,-0.07,-0.17,1.06,0.1,1.5,3.2,0.78,0.01,-0.01,0.62
1697354727.77,-0,-0.16,1.16,-1.8,1.8,3,0.78,0.01,-0.01,0.62
1697354727.78,0.06,0.03,1.15,-3.3,1.2,2.8,0.78,0.01,-0.01,0.62
1697354727.79,0.05,0.27,0.89,-2.3,0.6,2.9,0.78,0.01,-0.01,0.62
1697354727.8,0.05,0.27,0.89,-2.3,0.6,2.9,0.78,0.01,-0.01,0.62
1697354727.81,0.05,0.27,0.89,-2.3,0.6,2.9,0.78,0.01,-0.01,0.62
1697354727.82,0.05,0.27,0.89,-2.3,0.6,2.9,0.78,0.01,-0.01,0.62
1697354727.83,0.05,0.27,0.89,-2.3,0.6,2.9,0.78,0.01,-0.01,0.62
1697354727.84,0.05,0.27,0.89,-2.3,0.6,2.9,0.78,0.01,-0.01,0.62
1697354727.85,0.05,0.27,0.89,-2.3,0.6,2.9,0.78,0.01,-0.01,0.62
1697354727.86,0.05,0.27,0.89,-2.3,0.6,2.9,0.78,0.01,-0.01,0.62
1697354727.87,0.05,0.27,0.89,-2.3,0.6,2.9,0.78,0.01,-0.01,0.62
1697354727.88,0.05,0.27,0.89,-2.3,0.6,2.9,0.78,0.01,-0.01,0.62
1697354727.89,0.05,0.27,0.89,-2.3,0.6,2.9,0.78,0.01,-0.01,0.62
1697354727.9,0.05,0.27,0.89,-2.3,0.6,2.9,0.78,0.01,-0.01,0.62
1697354727.91,0.05,0.27,0.89,-2.3,0.6,2.9,0.78,0.01,-0.01,0.62
1697354727.92,0.11,-0.17,0.76,-0.6,-0.1,1,0.78,0.01,-0.01,0.63
1697354727.93,-0.15,-0.02,1.1,-0.7,0.5,1.2,0.78,0.01,-0.01,0.63
1697354727.94,0.07,0.03,0.88,1.2,0,1.2,0.78,0.01,-0.01,0.63
1697354727.95,-0.04,-0.05,1.25,2.6,-0.2,1.2,0.78,0.01,-0.01,0.63
1697354727.96,0.02,-0.04,0.97,3.1,-0.6,1.3,0.78,0.01,-0.01,0.63
1697354727.97,0.04,-0.04,0.75,1.7,-1,1.5,0.78,0.01,-0.01,0.63
1697354727.98,0.01,-0.15,1.09,-0.6,-1.3,1.3,0.78,0.01,-0.01,0.63
1697354727.99,0.04,-0.04,1.14,-2.2,-1.2,1,0.78,0.01,-0.01,0.63
1697354728,-0.01,0.18,0.75,-1.5,-0.7,1,0.78,0.01,-0.01,0.63
1697354728.01,-0.07,0.16,1.43,0.5,-0.3,1.1,0.78,0.01,-0.01,0.63
1697354728.02,0.05,0.09,0.67,2.2,0.3,1,0.78,0.01,-0.01,0.63
1697354728.03,-0.16,-0.02,1.47,1.9,0.7,1.1,0.78,0.01,-0.01,0.63
1697354728.04,-0.03,-0.13,1.4,0,1.3,0.9,0.78,0.01,-0.01,0.63
1697354728.05,0.04,-0.1,1.21,-1.6,1.4,0.8,0.78,0.01,-0.01,0.63
1697354728.06,-0.08,0.02,0.72,-4.7,1.6,0.9,0.78,0.01,-0.01,0.63
1697354728.07,0.04,0.2,1.41,-4.8,1.3,1,0.78,0.01,-0.01,0.63
1697354728.08,0.01,0.16,0.96,-4.8,1.3,1,0.78,0.01,-0.01,0.63
1697354728.09,0.04,0.06,0.64,0.4,0.8,1.4,0.78,0.01,-0.01,0.63
1697354728.1,0.04,0.06,0.64,0.4,0.8,1.4,0.78,0.01,-0.01,0.63
1697354728.11,0.04,-0.14,0.84,1.5,0.7,1.5,0.78,0.01,-0.01,0.63
1697354728.12,0.04,-0.14,0.84,1.5,0.7,1.5,0.78,0.01,-0.01,0.63
1697354728.13,-0.06,0.04,0.82,0,-0.8,1.2,0.78,0.01,-0.01,0.63
1697354728.14,-0.06,0.04,0.82,0,-0.8,1.2,0.78,0.01,-0.01,0.63
1697354728.15,0.09,0.01,0.82,3.1,-1.2,1.4,0.78,0.01,-0.01,0.63
1697354728.16,0,-0.11,1.04,4.2,-1.3,1.3,0.78,0.01,-0.01,0.63
1697354728.17,-0.01,-0.08,0.94,2.7,-1.3,1.2,0.78,0.01,-0.01,0.63
1697354728.18,0.07,-0.12,1.31,0,-1,1.1,0.78,0.01,-0.01,0.63
1697354728.19,0.07,-0.12,1.31,0,-1,1.1,0.78,0.01,-0.01,0.63
1697354728.2,0.02,0.16,0.77,-2.5,-1.4,1.3,0.78,0.01,-0.01,0.63
1697354728.21,-0.04,0.13,1.42,-0.1,-2.4,1.3,0.78,0.01,-0.01,0.63
1697354728.22,-0.04,0.13,1.42,-0.1,-2.4,1.3,0.78,0.01,-0.01,0.63
1697354728.23,0.07,0,1.1,1.3,-2.6,1.3,0.78,0.01,-0.01,0.63
1697354728.24,-0.02,-0.1,0.76,1.9,-2.8,0.9,0.78,0.01,-0.01,0.63
1697354728.25,-0.04,-0.11,0.99,-1.8,-2.1,0,0.78,0.01,-0.01,0.63
1697354728.26,0.03,-0.07,1.33,-3.5,-1.1,-0.6,0.78,0.01,-0.01,0.63
1697354728.27,0.03,-0.01,0.58,-3.1,-0.4,-0.7,0.78,0.01,-0.01,0.63
1697354728.28,0.06,0.09,1.01,-1,0.1,-0.8,0.78,0.01,-0.01,0.63
1697354728.29,-0.07,-0.08,0.92,0.4,0.6,-0.9,0.78,0.01,-0.01,0.63
1697354728.3,0.15,-0.17,0.48,0.4,0.9,-1.1,0.78,0.01,-0.01,0.63
1697354728.31,-0.05,-0.08,1.04,-0.5,1.5,-1,0.78,0.01,-0.01,0.63
1697354728.32,-0.05,-0.08,1.04,-0.5,1.5,-1,0.78,0.01,-0.01,0.63
1697354728.33,-0.05,-0.08,1.04,-0.5,1.5,-1,0.78,0.01,-0.01,0.63
1697354728.34,-0.05,-0.08,1.04,-0.5,1.5,-1,0.78,0.01,-0.01,0.63
1697354728.35,-0.05,-0.08,1.04,-0.5,1.5,-1,0.78,0.01,-0.01,0.63
1697354728.36,-0.05,-0.08,1.04,-0.5,1.5,-1,0.78,0.01,-0.01,0.63
1697354728.37,-0.05,-0.08,1.04,-0.5,1.5,-1,0.78,0.01,-0.01,0.63
1697354728.38,-0.05,-0.08,1.04,-0.5,1.5,-1,0.78,0.01,-0.01,0.63
1697354728.39,-0.05,-0.08,1.04,-0.5,1.5,-1,0.78,0.01,-0.01,0.63
1697354728.4,-0.05,-0.08,1.04,-0.5,1.5,-1,0.78,0.01,-0.01,0.63
1697354728.41,-0.05,-0.08,1.04,-0.5,1.5,-1,0.78,0.01,-0.01,0.63
1697354728.42,-0.05,-0.08,1.04,-0.5,1.5,-1,0.78,0.01,-0.01,0.63
1697354728.43,-0.05,-0.08,1.04,-0.5,1.5,-1,0.78,0.01,-0.01,0.63
1697354728.44,0.05,-0.15,0.74,-0.5,1.5,-1,0.78,0.01,-0.01,0.63
1697354728.45,0.12,-0.27,0.66,0,1.8,-2.2,0.78,0.01,-0.01,0.63
1697354728.46,0.01,-0.1,0.79,-4.8,1.5,-3.2,0.78,0.01,-0.01,0.63
1697354728.47,-0.01,0.09,1.35,-4.8,1.5,-3.2,0.78,0.01,-0.01,0.63
1697354728.48,0.02,0.14,1.06,-4.8,1.5,-3.2,0.78,0.01,-0.01,0.63
1697354728.49,0.02,0.14,1.06,0.6,0.4,-3.3,0.78,0.01,-0.01,0.63
1697354728.5,0.01,-0.12,0.53,2.7,0,-3.4,0.78,0.01,-0.01,0.63
1697354728.51,0.1,-0.19,0.97,0.9,-0.5,-3.9,0.78,0.01,-0.01,0.62
1697354728.52,-0.02,-0.2,1.09,-1.6,-0.5,-3.5,0.78,0.01,-0.01,0.62
1697354728.53,-0.02,-0.2,1.09,-1.6,-0.5,-3.5,0.78,0.01,-0.01,0.62
1697354728.54,-0.04,-0.04,0.94,-1,-0.8,-3.9,0.78,0.01,-0.01,0.62
1697354728.55,-0.08,0.05,1.11,2.3,-0.1,-3.5,0.78,0.01,-0.01,0.62
1697354728.56,-0.03,0.04,1.47,5.1,0.2,-3.2,0.78,0.01,-0.01,0.62
1697354728.57,0,-0.09,0.52,5,0.8,-3.1,0.78,0.01,-0.01,0.62
1697354728.58,-0.08,-0.25,1.35,1.6,1,-3.1,0.78,0.01,-0.01,0.62
1697354728.59,0.14,-0.2,0.87,-2.1,1.2,-3.4,0.78,0.01,-0.01,0.62
1697354728.6,0.03,-0.1,1.18,-3.6,0.6,-3.6,0.78,0.01,-0.01,0.62
1697354728.61,0.06,0.16,1.21,-3.4,0.3,-3.6,0.78,0.01,-0.01,0.62
1697354728.62,-0.01,0.09,1.04,-1.2,0,-3.5,0.78,0.01,-0.01,0.62
1697354728.63,0.05,0.01,0.76,1.6,-0.6,-3.5,0.78,0.01,-0.01,0.62
1697354728.64,0.04,-0.05,1.43,2.5,-0.9,-3.7,0.78,0.01,-0.01,0.62
1697354728.65,0.18,-0.18,0.72,1.7,-1.6,-4,0.78,0.01,-0.01,0.62
1697354728.66,0.08,-0.08,0.83,-0.6,-2.2,-3.9,0.78,0.01,-0.01,0.62
1697354728.67,0.02,-0.06,0.6,-2.5,-2.5,-3.8,0.78,0.01,-0.01,0.62
1697354728.68,-0.03,0.07,1.09,-2.8,-2.4,-3.8,0.78,0.01,-0.01,0.62
1697354728.69,0.03,0.06,1.07,-0.7,-2.3,-3.7,0.78,0.01,-0.01,0.62
1697354728.7,0,-0.1,0.61,1.6,-1.5,-3.3,0.78,0.01,-0.01,0.62
1697354728.71,0.06,-0.11,0.92,2.1,-0.4,-3.2,0.78,0.01,-0.01,0.62
1697354728.72,0.08,-0.15,0.88,-0.2,1.7,-3.1,0.78,0.01,-0.01,0.62
1697354728.73,-0.03,-0.02,0.81,-0.2,1.7,-3.1,0.78,0.01,-0.01,0.62
1697354728.74,0.08,0.04,1.34,1,2.4,-2.8,0.79,0.01,-0.01,0.62
1697354728.75,-0.01,-0.09,1.24,1,2.4,-2.8,0.79,0.01,-0.01,0.62
1697354728.76,0.07,0.01,0.8,2.2,1.5,-2.8,0.79,0.01,-0.01,0.62
1697354728.77,-0.01,-0.1,1.19,2.2,1.5,-2.8,0.79,0.01,-0.01,0.62
1697354728.78,0,-0.12,0.98,0.6,0.3,-3,0.79,0.01,-0.01,0.62
1697354728.79,0,-0.12,0.98,0.6,0.3,-3,0.79,0.01,-0.01,0.62
1697354728.8,0.01,-0.06,1.49,-0.7,-0.2,-2.9,0.79,0.01,-0.01,0.62
1697354728.81,0.06,0.04,0.7,-0.7,-0.2,-2.9,0.79,0.01,-0.01,0.62
1697354728.82,0.06,0.04,0.7,0.6,-0.6,-3,0.79,0.01,-0.01,0.62
1697354728.83,0.02,-0.03,1.18,0.9,-0.8,-2.9,0.79,0.01,-0.01,0.62
1697354728.84,0.04,-0.1,1.02,0.8,-1.2,-2.8,0.79,0.01,-0.01,0.62
1697354728.85,0.04,-0.1,1.02,0.8,-1.2,-2.8,0.79,0.01,-0.01,0.62
1697354728.86,0.04,-0.1,1.02,0.8,-1.2,-2.8,0.79,0.01,-0.01,0.62
1697354728.87,0.04,-0.1,1.02,0.8,-1.2,-2.8,0.79,0.01,-0.01,0.62
1697354728.88,0.04,-0.1,1.02,0.8,-1.2,-2.8,0.79,0.01,-0.01,0.62
1697354728.89,0.04,-0.1,1.02,0.8,-1.2,-2.8,0.79,0.01,-0.01,0.62
1697354728.9,0.04,-0.1,1.02,0.8,-1.2,-2.8,0.79,0.01,-0.01,0.62
1697354728.91,0.04,-0.1,1.02,0.8,-1.2,-2.8,0.79,0.01,-0.01,0.62
1697354728.92,0.04,-0.1,1.02,0.8,-1.2,-2.8,0.79,0.01,-0.01,0.62
1697354728.93,0.04,-0.1,1.02,0.8,-1.2,-2.8,0.79,0.01,-0.01,0.62
1697354728.94,0.04,-0.1,1.02,0.8,-1.2,-2.8,0.79,0.01,-0.01,0.62
1697354728.95,0.04,-0.1,1.02,0.8,-1.2,-2.8,0.79,0.01,-0.01,0.62
1697354728.96,0.04,-0.1,1.02,0.8,-1.2,-2.8,0.79,0.01,-0.01,0.62
1697354728.97,0.04,-0.1,1.02,0.8,-1.2,-2.8,0.79,0.01,-0.01,0.62
1697354728.98,0,-0.14,0.85,2.5,1.1,-1.2,0.79,0.01,-0.01,0.61
1697354728.99,0.03,-0.04,1.26,1.8,0.9,-1.3,0.79,0.01,-0.01,0.61
1697354729,0.1,-0.1,1.21,0,0.8,-1.5,0.79,0.01,-0.01,0.61
1697354729.01,0.04,0.06,0.7,-1.4,0.3,-1.5,0.79,0.01,-0.01,0.61
1697354729.02,0.02,0.11,1.13,-0.6,-0.4,-1.4,0.79,0.01,-0.01,0.61
1697354729.03,0.12,-0.03,0.79,2,-1.3,-1.1,0.79,0.01,-0.01,0.61
1697354729.04,0.04,-0.07,0.87,1.4,-1.5,-1.3,0.79,0.01,-0.01,0.61
1697354729.05,0.08,-0.04,0.91,-0.5,-1.4,-1.1,0.79,0.01,-0.01,0.61
1697354729.06,0.01,-0.04,1.24,-2.1,-0.8,-1.1,0.79,0.01,-0.01,0.61
1697354729.07,-0.01,0.05,0.77,-2.7,0,-1,0.79,0.01,-0.01,0.61
1697354729.08,0.02,0.08,1.02,-0.5,0.5,-0.8,0.79,0.01,-0.01,0.61
1697354729.09,0.03,0.1,0.98,-0.5,0.5,-0.8,0.79,0.01,-0.01,0.61
1697354729.1,0.03,0.01,0.68,1.9,1.1,-0.6,0.79,0.01,-0.01,0.61
1697354729.11,0.06,-0.11,0.95,2.5,1.3,-0.9,0.79,0.01,-0.01,0.61
1697354729.12,0.06,-0.11,0.95,2.5,1.3,-0.9,0.79,0.01,-0.01,0.61
1697354729.13,0.05,-0.14,1.03,0.8,0.8,-1.1,0.79,0.01,-0.01,0.61
1697354729.14,0.02,-0.01,1.47,0.4,0.8,-1.2,0.79,0.01,-0.01,0.61
1697354729.15,0.09,0.03,0.78,-1,0,-1,0.79,0.01,-0.01,0.61
1697354729.16,-0.01,0.04,0.84,-0.9,0,-0.8,0.79,0.01,-0.01,0.61
1697354729.17,0.07,0.1,0.97,0.4,-0.8,-0.6,0.79,0.01,-0.01,0.61
1697354729.18,0.02,-0.05,1.1,1.8,-1,-0.6,0.79,0.01,-0.01,0.61
1697354729.19,0,-0.07,0.81,1.9,-1,-0.1,0.79,0.01,-0.01,0.61
1697354729.2,0.03,-0.04,1.13,0.5,-1,-0.2,0.79,0.01,-0.01,0.61
1697354729.21,-0.07,-0.02,1.01,-0.8,-1.1,-0.4,0.79,0.01,-0.01,0.61
1697354729.22,-0.02,0.03,1.37,-1.6,-1,-0.6,0.79,0.01,-0.01,0.61
1697354729.23,-0.04,0.12,1.14,-0.4,-1,-0.8,0.79,0.01,-0.01,0.61
1697354729.24,0.02,-0.03,1.23,1,-0.8,-0.7,0.79,0.02,-0.01,0.61
1697354729.25,0.07,-0.03,0.72,0,-1.1,-0.7,0.79,0.02,-0.01,0.61
1697354729.26,-0.06,-0.04,1.1,-1.3,-0.5,-0.8,0.79,0.02,-0.01,0.61
1697354729.27,-0.04,-0.07,1.22,-1.9,-0.3,-0.8,0.79,0.02,-0.01,0.61
1697354729.28,0.13,-0.02,0.93,-1.7,-0.3,-0.4,0.79,0.01,-0.01,0.61
1697354729.29,-0.06,0.05,0.66,0,0,-0.2,0.79,0.01,-0.01,0.61
1697354729.3,0.02,0.07,0.77,2.1,0.4,0,0.79,0.02,-0.01,0.61
1697354729.31,-0.11,-0.1,1.56,2.6,0.7,0,0.79,0.02,-0.01,0.61
1697354729.32,0.15,-0.12,0.3,2.6,0.7,0,0.79,0.02,-0.01,0.61
1697354729.33,0.13,-0.1,0.76,-0.1,2.2,-0.2,0.79,0.02,-0.01,0.61
1697354729.34,-0.01,-0.06,0.87,-1.3,1.9,-0.1,0.79,0.01,-0.01,0.61
1697354729.35,0.01,0.06,0.95,-1.2,1.5,0,0.79,0.01,-0.01,0.61
1697354729.36,-0.06,0.01,1.33,-0.3,1.2,0.1,0.79,0.01,-0.01,0.61
1697354729.37,-0.06,0.01,1.33,-0.3,1.2,0.1,0.79,0.01,-0.01,0.61
1697354729.38,-0.06,0.01,1.33,-0.3,1.2,0.1,0.79,0.01,-0.01,0.61
1697354729.39,-0.06,0.01,1.33,-0.3,1.2,0.1,0.79,0.01,-0.01,0.61
1697354729.4,-0.06,0.01,1.33,-0.3,1.2,0.1,0.79,0.01,-0.01,0.61
1697354729.41,-0.06,0.01,1.33,-0.3,1.2,0.1,0.79,0.01,-0.01,0.61
1697354729.42,-0.06,0.01,1.33,-0.3,1.2,0.1,0.79,0.01,-0.01,0.61
1697354729.43,-0.06,0.01,1.33,-0.3,1.2,0.1,0.79,0.01,-0.01,0.61
1697354729.44,-0.06,0.01,1.33,-0.3,1.2,0.1,0.79,0.01,-0.01,0.61
1697354729.45,-0.06,0.01,1.33,-0.3,1.2,0.1,0.79,0.01,-0.01,0.61
1697354729.46,-0.06,0.01,1.33,-0.3,1.2,0.1,0.79,0.01,-0.01,0.61
1697354729.47,-0.06,0.01,1.33,-0.3,1.2,0.1,0.79,0.01,-0.01,0.61
1697354729.48,-0.06,0.01,1.33,-0.3,1.2,0.1,0.79,0.01,-0.01,0.61
1697354729.49,-0.06,0.01,1.33,-0.3,1.2,0.1,0.79,0.01,-0.01,0.61
1697354729.5,-0.06,0.01,1.33,-0.3,1.2,0.1,0.79,0.01,-0.01,0.61
1697354729.51,-0.06,0.01,1.33,-0.3,1.2,0.1,0.79,0.01,-0.01,0.61
1697354729.52,-0.01,0.03,1.13,-0.1,1,-0.2,0.79,0.01,-0.01,0.61
1697354729.53,0.05,-0.03,0.85,1.2,0.7,-0.1,0.79,0.01,-0.01,0.61
1697354729.54,-0.03,-0.06,1.13,1.8,0.5,-0.1,0.79,0.01,-0.01,0.61
1697354729.55,-0,-0.12,0.63,-0.7,1.3,-0.4,0.79,0.01,-0.01,0.61
1697354729.56,0.05,-0.05,0.76,-2.1,2.1,-0.5,0.79,0.01,-0.01,0.61
1697354729.57,-0.07,0.07,0.98,-2.1,2.1,-0.3,0.79,0.01,-0.01,0.61
1697354729.58,-0.01,0.12,1.25,-0.5,1.6,0.2,0.79,0.01,-0.01,0.61
1697354729.59,-0.04,0.07,1.4,1.6,1.4,0,0.79,0.01,-0.01,0.61
1697354729.6,0.01,0.06,0.49,2,2.2,0,0.79,0.01,-0.01,0.61
1697354729.61,0.06,-0.07,1.21,1.9,2.2,0,0.79,0.01,-0.01,0.61
1697354729.62,0.01,-0.11,0.96,0.4,2,0,0.79,0.01,-0.01,0.61
1697354729.63,0.1,0.01,0.74,-1.1,0.8,-0.5,0.79,0.01,-0.01,0.61
1697354729.64,-0.15,0.07,1.73,-2.2,0.1,-0.5,0.79,0.01,-0.01,0.61
1697354729.65,0.06,0.11,0.94,-2.2,0.1,-0.5,0.79,0.01,-0.01,0.61
1697354729.66,-0.01,0.05,0.84,0.8,-0.7,0,0.79,0.01,-0.01,0.61
1697354729.67,-0.08,-0.12,1.51,2.7,-1.1,0,0.79,0.01,-0.01,0.61
1697354729.68,-0.06,-0.15,0.55,1.4,-1.3,-0.1,0.79,0.01,-0.01,0.61
1697354729.69,-0.07,0.04,1.11,-1,-0.7,-0.2,0.79,0.01,-0.01,0.61
1697354729.7,-0.02,-0,1.1,-2.8,-0.3,-0.3,0.79,0.01,-0.01,0.61
1697354729.71,-0.02,0.07,0.71,-2.7,0.2,-0.2,0.79,0.01,-0.01,0.61
1697354729.72,0,0.1,0.88,-2.7,0.2,-0.2,0.79,0.01,-0.01,0.61
1697354729.73,-0.06,0.01,1.32,1.2,0.5,0.1,0.79,0.01,-0.01,0.61
1697354729.74,0.07,-0.14,0.72,1.9,1,0.2,0.79,0.01,-0.01,0.61
1697354729.75,0.04,-0.14,0.75,1.9,1,0.2,0.79,0.01,-0.01,0.61
1697354729.76,-0.08,-0.14,0.91,-4,-1,-0.5,0.79,0.01,-0.01,0.61
1697354729.77,0.01,0.05,1.23,-4,-1,-0.5,0.79,0.01,-0.01,0.61
1697354729.78,0.01,0.05,1.23,-4,-1,-0.5,0.79,0.01,-0.01,0.61
1697354729.79,0.01,0.09,0.97,-2.3,-0.8,-0.5,0.79,0.01,-0.01,0.61
1697354729.8,0.03,0.15,0.7,-0.1,0,-0.7,0.79,0.01,-0.01,0.61
1697354729.81,-0.06,-0.04,1.41,2.4,0,-0.7,0.79,0.01,-0.01,0.61
1697354729.82,-0.06,-0.04,1.41,2.4,0,-0.7,0.79,0.01,-0.01,0.61
1697354729.83,-0.1,-0.15,1.14,0.9,0,-1,0.79,0.01,-0.01,0.61
1697354729.84,-0.1,-0.15,1.14,-1.6,0.1,-1.4,0.79,0.01,-0.01,0.61
1697354729.85,-0.06,-0.05,1.41,-2.8,0.5,-1.2,0.79,0.01,-0.01,0.61
1697354729.86,0.02,0.09,1.15,-0.4,0.7,-0.7,0.79,0.01,-0.01,0.61
1697354729.87,-0.11,0.07,1.67,2.2,0.8,-0.5,0.79,0.01,-0.01,0.61
1697354729.88,0.08,-0.1,1.07,2.7,0.4,-0.5,0.79,0.01,-0.01,0.61
1697354729.89,-0.06,-0.15,0.69,0.5,0,-0.2,0.79,0.01,-0.01,0.61
1697354729.9,0.02,-0.11,1.09,-2,0.2,-0.2,0.79,0.01,-0.01,0.61
1697354729.91,0.02,-0.11,1.09,-2,0.2,-0.2,0.79,0.01,-0.01,0.61
1697354729.92,0.02,-0.11,1.09,-2,0.2,-0.2,0.79,0.01,-0.01,0.61
1697354729.93,0.02,-0.11,1.09,-2,0.2,-0.2,0.79,0.01,-0.01,0.61
1697354729.94,0.02,-0.11,1.09,-2,0.2,-0.2,0.79,0.01,-0.01,0.61
1697354729.95,0.02,-0.11,1.09,-2,0.2,-0.2,0.79,0.01,-0.01,0.61
1697354729.96,0.02,-0.11,1.09,-2,0.2,-0.2,0.79,0.01,-0.01,0.61
1697354729.97,0.02,-0.11,1.09,-2,0.2,-0.2,0.79,0.01,-0.01,0.61
1697354729.98,0.02,-0.11,1.09,-2,0.2,-0.2,0.79,0.01,-0.01,0.61
1697354729.99,0.02,-0.11,1.09,-2,0.2,-0.2,0.79,0.01,-0.01,0.61
1697354730,0.02,-0.11,1.09,-2,0.2,-0.2,0.79,0.01,-0.01,0.61
1697354730.01,0.02,-0.11,1.09,-2,0.2,-0.2,0.79,0.01,-0.01,0.61
1697354730.02,0.02,-0.11,1.09,-2,0.2,-0.2,0.79,0.01,-0.01,0.61
1697354730.03,-0.06,-0.18,0.78,1.2,-0.2,-1.3,0.79,0.01,-0.01,0.61
1697354730.04,-0.06,-0.18,0.78,0.7,-0.5,-1.4,0.79,0.01,-0.01,0.61
1697354730.05,-0.06,0.01,1.08,-1.3,-0.6,-1.5,0.79,0.01,-0.01,0.61
1697354730.06,-0.17,-0.01,1.54,-2.5,-0.3,-1.5,0.79,0.01,-0.01,0.61
1697354730.07,-0.06,-0.04,1.12,-1.3,0.7,-1.3,0.79,0.01,-0.01,0.61
1697354730.08,-0.01,-0.02,0.68,-1.3,0.7,-1.3,0.79,0.01,-0.01,0.61
1697354730.09,-0.03,-0.03,1.25,-0.5,0.9,-1.4,0.79,0.01,-0.01,0.61
1697354730.1,0.12,-0.11,0.48,-0.7,1,-1.2,0.79,0.01,-0.01,0.61
1697354730.11,-0,-0.05,1,-1.3,0.9,-1.2,0.79,0.01,-0.01,0.61
1697354730.12,-0.03,0.03,1.1,-1,0.1,-1.3,0.79,0.01,-0.01,0.61
1697354730.13,0.06,-0.06,0.87,-0.6,-0.3,-1.3,0.79,0.01,-0.01,0.61
1697354730.14,-0.07,-0.05,0.45,-0.8,-0.7,-1.2,0.79,0.01,-0.01,0.61
1697354730.15,-0.08,0.04,1.36,-0.8,-0.7,-1.2,0.79,0.01,-0.01,0.61
1697354730.16,-0.03,0.05,0.75,-1.2,-0.9,-1,0.79,0.01,-0.01,0.61
1697354730.17,0.09,0.09,1.02,0.7,-0.8,-0.9,0.79,0.01,-0.01,0.61
1697354730.18,-0.04,-0.11,0.77,3.2,-1.1,-0.9,0.79,0.01,-0.01,0.61
1697354730.19,-0.06,-0.14,1.18,3.8,-1,-1.2,0.79,0.01,-0.01,0.61
1697354730.2,-0.06,-0.14,1.18,3.8,-1,-1.2,0.79,0.01,-0.01,0.61
1697354730.21,-0.11,-0.06,0.82,1.9,-0.9,-1.4,0.79,0.01,-0.01,0.61
1697354730.22,-0.11,-0.06,0.82,-0.8,-1.2,-1.5,0.79,0.01,-0.01,0.61
1697354730.23,-0.04,0.04,0.94,-2.2,-0.7,-1.7,0.79,0.01,-0.01,0.61
1697354730.24,-0.15,0.11,1.61,-1.3,-0.1,-1.8,0.79,0.01,-0.01,0.61
1697354730.25,0.08,-0.01,1.06,0,0.4,-1.5,0.79,0.01,-0.01,0.61
1697354730.26,0,0.01,0.63,0.9,0.5,-1.6,0.79,0.01,-0.01,0.61
1697354730.27,0.04,-0.06,0.95,0.7,0.4,-1.6,0.79,0.01,-0.01,0.61
1697354730.28,0.04,-0.11,0.8,-0.2,0.2,-1.3,0.79,0.01,-0.01,0.61
1697354730.29,-0.04,-0.02,1.36,-1.7,-0.2,-1.6,0.79,0.01,-0.01,0.61
1697354730.3,0.05,0.11,1.07,-2.5,-0.7,-1.6,0.79,0.01,-0.01,0.61
1697354730.31,0.11,-0.02,0.76,-1.7,-1.1,-1.4,0.79,0.01,-0.01,0.61
1697354730.32,-0.14,-0.02,0.66,0,-0.7,-1.3,0.79,0.01,-0.01,0.61
1697354730.33,-0.07,-0.05,1.26,1.1,-0.3,-1.5,0.79,0.01,-0.01,0.61
1697354730.34,-0.05,-0.18,0.99,0.6,0.2,-1.7,0.79,0.01,-0.01,0.61
1697354730.35,0.11,-0.07,0.72,-1.2,0.7,-1.9,0.79,0.01,-0.01,0.61
1697354730.36,-0.07,0.1,0.9,-2.3,0.8,-1.9,0.79,0.01,-0.01,0.61
1697354730.37,-0.03,0.11,1.07,-0.5,0.8,-2,0.79,0.01,-0.01,0.61
1697354730.38,0.1,-0.05,0.53,2.9,0.8,-1.9,0.79,0.01,-0.01,0.61
1697354730.39,0.01,-0.15,0.89,4.9,0.6,-1.9,0.79,0.01,-0.01,0.61
1697354730.4,-0,-0.27,1.37,3.1,0.6,-1.8,0.79,0.01,-0.01,0.61
1697354730.41,0,-0.14,0.75,0,0.5,-2,0.79,0.01,-0.01,0.61
1697354730.42,0,-0.14,0.75,0,0.5,-2,0.79,0.01,-0.01,0.61
1697354730.43,0,-0.14,0.75,0,0.5,-2,0.79,0.01,-0.01,0.61
1697354730.44,0,-0.14,0.75,0,0.5,-2,0.79,0.01,-0.01,0.61
1697354730.45,0,-0.14,0.75,0,0.5,-2,0.79,0.01,-0.01,0.61
1697354730.46,0,-0.14,0.75,0,0.5,-2,0.79,0.01,-0.01,0.61
1697354730.47,0,-0.14,0.75,0,0.5,-2,0.79,0.01,-0.01,0.61
1697354730.48,0,-0.14,0.75,0,0.5,-2,0.79,0.01,-0.01,0.61
1697354730.49,0,-0.14,0.75,0,0.5,-2,0.79,0.01,-0.01,0.61
1697354730.5,0,-0.14,0.75,0,0.5,-2,0.79,0.01,-0.01,0.61
1697354730.51,0,-0.14,0.75,0,0.5,-2,0.79,0.01,-0.01,0.61
1697354730.52,0,-0.14,0.75,0,0.5,-2,0.79,0.01,-0.01,0.61
1697354730.53,0,-0.14,0.75,0,0.5,-2,0.79,0.01,-0.01,0.61
1697354730.54,0.06,-0.02,0.96,0.1,1.9,-1.8,0.8,0.01,-0.01,0.6
1697354730.55,0.06,-0.02,0.96,0,1.4,-1.8,0.8,0.01,-0.01,0.6
1697354730.56,-0.05,0.01,0.9,0.4,0.9,-1.8,0.8,0.01,-0.01,0.6
1697354730.57,-0.02,0.07,1.1,1.5,1,-1.6,0.8,0.01,-0.01,0.6
1697354730.58,0.04,-0.03,0.47,2.7,1.2,-1.5,0.8,0.01,-0.01,0.6
1697354730.59,-0.08,-0.08,1.36,2.6,1.3,-1.3,0.8,0.01,-0.01,0.6
1697354730.6,0.02,-0.14,0.98,1.9,0.8,-1.5,0.8,0.01,-0.01,0.6
1697354730.61,0.04,-0.14,0.82,0.1,0.2,-1.5,0.8,0.01,-0.01,0.6
1697354730.62,-0.08,-0.04,1.01,-1.3,-0.3,-1.4,0.8,0.01,-0.01,0.6
1697354730.63,-0.1,-0.01,1.56,-1.9,-1,-1.5,0.8,0.01,-0.01,0.6
1697354730.64,0.05,0.09,0.88,-1.4,-1.4,-1.4,0.8,0.01,-0.01,0.6
1697354730.65,-0.04,0.07,1.45,-1.1,-1.4,-1.4,0.8,0.01,-0.01,0.6
1697354730.66,-0,0.01,0.94,0.2,-1.1,-1.2,0.8,0.01,-0.01,0.6
1697354730.67,0.07,0.06,0.8,1,-0.8,-1.4,0.8,0.01,-0.01,0.6
1697354730.68,-0.05,-0.09,0.94,1.5,-0.3,-1.3,0.8,0.01,-0.01,0.6
1697354730.69,-0.05,-0.12,1.41,0.5,-0.1,-1.5,0.8,0.01,-0.01,0.6
1697354730.7,0.03,-0.06,0.78,-1.3,-0.4,-1.7,0.8,0.01,-0.01,0.6
1697354730.71,0.05,-0.02,0.62,-2.7,-0.6,-1.6,0.8,0.01,-0.01,0.6
1697354730.72,-0.08,0.01,1.44,-3.1,-0.4,-1.4,0.8,0.01,-0.01,0.6
1697354730.73,-0.02,0.1,0.85,-2.2,-0.7,-1.4,0.8,0.01,-0.01,0.6
1697354730.74,-0,0.01,1.12,-0.7,-0.2,-1,0.8,0.01,-0.01,0.6
1697354730.75,-0.02,-0.03,0.71,1.6,0.6,-0.8,0.8,0.01,-0.01,0.6
1697354730.76,0,-0.14,1.15,2.5,1.3,-1.1,0.8,0.01,-0.01,0.6
1697354730.77,0.04,-0.09,0.64,1.5,1.3,-1.1,0.8,0.01,-0.01,0.6
1697354730.78,-0.03,-0.01,1.04,0.2,0.6,-1.2,0.8,0.01,-0.01,0.6
1697354730.79,0.04,0.03,0.97,0.1,-0.7,-1.2,0.8,0.01,-0.01,0.6
1697354730.8,0.04,0.03,0.97,0.1,-0.7,-1.2,0.8,0.01,-0.01,0.6
1697354730.81,-0.03,-0,1.24,1.4,-1.5,-0.9,0.8,0.01,-0.01,0.6
1697354730.82,-0.09,-0.05,1.55,0.1,-1.5,-0.8,0.8,0.01,-0.01,0.6
1697354730.83,0.06,-0.02,0.66,0.1,-1.5,-0.8,0.8,0.01,-0.01,0.6
1697354730.84,-0.09,0.02,1.18,-1.2,-1.3,-0.9,0.8,0.01,-0.01,0.6
1697354730.85,-0.09,0.02,1.18,-1.5,-0.9,-1,0.8,0.01,-0.01,0.6
1697354730.86,-0.02,0.02,1.15,-1.5,-0.3,-0.9,0.8,0.01,-0.01,0.6
1697354730.87,0.03,0.07,0.96,-0.5,0.1,-0.9,0.8,0.01,-0.01,0.6
1697354730.88,-0.02,0.03,0.81,0.4,0.9,-0.8,0.8,0.01,-0.01,0.6
1697354730.89,-0.07,-0.02,1.1,0,1.9,-1,0.8,0.01,-0.01,0.6
1697354730.9,0.03,-0.05,0.74,-1.3,2.2,-0.9,0.8,0.01,-0.01,0.6
1697354730.91,0.08,0.03,0.81,-1.2,2.1,-0.9,0.8,0.01,-0.01,0.6
1697354730.92,-0.1,-0.08,1.16,-1.1,1.6,-1.1,0.8,0.01,-0.01,0.6
1697354730.93,-0,-0.01,1.02,-0.8,1.4,-1.4,0.8,0.01,-0.01,0.6
1697354730.94,0.07,0.01,0.84,0.1,0.7,-1.3,0.8,0.01,-0.01,0.6
1697354730.95,0.07,0.01,0.84,0.1,0.7,-1.3,0.8,0.01,-0.01,0.6
1697354730.96,0.07,0.01,0.84,0.1,0.7,-1.3,0.8,0.01,-0.01,0.6
1697354730.97,0.07,0.01,0.84,0.1,0.7,-1.3,0.8,0.01,-0.01,0.6
1697354730.98,0.07,0.01,0.84,0.1,0.7,-1.3,0.8,0.01,-0.01,0.6
1697354730.99,0.07,0.01,0.84,0.1,0.7,-1.3,0.8,0.01,-0.01,0.6
1697354731,0.07,0.01,0.84,0.1,0.7,-1.3,0.8,0.01,-0.01,0.6
1697354731.01,0.07,0.01,0.84,0.1,0.7,-1.3,0.8,0.01,-0.01,0.6
1697354731.02,0.07,0.01,0.84,0.1,0.7,-1.3,0.8,0.01,-0.01,0.6
1697354731.03,0.07,0.01,0.84,0.1,0.7,-1.3,0.8,0.01,-0.01,0.6
1697354731.04,0.07,0.01,0.84,0.1,0.7,-1.3,0.8,0.01,-0.01,0.6
1697354731.05,0.07,0.01,0.84,0.1,0.7,-1.3,0.8,0.01,-0.01,0.6
1697354731.06,0.07,0.01,0.84,0.1,0.7,-1.3,0.8,0.01,-0.01,0.6
1697354731.07,0.02,0.08,0.8,0.1,0.7,-1.3,0.8,0.01,-0,0.6
1697354731.08,0.03,-0.01,1.15,0.1,0,0,0.8,0.01,-0,0.6
1697354731.09,0.05,0.11,0.68,-0.8,-0.4,0.5,0.8,0.01,-0,0.6
1697354731.1,0.02,0.12,0.86,-1.2,-0.8,0.8,0.8,0.01,-0,0.6
1697354731.11,-0.05,-0.02,0.92,-0.1,-1,1,0.8,0.01,-0,0.6
1697354731.12,-0.03,-0.09,1.27,1.3,-0.8,1.4,0.8,0.01,-0,0.6
1697354731.13,0.06,-0.07,0.53,2.3,-0.4,1.4,0.8,0.01,-0,0.6
1697354731.14,-0.06,-0.05,1.09,1.6,-0.1,1.1,0.8,0.01,-0,0.6
1697354731.15,0.06,-0.1,0.92,1.6,-0.1,1.1,0.8,0.01,-0,0.6
1697354731.16,0.08,0.08,0.85,-1.6,0.6,0.8,0.8,0.01,-0,0.6
1697354731.17,-0.04,0.18,0.98,-2.2,0.9,0.8,0.8,0.01,-0,0.6
1697354731.18,-0.06,0.21,1.13,-2.2,0.9,0.8,0.8,0.01,-0,0.6
1697354731.19,0.03,0.07,1.33,-0.6,0.9,1.3,0.8,0.01,-0,0.6
1697354731.2,0.03,0.07,1.33,2.2,1,1.7,0.8,0.01,-0,0.6
1697354731.21,-0.04,-0.08,0.56,3.4,0.5,2,0.8,0.01,-0,0.6
1697354731.22,0.03,0.02,1.12,2.5,0.1,2.1,0.8,0.01,-0,0.6
1697354731.23,0.08,0.18,1.23,-0.5,0,2.1,0.8,0.01,-0,0.6
1697354731.24,0.08,0.18,1.23,-2.9,-0.2,2.4,0.8,0.01,-0,0.6
1697354731.25,0.03,0.17,1.04,-2.1,-0.4,2.8,0.8,0.01,-0,0.6
1697354731.26,-0.01,0.14,1.31,1.2,-0.8,3.3,0.8,0.01,-0,0.6
1697354731.27,0.01,0.02,0.83,2.7,-1,3.9,0.8,0.01,-0,0.6
1697354731.28,-0.03,0.04,0.86,2.6,-1,4.3,0.8,0.01,-0,0.6
1697354731.29,-0.07,-0.01,1.1,1.5,-0.7,4.4,0.8,0.01,-0,0.6
1697354731.3,-0.04,0.07,1.02,-0.3,-0.4,4.6,0.8,0.01,-0,0.6
1697354731.31,-0.01,0.22,0.91,-1.7,0,5,0.8,0.01,-0,0.6
1697354731.32,-0.01,0.29,0.71,-1,0.1,5.6,0.8,0.01,-0,0.6
1697354731.33,0.04,0.29,1.16,0.8,0.3,6.5,0.8,0.01,-0,0.61
1697354731.34,-0.07,0.15,1.12,2.6,0.5,7.8,0.8,0.01,-0,0.61
1697354731.35,-0.1,0.13,1.2,3.3,0.5,9,0.79,0.01,-0,0.61
1697354731.36,0.01,0.18,1.05,2,0.7,9.8,0.79,0.01,-0,0.61
1697354731.37,0.01,0.26,0.84,-0.2,0.6,10.7,0.79,0.01,-0,0.61
1697354731.38,-0.02,0.48,0.74,-1.3,0.3,12,0.79,0.01,-0,0.61
1697354731.39,-0.06,0.47,1.07,3.7,0.3,14.8,0.79,0.01,-0,0.61
1697354731.4,0.01,0.37,1.14,4.8,0.4,15.9,0.79,0.01,-0,0.61
1697354731.41,-0.03,0.17,0.84,2.8,0.8,16.6,0.79,0.01,-0,0.61
1697354731.42,0.01,0.19,0.76,2.8,0.8,16.6,0.79,0.01,-0,0.61
1697354731.43,-0.04,0.27,1.3,-2.6,0.8,17.6,0.79,0.01,-0,0.61
1697354731.44,0.02,0.49,1.14,-1.3,0.6,18.3,0.79,0.01,-0,0.62
1697354731.45,-0.06,0.47,0.88,0.8,0.6,19.1,0.79,0.01,-0,0.62
1697354731.46,-0.06,0.47,0.88,0.8,0.6,19.1,0.79,0.01,-0,0.62
1697354731.47,-0.06,0.47,0.88,0.8,0.6,19.1,0.79,0.01,-0,0.62
1697354731.48,-0.06,0.47,0.88,0.8,0.6,19.1,0.79,0.01,-0,0.62
1697354731.49,-0.06,0.47,0.88,0.8,0.6,19.1,0.79,0.01,-0,0.62
1697354731.5,-0.06,0.47,0.88,0.8,0.6,19.1,0.79,0.01,-0,0.62
1697354731.51,-0.06,0.47,0.88,0.8,0.6,19.1,0.79,0.01,-0,0.62
1697354731.52,-0.06,0.47,0.88,0.8,0.6,19.1,0.79,0.01,-0,0.62
1697354731.53,-0.06,0.47,0.88,0.8,0.6,19.1,0.79,0.01,-0,0.62
1697354731.54,-0.06,0.47,0.88,0.8,0.6,19.1,0.79,0.01,-0,0.62
1697354731.55,-0.06,0.47,0.88,0.8,0.6,19.1,0.79,0.01,-0,0.62
1697354731.56,-0.06,0.47,0.88,0.8,0.6,19.1,0.79,0.01,-0,0.62
1697354731.57,-0.06,0.47,0.88,0.8,0.6,19.1,0.79,0.01,-0,0.62
1697354731.58,-0.06,0.47,0.88,0.8,0.6,19.1,0.79,0.01,-0,0.62
1697354731.59,-0.06,0.47,0.88,0.8,0.6,19.1,0.77,0.01,-0,0.64
1697354731.6,-0.06,0.52,1.12,1.9,1.2,26.3,0.77,0.01,-0,0.64
1697354731.61,0.08,0.43,0.99,3,0.6,27.1,0.77,0.01,-0,0.64
1697354731.62,0.05,0.36,0.78,1.3,0,27.6,0.77,0.01,-0,0.64
1697354731.63,-0.01,0.36,1.23,-0.6,-0.5,27.9,0.76,0.01,-0,0.64
1697354731.64,-0.03,0.34,1.2,-1.5,-1,27.8,0.76,0.01,-0,0.65
1697354731.65,0.03,0.45,0.78,-1.5,-1.1,28,0.76,0.01,-0,0.65
1697354731.66,-0.12,0.43,0.87,-0.7,-0.9,27.9,0.76,0.01,-0,0.65
1697354731.67,-0.06,0.45,1.23,0,-0.7,27.6,0.76,0.01,-0,0.65
1697354731.68,0.07,0.4,1.03,0,-0.4,27.5,0.76,0.01,-0,0.65
1697354731.69,-0.11,0.42,0.85,0.2,-0.1,27.4,0.75,0.01,-0,0.66
1697354731.7,-0.05,0.48,1.13,0.5,-0.2,27.5,0.75,0.01,-0,0.66
1697354731.71,0.03,0.46,0.5,0.7,-0.1,27.7,0.75,0.01,-0,0.66
1697354731.72,-0.03,0.49,1.15,0.2,0,28.2,0.75,0.01,-0,0.66
1697354731.73,-0.02,0.44,1.01,-0.3,0.5,28.9,0.75,0.01,-0,0.66
1697354731.74,-0.02,0.52,1.14,0.1,0.7,29.8,0.75,0.01,-0,0.67
1697354731.75,-0.13,0.49,0.71,1,0.9,30.8,0.74,0.01,-0,0.67
1697354731.76,0.03,0.55,0.88,0.8,0.9,31.8,0.74,0.01,-0,0.67
1697354731.77,-0.02,0.53,0.63,0.3,0.3,32.8,0.74,0.01,-0,0.67
1697354731.78,-0.03,0.57,0.86,-0.8,-0.1,34.1,0.74,0.01,-0,0.67
1697354731.79,-0.13,0.62,1.24,-0.3,-0.2,34.9,0.74,0.01,-0,0.68
1697354731.8,-0.13,0.62,1.24,-0.3,-0.2,34.9,0.74,0.01,-0,0.68
1697354731.81,-0.01,0.49,0.98,1,0.5,35.2,0.73,0.01,-0,0.68
1697354731.82,-0.06,0.46,1.06,1,0.5,35.2,0.73,0.01,-0,0.68
1697354731.83,-0.02,0.39,1.13,0.3,0.9,35.1,0.73,0.01,-0,0.68
1697354731.84,-0.02,0.39,1.13,-0.3,1,34.7,0.73,0.01,-0,0.69
1697354731.85,-0,0.46,0.96,-0.2,0.9,34.4,0.73,0.01,-0,0.69
1697354731.86,-0.14,0.54,1.19,0,0.4,34.1,0.72,0.01,-0,0.69
1697354731.87,-0.06,0.47,1.25,-0.6,0,34.1,0.72,0.01,-0,0.69
1697354731.88,-0.05,0.48,0.85,-0.8,-0.6,33.9,0.72,0.01,-0,0.7
1697354731.89,0,0.57,1.18,-0.9,-1.5,34.1,0.72,0.01,-0,0.7
1697354731.9,-0.11,0.55,1.48,-0.3,-2,34.5,0.71,0.01,-0,0.7
1697354731.91,0.02,0.52,0.59,0.5,-2.1,34.5,0.71,0.01,-0,0.7
1697354731.92,-0.13,0.49,1.17,0.2,-2,34.7,0.71,0.01,-0,0.7
1697354731.93,-0.01,0.46,1.11,-0.2,-1.7,34.6,0.71,0.01,-0,0.71
1697354731.94,-0.12,0.43,0.72,-0.4,-1.6,34.5,0.71,0.01,-0.01,0.71
1697354731.95,0,0.44,1.28,-0.5,-0.8,34.5,0.71,0.01,-0.01,0.71
1697354731.96,-0.07,0.35,0.93,-0.8,-0.1,34.1,0.7,0.01,-0.01,0.71
1697354731.97,0.09,0.48,0.68,-1,0.3,34.1,0.7,0.01,-0.01,0.72
1697354731.98,-0.14,0.45,1.05,-1.5,0.6,34.1,0.7,0.01,-0.01,0.72
1697354731.99,-0.14,0.45,1.05,-1.5,0.6,34.1,0.7,0.01,-0.01,0.72
1697354732,-0.14,0.45,1.05,-1.5,0.6,34.1,0.7,0.01,-0.01,0.72
1697354732.01,-0.14,0.45,1.05,-1.5,0.6,34.1,0.7,0.01,-0.01,0.72
1697354732.02,-0.14,0.45,1.05,-1.5,0.6,34.1,0.7,0.01,-0.01,0.72
1697354732.03,-0.14,0.45,1.05,-1.5,0.6,34.1,0.7,0.01,-0.01,0.72
1697354732.04,-0.14,0.45,1.05,-1.5,0.6,34.1,0.7,0.01,-0.01,0.72
1697354732.05,-0.14,0.45,1.05,-1.5,0.6,34.1,0.7,0.01,-0.01,0.72
1697354732.06,-0.14,0.45,1.05,-1.5,0.6,34.1,0.7,0.01,-0.01,0.72
1697354732.07,-0.14,0.45,1.05,-1.5,0.6,34.1,0.7,0.01,-0.01,0.72
1697354732.08,-0.14,0.45,1.05,-1.5,0.6,34.1,0.7,0.01,-0.01,0.72
1697354732.09,-0.14,0.45,1.05,-1.5,0.6,34.1,0.7,0.01,-0.01,0.72
1697354732.1,-0.14,0.45,1.05,-1.5,0.6,34.1,0.7,0.01,-0.01,0.72
1697354732.11,-0.14,0.45,1.05,-1.5,0.6,34.1,0.7,0.01,-0.01,0.72
1697354732.12,-0.03,0.42,0.66,-0.4,-0.6,33.9,0.67,0.01,-0.01,0.74
1697354732.13,0.06,0.49,1.24,-0.3,-0.5,33.4,0.67,0.01,-0.01,0.75
1697354732.14,0.03,0.34,0.73,0,-0.2,32.9,0.66,0.01,-0.01,0.75
1697354732.15,0.06,0.38,0.7,0.6,0,32.2,0.66,0.01,-0.01,0.75
1697354732.16,0.01,0.46,1.14,1.6,-0.4,31.8,0.66,0.01,-0.01,0.75
1697354732.17,0.04,0.36,0.95,2.2,-0.5,31.3,0.66,0.01,-0.01,0.75
1697354732.18,-0.02,0.25,1.01,1.8,-0.5,30.7,0.65,0.01,-0.01,0.76
1697354732.19,-0.02,0.35,0.71,0.2,-0.5,30.3,0.65,0.01,-0.01,0.76
1697354732.2,-0.03,0.28,1.18,-1.5,-0.3,29.6,0.65,0.01,-0.01,0.76
1697354732.21,0.02,0.28,1.21,-4.5,-1,29.2,0.65,0.01,-0.01,0.76
1697354732.22,-0.04,0.37,0.84,-4.5,-1,29.2,0.65,0.01,-0.01,0.76
1697354732.23,0.01,0.45,1.05,-3.8,-0.9,28.9,0.64,0.01,-0.01,0.76
1697354732.24,0.04,0.35,1.08,-1.3,-0.3,28.1,0.64,0.01,-0.01,0.77
1697354732.25,0.03,0.13,0.85,1.4,0.2,26.8,0.64,0.01,-0.01,0.77
1697354732.26,-0.07,0.02,1.21,2,0.4,25,0.64,0.01,-0.01,0.77
1697354732.27,0.03,-0.1,1.16,-2.9,-0.5,22.9,0.64,0.01,-0.01,0.77
1697354732.28,0.07,0.28,0.79,-6.7,-1.5,21.1,0.64,0.01,-0.01,0.77
1697354732.29,0.03,0.43,0.79,-5.9,-2.2,20,0.63,0.01,-0.01,0.77
1697354732.3,-0.06,0.33,1.27,-0.8,-2.4,19.7,0.63,0.01,-0.01,0.77
1697354732.31,0.04,0.13,0.54,3.9,-2.8,19.3,0.63,0.01,-0.01,0.77
1697354732.32,-0.21,-0.07,1.33,4.7,-2.8,18.8,0.63,0.01,-0.01,0.78
1697354732.33,0.13,-0.1,0.97,1.9,-2.6,18.3,0.63,0.01,-0.01,0.78
1697354732.34,0.01,0.05,0.9,-1.9,-2.5,17.7,0.63,0.01,-0.01,0.78
1697354732.35,-0.02,0.21,1.01,-3.6,-2.3,17.2,0.63,0.01,-0.01,0.78
1697354732.36,-0.07,0.29,0.89,-1.8,-1.9,16.6,0.63,0.01,-0.01,0.78
1697354732.37,-0.08,0.11,1.26,1.5,-1.3,16.1,0.62,0.01,-0.01,0.78
1697354732.38,0,-0.15,0.9,3.7,-0.3,15.5,0.62,0.01,-0.01,0.78
1697354732.39,-0.15,-0.15,1.07,1.4,1.2,13.9,0.62,0.01,-0.01,0.78
1697354732.4,0.06,-0.11,1.01,1.4,1.2,13.9,0.62,0.01,-0.01,0.78
1697354732.41,-0.02,0.12,1.26,-3.6,1.9,9.5,0.62,0.01,-0.01,0.78
1697354732.42,0.02,0.17,0.75,-0.3,1.5,8.5,0.62,0.01,-0.01,0.78
1697354732.43,-0.04,0.13,1.31,2.1,0.6,7.8,0.62,0.01,-0.01,0.78
1697354732.44,0.05,-0.03,0.83,2.7,0,6.8,0.62,0.01,-0.01,0.78
1697354732.45,0.05,-0.03,0.83,2.7,0,6.8,0.62,0.01,-0.01,0.78
1697354732.46,-0.09,-0.15,1.5,2.4,-0.1,6.5,0.62,0.01,-0.01,0.79
1697354732.47,-0.09,-0.15,1.5,-0.6,-0.8,5.5,0.62,0.01,-0.01,0.79
1697354732.48,-0.01,-0.09,0.91,-4.3,-1.2,4.7,0.62,0.01,-0.01,0.79
1697354732.49,-0.01,0.15,0.6,-6.2,-1.1,4.3,0.62,0.01,-0.01,0.79
1697354732.5,0.01,0.18,1.17,-4.4,-0.7,4,0.62,0.01,-0.01,0.79
1697354732.51,0.03,0,0.83,-0.4,-0.6,3.9,0.62,0.01,-0.01,0.79
1697354732.52,0.03,0,0.83,-0.4,-0.6,3.9,0.62,0.01,-0.01,0.79
1697354732.53,0.03,0,0.83,-0.4,-0.6,3.9,0.62,0.01,-0.01,0.79
1697354732.54,0.03,0,0.83,-0.4,-0.6,3.9,0.62,0.01,-0.01,0.79
1697354732.55,0.03,0,0.83,-0.4,-0.6,3.9,0.62,0.01,-0.01,0.79
1697354732.56,0.03,0,0.83,-0.4,-0.6,3.9,0.62,0.01,-0.01,0.79
1697354732.57,0.03,0,0.83,-0.4,-0.6,3.9,0.62,0.01,-0.01,0.79
1697354732.58,0.03,0,0.83,-0.4,-0.6,3.9,0.62,0.01,-0.01,0.79
1697354732.59,0.03,0,0.83,-0.4,-0.6,3.9,0.62,0.01,-0.01,0.79
1697354732.6,0.03,0,0.83,-0.4,-0.6,3.9,0.62,0.01,-0.01,0.79
1697354732.61,0.03,0,0.83,-0.4,-0.6,3.9,0.62,0.01,-0.01,0.79
1697354732.62,0.03,0,0.83,-0.4,-0.6,3.9,0.62,0.01,-0.01,0.79
1697354732.63,0.03,0,0.83,-0.4,-0.6,3.9,0.62,0.01,-0.01,0.79
1697354732.64,-0.11,-0.48,1.15,-0.6,0.8,-15.8,0.62,0.01,-0.01,0.78
1697354732.65,0.1,-0.46,0.72,-2,0.6,-17.1,0.62,0.01,-0.01,0.78
1697354732.66,0,-0.44,1.2,-3.4,0.2,-18.5,0.63,0.01,-0.01,0.78
1697354732.67,-0.06,-0.41,1.35,-3.7,0,-19.4,0.63,0.01,-0.01,0.78
1697354732.68,0.16,-0.31,0.41,-3.4,0.1,-20,0.63,0.01,-0.01,0.78
1697354732.69,-0.08,-0.33,1.18,-2.3,-0.3,-20.6,0.63,0.01,-0.01,0.78
1697354732.7,-0.03,-0.31,1.27,-2.3,-0.3,-20.6,0.63,0.01,-0.01,0.78
1697354732.71,0.03,-0.44,0.82,-1,-0.8,-21.8,0.63,0.01,-0.01,0.77
1697354732.72,0.03,-0.44,0.82,-1,-0.8,-21.8,0.63,0.01,-0.01,0.77
1697354732.73,-0.01,-0.43,1.22,-1.5,-0.2,-23.1,0.63,0.01,-0.01,0.77
1697354732.74,-0.01,-0.43,1.22,-1.5,-0.2,-23.1,0.64,0.01,-0.01,0.77
1697354732.75,-0.18,-0.55,1.39,-2.8,0.5,-25.2,0.64,0.01,-0.01,0.77
1697354732.76,-0.18,-0.55,1.39,-2.8,0.5,-25.2,0.64,0.01,-0.01,0.77
1697354732.77,0.06,-0.44,1.16,-2.7,1.1,-27.1,0.64,0.01,-0.01,0.77
1697354732.78,-0.06,-0.53,0.95,-2.7,1.1,-27.1,0.64,0.01,-0.01,0.77
1697354732.79,-0.05,-0.48,0.79,-1.8,0.2,-28,0.64,0.01,-0.01,0.76
1697354732.8,-0.05,-0.48,0.79,-1.8,0.1,-28.4,0.65,0.01,-0.01,0.76
1697354732.81,0.01,-0.47,0.71,-1.7,-1,-30.3,0.65,0.01,-0.01,0.76
1697354732.82,0.01,-0.47,0.71,-0.3,-1.4,-31.1,0.65,0.01,-0.01,0.76
1697354732.83,-0.09,-0.48,1.13,0.2,-1.5,-31.7,0.65,0.01,-0.01,0.76
1697354732.84,-0.17,-0.49,1.19,-0.1,-0.5,-32.4,0.66,0.01,-0.01,0.76
1697354732.85,-0,-0.54,0.74,-0.3,-0.5,-32.5,0.66,0.01,-0.01,0.75
1697354732.86,-0.07,-0.58,1.24,-1.2,0.4,-32.9,0.66,0.01,-0.01,0.75
1697354732.87,-0.05,-0.58,0.96,-1.7,0.7,-33.6,0.66,0.01,-0.01,0.75
1697354732.88,-0.02,-0.55,0.77,-1.8,0.7,-34.1,0.66,0.01,-0.01,0.75
1697354732.89,-0.21,-0.63,1.34,-1.9,1.1,-34.7,0.67,0.01,-0.01,0.74
1697354732.9,-0.01,-0.55,1.11,-2.3,0.7,-35.5,0.67,0.01,-0.01,0.74
1697354732.91,0.06,-0.67,0.97,-2.3,0.4,-35.9,0.67,0.01,-0.01,0.74
1697354732.92,-0.09,-0.65,1.09,-2.3,0,-36.8,0.67,0.01,-0.01,0.74
1697354732.93,-0.09,-0.49,1.05,-2.5,-0.6,-37.8,0.68,0.01,-0.01,0.74
1697354732.94,-0.01,-0.62,0.67,-2.5,-0.6,-37.8,0.68,0.01,-0.01,0.74
1697354732.95,-0.03,-0.6,0.99,-1.4,-0.8,-39.1,0.68,0.01,-0.01,0.73
1697354732.96,-0.11,-0.62,0.95,-0.8,-0.9,-39.2,0.68,0.01,-0.01,0.73
1697354732.97,-0.04,-0.59,0.77,-0.7,-0.7,-39.5,0.69,0.01,-0.02,0.73
1697354732.98,-0.05,-0.62,1.26,-0.2,-0.1,-39.7,0.69,0.01,-0.01,0.72
1697354732.99,-0.03,-0.61,0.64,-0.3,0.2,-39.9,0.69,0.01,-0.01,0.72
1697354733,-0.16,-0.5,1.22,-0.4,0.5,-40,0.69,0.01,-0.01,0.72
1697354733.01,-0.05,-0.55,1.01,0.4,0.9,-40,0.7,0.01,-0.01,0.72
1697354733.02,0.03,-0.62,0.82,0.4,0.9,-40,0.7,0.01,-0.01,0.72
1697354733.03,-0.06,-0.67,0.99,0.8,1.7,-39.6,0.7,0.01,-0.01,0.71
1697354733.04,-0.06,-0.67,0.99,0.8,1.7,-39.6,0.7,0.01,-0.01,0.71
1697354733.05,-0.06,-0.67,0.99,0.8,1.7,-39.6,0.7,0.01,-0.01,0.71
1697354733.06,-0.06,-0.67,0.99,0.8,1.7,-39.6,0.7,0.01,-0.01,0.71
1697354733.07,-0.06,-0.67,0.99,0.8,1.7,-39.6,0.7,0.01,-0.01,0.71
1697354733.08,-0.06,-0.67,0.99,0.8,1.7,-39.6,0.7,0.01,-0.01,0.71
1697354733.09,-0.06,-0.67,0.99,0.8,1.7,-39.6,0.7,0.01,-0.01,0.71
1697354733.1,-0.06,-0.67,0.99,0.8,1.7,-39.6,0.7,0.01,-0.01,0.71
1697354733.11,-0.06,-0.67,0.99,0.8,1.7,-39.6,0.7,0.01,-0.01,0.71
1697354733.12,-0.06,-0.67,0.99,0.8,1.7,-39.6,0.7,0.01,-0.01,0.71
1697354733.13,-0.06,-0.67,0.99,0.8,1.7,-39.6,0.7,0.01,-0.01,0.71
1697354733.14,-0.06,-0.67,0.99,0.8,1.7,-39.6,0.7,0.01,-0.01,0.71
1697354733.15,-0.06,-0.67,0.99,0.8,1.7,-39.6,0.7,0.01,-0.01,0.71
1697354733.16,-0.06,-0.67,0.99,0.8,1.7,-39.6,0.7,0.01,-0.01,0.71
1697354733.17,-0.06,-0.67,0.99,0.8,1.7,-39.6,0.7,0.01,-0.01,0.71
1697354733.18,-0.06,-0.67,0.99,0.8,1.7,-39.6,0.7,0.01,-0.01,0.71
1697354733.19,-0.06,-0.67,0.99,0.8,1.7,-39.6,0.7,0.01,-0.01,0.71
1697354733.2,-0.06,-0.67,0.99,0.8,1.7,-39.6,0.7,0.01,-0.01,0.71
1697354733.21,-0.06,-0.67,0.99,0.8,1.7,-39.6,0.7,0.01,-0.01,0.71
1697354733.22,-0.06,-0.67,0.99,0.8,1.7,-39.6,0.7,0.01,-0.01,0.71
1697354733.23,-0.06,-0.67,0.99,0.8,1.7,-39.6,0.7,0.01,-0.01,0.71
1697354733.24,-0.06,-0.67,0.99,0.8,1.7,-39.6,0.7,0.01,-0.01,0.71
1697354733.25,-0.06,-0.67,0.99,0.8,1.7,-39.6,0.7,0.01,-0.01,0.71
1697354733.26,-0.06,-0.67,0.99,0.8,1.7,-39.6,0.7,0.01,-0.01,0.71
1697354733.27,-0.06,-0.67,0.99,0.8,1.7,-39.6,0.7,0.01,-0.01,0.71
1697354733.28,-0.06,-0.67,0.99,0.8,1.7,-39.6,0.7,0.01,-0.01,0.71
1697354733.29,-0.06,-0.67,0.99,0.8,1.7,-39.6,0.7,0.01,-0.01,0.71
1697354733.3,-0.06,-0.67,0.99,0.8,1.7,-39.6,0.7,0.01,-0.01,0.71
1697354733.31,-0.06,-0.67,0.99,0.8,1.7,-39.6,0.7,0.01,-0.01,0.71
1697354733.32,-0.06,-0.67,0.99,0.8,1.7,-39.6,0.7,0.01,-0.01,0.71
1697354733.33,-0.06,-0.67,0.99,0.8,1.7,-39.6,0.7,0.01,-0.01,0.71
1697354733.34,-0.06,-0.67,0.99,0.8,1.7,-39.6,0.7,0.01,-0.01,0.71
1697354733.35,-0.06,-0.67,0.99,0.8,1.7,-39.6,0.7,0.01,-0.01,0.71
1697354733.36,-0.06,-0.67,0.99,0.8,1.7,-39.6,0.7,0.01,-0.01,0.71
1697354733.37,-0.06,-0.67,0.99,0.8,1.7,-39.6,0.7,0.01,-0.01,0.71
1697354733.38,-0.06,-0.67,0.99,0.8,1.7,-39.6,0.7,0.01,-0.01,0.71
1697354733.39,-0.06,-0.67,0.99,0.8,1.7,-39.6,0.7,0.01,-0.01,0.71
1697354733.4,-0.06,-0.67,0.99,0.8,1.7,-39.6,0.7,0.01,-0.01,0.71
1697354733.41,0.01,-0.63,1.05,-0.7,2.6,-40.4,0.79,0.01,-0.01,0.61
1697354733.42,-0.02,-0.57,0.71,-1.7,2.4,-40.1,0.79,0.01,-0.01,0.61
1697354733.43,-0.01,-0.45,1.03,-0.3,1.9,-40.1,0.79,0.01,-0.01,0.61
1697354733.44,-0.07,-0.49,1.32,-0.3,1.9,-40.1,0.8,0.01,-0.01,0.6
1697354733.45,0.04,-0.57,0.83,1.7,1.3,-40,0.8,0.01,-0.01,0.6
1697354733.46,0.04,-0.57,0.83,2.8,0.3,-40,0.8,0.01,-0.01,0.6
1697354733.47,-0.14,-0.72,0.91,2.2,0.2,-40.2,0.8,0.01,-0.01,0.6
1697354733.48,0.11,-0.61,1,0,-0.7,-40.5,0.81,0.01,-0.01,0.59
1697354733.49,-0.03,-0.56,0.96,-1.6,-1,-40.7,0.81,0.01,-0.01,0.59
1697354733.5,0.02,-0.56,0.94,-1.4,-1.8,-40.8,0.81,0.01,-0.01,0.59
1697354733.51,-0.18,-0.49,1.33,-0.3,-2.5,-41.2,0.81,0.01,-0.01,0.58
1697354733.52,-0.13,-0.47,1.28,0.1,-2.6,-41.1,0.81,0.01,-0.01,0.58
1697354733.53,0.01,-0.54,0.98,0.5,-2,-40.9,0.82,0.01,-0.01,0.58
1697354733.54,0.01,-0.57,0.81,1.3,-1.1,-41,0.82,0.01,-0.01,0.57
1697354733.55,-0.14,-0.6,0.72,0.9,0.2,-40.9,0.82,0.01,-0.01,0.57
1697354733.56,-0.01,-0.63,1.27,-0.6,1.9,-40.6,0.82,0.01,-0.01,0.57
1697354733.57,-0.06,-0.5,1.15,-1.8,3.2,-40.2,0.82,0.01,-0.01,0.57
1697354733.58,-0.1,-0.53,1,-1.8,3.7,-39.8,0.83,0.01,-0.01,0.56
1697354733.59,-0.03,-0.51,0.8,0,4.2,-39.3,0.83,0.01,-0.01,0.56
1697354733.6,-0.08,-0.57,0.79,1.7,4.2,-39.2,0.83,0.01,-0.01,0.56
1697354733.61,0.06,-0.57,0.97,2.2,3.3,-38.9,0.83,0.01,-0.01,0.55
1697354733.62,-0.07,-0.64,1.04,0.7,2.4,-38.7,0.83,0.01,-0.01,0.55
1697354733.63,0.05,-0.55,0.82,0,1.8,-38.8,0.84,0.01,-0.01,0.55
1697354733.64,0.04,-0.45,1,0.3,1,-38.7,0.84,0.01,-0.01,0.55
1697354733.65,-0.06,-0.49,0.88,1,0.3,-38.6,0.84,0.01,-0.01,0.54
1697354733.66,-0.04,-0.59,1.03,1.7,-0.2,-38.8,0.84,0.01,-0.01,0.54
1697354733.67,0.04,-0.6,0.63,1.9,-0.3,-39,0.84,0.01,-0.01,0.54
1697354733.68,-0.23,-0.55,1.32,1.9,0,-39.4,0.85,0.01,-0.01,0.53
1697354733.69,-0.08,-0.49,1.21,1.2,1.1,-40.1,0.85,0.01,-0.01,0.53
1697354733.7,-0.06,-0.54,1.28,0,1.9,-39.9,0.85,0.01,-0.01,0.53
1697354733.71,-0.04,-0.54,1.18,-0.7,2.1,-40,0.85,0.01,-0.01,0.52
1697354733.72,-0.02,-0.49,0.89,-1.7,2.4,-39.8,0.85,0.01,-0.01,0.52
1697354733.73,0.01,-0.4,1.01,-1.8,2.7,-39.4,0.85,0.01,-0.01,0.52
1697354733.74,-0.05,-0.37,0.75,-0.9,2.5,-38.8,0.85,0.01,-0.01,0.52
1697354733.75,0.05,-0.41,1.12,1.1,1.6,-37.9,0.86,0.01,-0.01,0.51
1697354733.76,0.06,-0.44,0.67,1.2,1.6,-37.7,0.86,0.01,-0.01,0.51
1697354733.77,0.06,-0.44,0.67,1.2,1.6,-37.7,0.86,0.01,-0.01,0.51
1697354733.78,0.06,-0.33,0.77,0.4,0.8,-35,0.86,0.01,-0.01,0.51
1697354733.79,0.06,-0.33,0.77,0.4,0.8,-35,0.86,0.01,-0.01,0.5
1697354733.8,0.06,-0.33,0.77,0.4,0.8,-35,0.86,0.01,-0.01,0.5
1697354733.81,0.06,-0.33,0.77,0.4,0.8,-35,0.86,0.01,-0.01,0.5
1697354733.82,0.06,-0.33,0.77,0.4,0.8,-35,0.86,0.01,-0.01,0.5
1697354733.83,0.06,-0.33,0.77,0.4,0.8,-35,0.86,0.01,-0.01,0.5
1697354733.84,0.06,-0.33,0.77,0.4,0.8,-35,0.86,0.01,-0.01,0.5
1697354733.85,0.06,-0.33,0.77,0.4,0.8,-35,0.86,0.01,-0.01,0.5
1697354733.86,0.06,-0.33,0.77,0.4,0.8,-35,0.86,0.01,-0.01,0.5
1697354733.87,0.06,-0.33,0.77,0.4,0.8,-35,0.86,0.01,-0.01,0.5
1697354733.88,0.06,-0.33,0.77,0.4,0.8,-35,0.86,0.01,-0.01,0.5
1697354733.89,0.06,-0.33,0.77,0.4,0.8,-35,0.86,0.01,-0.01,0.5
1697354733.9,0.06,-0.33,0.77,0.4,0.8,-35,0.86,0.01,-0.01,0.5
1697354733.91,0.06,-0.33,0.77,0.4,0.8,-35,0.86,0.01,-0.01,0.5
1697354733.92,-0.01,-0.23,0.9,0.1,1,-24.1,0.88,0.01,-0,0.48
1697354733.93,0.01,-0.14,1.43,-1.7,0.6,-24,0.88,0.01,-0,0.47
1697354733.94,0.03,-0.08,1.01,-1.7,0.6,-24,0.88,0.01,-0,0.47
1697354733.95,0.06,-0.05,0.75,-0.3,-0.1,-23.2,0.88,0.01,-0,0.47
1697354733.96,-0.02,-0.11,1.25,0.8,-0.4,-22.3,0.88,0.01,-0,0.47
1697354733.97,0.04,-0.2,0.85,0.8,-0.3,-21.1,0.88,0.01,-0,0.47
1697354733.98,0.1,-0.2,0.68,0.5,0.9,-19.5,0.89,0.01,-0,0.47
1697354733.99,-0.1,-0.28,1.43,0.5,0.9,-19.5,0.89,0.01,-0,0.47
1697354734,0.16,-0.17,0.39,0.6,1.7,-18,0.89,0.01,-0,0.46
1697354734.01,0.08,-0.11,1,2.6,1.4,-16.7,0.89,0.01,-0,0.46
1697354734.02,-0.03,-0.07,0.91,4.3,1,-15.6,0.89,0.01,-0,0.46
1697354734.03,0.12,-0.15,1.02,4.4,0.7,-14.1,0.89,0.01,-0,0.46
1697354734.04,0.05,-0.06,0.82,2.3,0,-12.5,0.89,0.01,-0,0.46
1697354734.05,0.04,0.04,1.09,0.8,-0.6,-11,0.89,0.01,-0,0.46
1697354734.06,0.1,0.12,1.01,0.7,-1.8,-8.8,0.89,0.01,-0,0.46
1697354734.07,0.05,0.17,0.88,2.3,-2.6,-7,0.89,0.01,-0,0.46
1697354734.08,0.05,0.14,0.79,3.2,-2.6,-6.1,0.89,0.01,-0,0.46
1697354734.09,-0.06,0.08,0.94,4.2,-2.6,-4.3,0.89,0.01,-0,0.45
1697354734.1,-0.07,0.05,1.47,4.1,-2.2,-3,0.89,0.01,-0,0.45
1697354734.11,-0.05,0.17,0.85,4.1,-2.2,-3,0.89,0.01,-0,0.45
1697354734.12,-0.02,0.22,0.98,0.5,-0.1,0.2,0.89,0.01,-0,0.45
1697354734.13,-0,0.31,1.21,0.5,-0.1,0.2,0.89,0.01,-0,0.45
1697354734.14,-0,0.31,1.21,1.5,0.1,1.5,0.89,0.01,-0,0.45
1697354734.15,0.03,0.23,0.69,2.2,0.5,2.2,0.89,0.01,-0,0.45
1697354734.16,-0.12,0.21,1.59,2.5,0.9,3.3,0.89,0.01,-0,0.45
1697354734.17,-0.04,0.32,0.96,2,0.7,4.5,0.89,0.01,-0,0.46
1697354734.18,0.09,0.33,0.66,1.7,0.7,5.8,0.89,0.01,-0,0.46
1697354734.19,-0.02,0.39,1.16,2.7,-0.3,7.1,0.89,0.01,-0,0.46
1697354734.2,0.05,0.4,0.96,3.3,-1.1,8.2,0.89,0.01,-0,0.46
1697354734.21,0.12,0.42,1,2.7,-1.7,10,0.89,0.01,-0,0.46
1697354734.22,-0.1,0.54,1.15,2.8,-2.2,11.6,0.89,0.01,-0,0.46
1697354734.23,0.04,0.4,0.84,3.4,-2.5,13.7,0.89,0.01,-0,0.46
1697354734.24,0.04,0.4,0.84,3.4,-2.5,13.7,0.89,0.01,-0,0.46
1697354734.25,0.04,0.4,0.84,3.4,-2.5,13.7,0.89,0.01,-0,0.46
1697354734.26,0.04,0.4,0.84,3.4,-2.5,13.7,0.89,0.01,-0,0.46
1697354734.27,0.04,0.4,0.84,3.4,-2.5,13.7,0.89,0.01,-0,0.46
1697354734.28,0.04,0.4,0.84,3.4,-2.5,13.7,0.89,0.01,-0,0.46
1697354734.29,0.04,0.4,0.84,3.4,-2.5,13.7,0.89,0.01,-0,0.46
1697354734.3,0.04,0.4,0.84,3.4,-2.5,13.7,0.89,0.01,-0,0.46
1697354734.31,0.04,0.4,0.84,3.4,-2.5,13.7,0.89,0.01,-0,0.46
1697354734.32,0.04,0.4,0.84,3.4,-2.5,13.7,0.89,0.01,-0,0.46
1697354734.33,0.04,0.4,0.84,3.4,-2.5,13.7,0.89,0.01,-0,0.46
1697354734.34,0.04,0.4,0.84,3.4,-2.5,13.7,0.89,0.01,-0,0.46
1697354734.35,0.04,0.4,0.84,3.4,-2.5,13.7,0.89,0.01,-0,0.46
1697354734.36,0.04,0.4,0.84,3.4,-2.5,13.7,0.89,0.01,-0,0.46
1697354734.37,0.04,0.4,0.84,3.4,-2.5,13.7,0.89,0.01,-0,0.46
1697354734.38,0.04,0.4,0.84,3.4,-2.5,13.7,0.89,0.01,-0,0.46
1697354734.39,-0.09,0.66,1.28,1.3,-0.2,37.4,0.87,0.02,-0,0.5
1697354734.4,-0.04,0.7,1.05,0.3,0.3,38.8,0.87,0.02,-0,0.5
1697354734.41,-0.06,0.67,0.73,0.3,0.2,39.5,0.86,0.02,-0,0.5
1697354734.42,-0.08,0.6,1.19,1,0.3,40.3,0.86,0.02,-0,0.5
1697354734.43,-0.11,0.55,1.23,0.9,0.3,41,0.86,0.02,-0,0.51
1697354734.44,-0.06,0.55,0.97,-1.8,0,41.5,0.86,0.02,-0,0.51
1697354734.45,-0.09,0.67,1.39,-4.5,-0.6,41.5,0.86,0.02,-0,0.51
1697354734.46,0.09,0.68,0.4,-4.2,-1.2,41.4,0.86,0.02,-0,0.52
1697354734.47,-0.07,0.67,0.84,-2.2,-1.5,41.6,0.85,0.02,-0,0.52
1697354734.48,-0.14,0.58,1.21,0.4,-1.3,41.4,0.85,0.02,-0,0.52
1697354734.49,-0.14,0.58,1.21,0.4,-1.3,41.4,0.85,0.02,-0,0.53
1697354734.5,-0.06,0.36,0.58,0.8,-0.1,39.8,0.85,0.02,-0,0.53
1697354734.51,-0.1,0.46,0.85,-1.3,0.5,38.9,0.85,0.02,-0,0.53
1697354734.52,-0.1,0.46,0.85,-1.3,0.5,38.9,0.84,0.02,-0,0.54
1697354734.53,-0,0.65,1.19,-3.3,0.8,37.8,0.84,0.02,-0,0.54
1697354734.54,0.08,0.65,0.75,-3.3,0.8,37.8,0.84,0.02,-0,0.54
1697354734.55,0.08,0.65,0.75,-2.1,0.7,38,0.84,0.02,-0,0.54
1697354734.56,-0.09,0.64,1.25,0,0.1,38.1,0.84,0.02,-0,0.55
1697354734.57,-0.08,0.53,1.31,1.9,0.4,38.2,0.83,0.02,-0,0.55
1697354734.58,0.03,0.39,0.94,1.4,0.7,37.8,0.83,0.02,-0,0.55
1697354734.59,0.07,0.43,1.08,-0.7,0.9,37.8,0.83,0.02,-0,0.56
1697354734.6,-0.03,0.32,0.92,-1.9,1,37.8,0.83,0.02,-0,0.56
1697354734.61,0.07,0.57,0.72,-2.7,1.1,37.6,0.83,0.02,-0,0.56
1697354734.62,-0.04,0.54,0.9,-1.6,1.7,37.6,0.83,0.02,-0,0.56
1697354734.63,-0.08,0.51,0.99,0.5,2.2,37.9,0.82,0.02,-0,0.57
1697354734.64,-0.03,0.42,1.19,2.1,2.4,37.8,0.82,0.02,-0,0.57
1697354734.65,0.05,0.48,0.65,1.6,2.3,37.7,0.82,0.02,-0,0.57
1697354734.66,0,0.48,0.9,0.3,2.4,37.8,0.82,0.02,-0,0.58
1697354734.67,-0.01,0.55,1.15,-0.4,1.5,37.5,0.82,0.02,-0,0.58
1697354734.68,0.03,0.58,0.95,0,0.8,37.4,0.81,0.02,-0,0.58
1697354734.69,-0.08,0.57,1.16,1.1,0.5,37.3,0.81,0.02,-0,0.58
1697354734.7,-0.01,0.5,1.12,1.4,0,37.4,0.81,0.02,-0,0.58
1697354734.71,-0.01,0.4,0.85,1.1,-0.8,36.9,0.81,0.02,-0,0.59
1697354734.72,-0.1,0.59,1.42,-0.9,-1.1,36.5,0.81,0.02,-0,0.59
1697354734.73,0.04,0.71,0.66,-2.4,-1.2,37,0.81,0.02,-0,0.59
1697354734.74,-0.14,0.86,1.07,-1.3,-0.7,37.5,0.8,0.02,-0,0.59
1697354734.75,-0.14,0.74,1.25,1.7,-0.7,38.5,0.8,0.02,-0,0.6
1697354734.76,0.06,0.6,1.08,4.1,-0.7,39.6,0.8,0.02,-0,0.6
1697354734.77,-0.03,0.55,0.86,2.9,-0.1,41,0.8,0.02,-0,0.6
1697354734.78,-0.07,0.68,0.88,0.4,0.2,42,0.8,0.02,-0,0.61
1697354734.79,-0.07,0.68,0.88,0.4,0.2,42,0.8,0.02,-0,0.61
1697354734.8,-0.07,0.68,0.88,0.4,0.2,42,0.8,0.02,-0,0.61
1697354734.81,-0.07,0.68,0.88,0.4,0.2,42,0.8,0.02,-0,0.61
1697354734.82,-0.07,0.68,0.88,0.4,0.2,42,0.8,0.02,-0,0.61
1697354734.83,-0.07,0.68,0.88,0.4,0.2,42,0.8,0.02,-0,0.61
1697354734.84,-0.07,0.68,0.88,0.4,0.2,42,0.8,0.02,-0,0.61
1697354734.85,-0.07,0.68,0.88,0.4,0.2,42,0.8,0.02,-0,0.61
