time,accel_x,accel_y,accel_z,gyro_x,gyro_y,gyro_z,quat_w,quat_x,quat_y,quat_z
1697353327.65,0.01,0.25,1.25,1.4,1,47.5,0.85,0.08,0,0.52
1697353327.66,0.01,0.25,1.25,1.4,1,47.5,0.85,0.08,0,0.52
1697353327.67,0.01,0.25,1.25,1.4,1,47.5,0.85,0.08,0,0.52
1697353327.68,0.01,0.25,1.25,1.4,1,47.5,0.85,0.08,0,0.52
1697353327.69,0.07,0.38,0.86,0.4,1.5,50.4,0.82,0.08,-0,0.57
1697353327.7,0.07,0.38,0.86,0.4,1.5,50.4,0.82,0.08,-0,0.57
1697353327.71,0.07,0.31,1.08,0,0.2,51.4,0.81,0.08,-0,0.57
1697353327.72,0.14,-0.03,0.78,-1.8,-1.1,50.5,0.81,0.08,-0,0.57
1697353327.73,0.14,-0.03,0.78,-1.8,-1.1,50.5,0.81,0.08,-0,0.58
1697353327.74,0.19,0.32,1.04,-4.4,-3.5,49,0.81,0.08,-0,0.58
1697353327.75,0.19,0.32,1.04,-4.4,-3.5,49,0.81,0.08,-0,0.59
1697353327.76,0.28,0.38,0.47,0.3,-2.9,47.7,0.8,0.08,-0,0.59
1697353327.77,-0.02,0.43,1.12,5.1,-1.9,47.6,0.8,0.08,-0.01,0.59
1697353327.78,-0.02,0.41,0.64,7.4,-0.1,48,0.8,0.08,-0.01,0.6
1697353327.79,0,0.3,0.88,7.1,1.6,48.4,0.8,0.08,-0.01,0.6
1697353327.8,-0.04,0.27,0.82,3.7,2.9,49.5,0.79,0.08,-0,0.6
1697353327.81,-0.07,0.28,1.16,-0.7,3.6,51,0.79,0.08,-0.01,0.61
1697353327.82,0.02,0.4,1.15,-1.7,3.6,51.4,0.79,0.08,-0.01,0.61
1697353327.83,0.1,0.45,1.18,-4.2,3,52.7,0.78,0.08,-0.01,0.61
1697353327.84,0.03,0.51,1.06,-2.4,0.6,54.5,0.78,0.08,-0.01,0.62
1697353327.85,0.1,0.51,0.95,0.3,-0.8,54.7,0.78,0.08,-0.01,0.62
1697353327.86,0.09,0.39,1.13,2.4,-2,54.3,0.78,0.08,-0.01,0.63
1697353327.87,0.08,0.3,0.83,3.2,-1.7,53.7,0.77,0.08,-0.01,0.63
1697353327.88,0.06,0.1,0.96,2.4,-0.8,51.9,0.77,0.08,-0.01,0.63
1697353327.89,0.12,0.08,0.56,1.9,-0.6,51.3,0.77,0.08,-0.01,0.63
1697353327.9,0,0.06,1.08,-0.7,0.4,49.5,0.77,0.08,-0.01,0.64
1697353327.91,0,0.22,1.17,-3.2,0.5,48.4,0.76,0.08,-0.01,0.64
1697353327.92,-0.01,0.4,1.04,-3.5,0.9,47.7,0.76,0.08,-0.01,0.65
1697353327.93,0.04,0.45,0.92,0.2,0.9,48,0.76,0.08,-0.01,0.65
1697353327.94,0.01,0.39,1.07,1.9,0.4,48.5,0.75,0.08,-0.01,0.65
1697353327.95,0.09,0.39,1.05,1.2,0,49.5,0.75,0.08,-0.01,0.66
1697353327.96,0.03,0.3,1.13,0,-0.5,50.5,0.75,0.08,-0.01,0.66
1697353327.97,0.03,0.26,1.04,-1.4,-1.1,51.4,0.74,0.08,-0.01,0.66
1697353327.98,-0.03,0.32,0.97,-2.1,-1.4,52,0.74,0.08,-0.01,0.66
1697353327.99,0.01,0.35,0.87,-1.1,-1.7,52.4,0.74,0.08,-0.01,0.67
1697353328,0.01,0.35,0.87,-1.1,-1.7,52.4,0.74,0.08,-0.01,0.67
1697353328.01,0.09,0.27,0.89,1.8,-1.4,51.7,0.73,0.08,-0.01,0.68
1697353328.02,0.04,0.28,1.06,3.3,-0.8,51.2,0.73,0.08,-0.01,0.68
1697353328.03,0.04,0.28,1.06,3.3,-0.8,51.2,0.73,0.08,-0.01,0.68
1697353328.04,-0.04,0.23,1.07,3.5,0.5,50.1,0.73,0.08,-0.01,0.68
1697353328.05,0.02,0.25,0.95,2.4,0.8,49.8,0.72,0.08,-0.01,0.69
1697353328.06,0,0.27,1.16,-0.1,1,49.7,0.72,0.08,-0.01,0.69
1697353328.07,0,0.27,1.16,-0.1,1,49.7,0.72,0.08,-0.01,0.69
1697353328.08,0,0.27,1.16,-0.1,1,49.7,0.72,0.08,-0.01,0.69
1697353328.09,0,0.27,1.16,-0.1,1,49.7,0.72,0.08,-0.01,0.69
1697353328.1,0,0.27,1.16,-0.1,1,49.7,0.72,0.08,-0.01,0.69
1697353328.11,0,0.27,1.16,-0.1,1,49.7,0.72,0.08,-0.01,0.69
1697353328.12,0,0.27,1.16,-0.1,1,49.7,0.72,0.08,-0.01,0.69
1697353328.13,0,0.27,1.16,-0.1,1,49.7,0.72,0.08,-0.01,0.69
1697353328.14,0,0.27,1.16,-0.1,1,49.7,0.72,0.08,-0.01,0.69
1697353328.15,0,0.27,1.16,-0.1,1,49.7,0.72,0.08,-0.01,0.69
1697353328.16,0,0.27,1.16,-0.1,1,49.7,0.72,0.08,-0.01,0.69
1697353328.17,0,0.27,1.16,-0.1,1,49.7,0.72,0.08,-0.01,0.69
1697353328.18,0,0.27,1.16,-0.1,1,49.7,0.72,0.08,-0.01,0.69
1697353328.19,0,0.27,1.16,-0.1,1,49.7,0.72,0.08,-0.01,0.69
1697353328.2,0.05,0.26,0.92,-2.8,1.6,47.5,0.68,0.08,-0.02,0.73
1697353328.21,0.03,0.25,1.16,-2.7,1.9,47,0.67,0.08,-0.02,0.74
1697353328.22,0.07,0.29,1.12,-1.3,1.8,46.7,0.67,0.08,-0.02,0.74
1697353328.23,0.11,0.22,0.78,1,0.8,46.4,0.67,0.08,-0.02,0.74
1697353328.24,0.12,0.19,1.04,2.5,-0.4,45.8,0.66,0.08,-0.02,0.74
1697353328.25,0.2,0.04,0.9,2.7,-0.9,45.5,0.66,0.08,-0.02,0.74
1697353328.26,0.11,0.06,1.07,0.3,-2.5,43.8,0.66,0.08,-0.02,0.75
1697353328.27,0.1,0.1,1.08,-1.5,-2.8,43.1,0.65,0.08,-0.02,0.75
1697353328.28,0.04,0.24,1.01,-2.6,-2.4,42.4,0.65,0.08,-0.02,0.75
1697353328.29,0.01,0.28,0.99,-2.5,-2.1,41.8,0.65,0.08,-0.02,0.75
1697353328.3,0.05,0.33,0.91,-1,-1.3,41.5,0.65,0.08,-0.02,0.76
1697353328.31,0.01,0.2,1.22,0.6,-0.2,41,0.65,0.08,-0.02,0.76
1697353328.32,0.15,0.13,0.8,1.8,0,40.1,0.64,0.08,-0.02,0.76
1697353328.33,0.11,-0.01,0.93,1.8,0,40.1,0.64,0.08,-0.02,0.76
1697353328.34,0.09,-0.06,1.08,-0.5,0.5,37.5,0.64,0.08,-0.02,0.77
1697353328.35,0.08,-0.03,0.85,-3.2,0.8,35.6,0.63,0.08,-0.02,0.77
1697353328.36,0.14,0.06,1.19,-3.8,1.1,34,0.63,0.08,-0.02,0.77
1697353328.37,0.17,0.12,0.93,-2.6,1.3,32.6,0.63,0.08,-0.02,0.77
1697353328.38,0.13,0.06,1.03,-2.6,1.3,32.6,0.63,0.08,-0.02,0.77
1697353328.39,0.16,-0.01,1.12,-0.4,1.1,31.2,0.62,0.08,-0.02,0.78
1697353328.4,0.12,-0.14,1.03,1.5,0,28.1,0.62,0.08,-0.02,0.78
1697353328.41,0.07,-0.1,1.08,1.5,0,28.1,0.62,0.08,-0.02,0.78
1697353328.42,0.11,-0.07,1.07,-0.1,-0.2,26.6,0.62,0.08,-0.02,0.78
1697353328.43,0.11,-0.07,1.07,-2.4,-0.2,25.2,0.62,0.08,-0.02,0.78
1697353328.44,0.04,0.01,1.01,-3.7,0.2,24.1,0.62,0.08,-0.02,0.78
1697353328.45,0.04,0.01,1.01,-3.2,0.9,22.9,0.61,0.08,-0.02,0.79
1697353328.46,0.09,-0.04,0.97,-2.1,1.3,22,0.61,0.08,-0.02,0.79
1697353328.47,0.17,-0.07,0.98,-1.3,1.8,20.4,0.61,0.08,-0.02,0.79
1697353328.48,0.2,-0.1,0.95,-0.9,1.8,18.9,0.61,0.08,-0.02,0.79
1697353328.49,0.19,-0.14,1.06,-1.3,1.9,17.2,0.61,0.08,-0.02,0.79
1697353328.5,0.28,-0.16,0.94,-1.9,1.9,15.2,0.61,0.08,-0.02,0.79
1697353328.51,0.21,-0.1,1.1,-1.8,1.7,13.3,0.61,0.07,-0.02,0.79
1697353328.52,0.19,-0.08,1.1,-1.7,1.3,11.5,0.61,0.07,-0.02,0.79
1697353328.53,0.2,-0.23,0.99,-1.2,0.8,9.9,0.61,0.07,-0.03,0.79
1697353328.54,0.15,-0.23,1.15,-1.8,0.5,8.2,0.6,0.07,-0.03,0.79
1697353328.55,0.18,-0.16,0.91,-1.9,0.2,6.8,0.6,0.07,-0.03,0.79
1697353328.56,0.15,-0.29,0.97,-2,-0.1,5.5,0.6,0.07,-0.03,0.79
1697353328.57,0.11,-0.2,1.15,-2,-0.6,3.8,0.6,0.07,-0.03,0.79
1697353328.58,0.18,-0.26,1.06,-2.2,-0.9,2.2,0.6,0.07,-0.03,0.79
1697353328.59,0.18,-0.26,1.06,-2.2,-0.9,2.2,0.6,0.07,-0.03,0.79
1697353328.6,0.18,-0.26,1.06,-2.2,-0.9,2.2,0.6,0.07,-0.03,0.79
1697353328.61,0.18,-0.26,1.06,-2.2,-0.9,2.2,0.6,0.07,-0.03,0.79
1697353328.62,0.18,-0.26,1.06,-2.2,-0.9,2.2,0.6,0.07,-0.03,0.79
1697353328.63,0.18,-0.26,1.06,-2.2,-0.9,2.2,0.6,0.07,-0.03,0.79
1697353328.64,0.18,-0.26,1.06,-2.2,-0.9,2.2,0.6,0.07,-0.03,0.79
1697353328.65,0.18,-0.26,1.06,-2.2,-0.9,2.2,0.6,0.07,-0.03,0.79
1697353328.66,0.18,-0.26,1.06,-2.2,-0.9,2.2,0.6,0.07,-0.03,0.79
1697353328.67,0.18,-0.26,1.06,-2.2,-0.9,2.2,0.6,0.07,-0.03,0.79
1697353328.68,0.18,-0.26,1.06,-2.2,-0.9,2.2,0.6,0.07,-0.03,0.79
1697353328.69,0.18,-0.26,1.06,-2.2,-0.9,2.2,0.6,0.07,-0.03,0.79
1697353328.7,0.18,-0.26,1.06,-2.2,-0.9,2.2,0.6,0.07,-0.03,0.79
1697353328.71,0.18,-0.26,1.06,-2.2,-0.9,2.2,0.6,0.07,-0.03,0.79
1697353328.72,0.2,-0.42,1.11,1,0.6,-16.1,0.61,0.07,-0.03,0.79
1697353328.73,0.16,-0.37,1.14,-0.3,0.2,-17.4,0.61,0.07,-0.03,0.79
1697353328.74,0.17,-0.35,0.95,-1.4,-0.2,-18.8,0.61,0.07,-0.03,0.79
1697353328.75,0.25,-0.45,0.86,-0.9,-1,-19.9,0.61,0.07,-0.03,0.79
1697353328.76,0.15,-0.19,0.81,0.3,-1.6,-21.7,0.61,0.07,-0.03,0.79
1697353328.77,0.14,-0.52,0.73,0.3,-1.6,-22.8,0.62,0.07,-0.03,0.78
1697353328.78,0.08,-0.36,0.87,1.1,-1.4,-24.7,0.62,0.07,-0.03,0.78
1697353328.79,0.23,-0.38,0.42,-0.2,-0.7,-26,0.62,0.07,-0.03,0.78
1697353328.8,0.12,-0.36,0.93,-0.9,-0.4,-27.2,0.62,0.07,-0.03,0.78
1697353328.81,0.12,-0.36,0.91,-0.9,-0.4,-27.2,0.62,0.07,-0.03,0.78
1697353328.82,0.09,-0.34,0.96,-0.9,0,-29,0.62,0.07,-0.03,0.78
1697353328.83,0.09,-0.42,1.13,0.1,-0.1,-29.7,0.63,0.07,-0.03,0.78
1697353328.84,0.11,-0.45,1.15,0.3,0,-30.6,0.63,0.07,-0.03,0.77
1697353328.85,0.11,-0.59,1.21,0,-0.7,-31,0.63,0.07,-0.03,0.77
1697353328.86,0.09,-0.41,0.9,-1.5,-1.3,-31.8,0.63,0.07,-0.03,0.77
1697353328.87,0.11,-0.3,0.76,-1.8,-1.4,-32,0.64,0.07,-0.03,0.77
1697353328.88,0.01,-0.38,1.34,-1.8,-1.4,-32,0.64,0.07,-0.03,0.77
1697353328.89,0.08,-0.39,0.86,2,0.4,-32.3,0.64,0.07,-0.03,0.76
1697353328.9,0.19,-0.56,0.61,2,0.4,-32.3,0.64,0.07,-0.03,0.76
1697353328.91,0.04,-0.64,0.91,0.1,1.5,-33.6,0.64,0.07,-0.03,0.76
1697353328.92,0.04,-0.64,0.91,0.1,1.5,-33.6,0.64,0.07,-0.03,0.76
1697353328.93,0.09,-0.36,1.02,-2.9,2.5,-34.2,0.65,0.07,-0.03,0.76
1697353328.94,0.08,-0.34,1.04,-3.5,2.7,-34.4,0.65,0.07,-0.03,0.75
1697353328.95,0.15,-0.29,0.9,-1.2,2.3,-35.2,0.65,0.07,-0.03,0.75
1697353328.96,0.08,-0.48,1.06,1.1,1.9,-35.7,0.66,0.07,-0.03,0.75
1697353328.97,0.05,-0.52,1.26,2.2,0.7,-36.2,0.66,0.07,-0.03,0.75
1697353328.98,0.11,-0.55,1.11,1.4,-0.1,-37.3,0.66,0.07,-0.03,0.75
1697353328.99,0.09,-0.38,1.28,-0.6,-1,-38,0.67,0.07,-0.03,0.74
1697353329,0.14,-0.33,1.23,-1.5,-2.3,-38.7,0.67,0.07,-0.03,0.74
1697353329.01,0.13,-0.29,0.61,-0.1,-3.1,-38.8,0.67,0.07,-0.03,0.74
1697353329.02,0.14,-0.44,0.68,1.2,-3.1,-38.7,0.67,0.07,-0.03,0.74
1697353329.03,0.14,-0.44,0.68,2.3,-2.6,-38.5,0.67,0.07,-0.03,0.74
1697353329.04,0.09,-0.56,1.22,1.5,-1.9,-38.2,0.68,0.07,-0.03,0.73
1697353329.05,0.09,-0.56,1.22,-0.5,-1.2,-38,0.68,0.07,-0.03,0.73
1697353329.06,0.07,-0.4,1.07,-2.1,-0.5,-38.2,0.68,0.07,-0.03,0.73
1697353329.07,0.08,-0.36,0.95,-2.9,-0.1,-38.5,0.68,0.07,-0.03,0.73
1697353329.08,0.08,-0.36,0.95,-2.2,0.3,-39,0.68,0.07,-0.03,0.72
1697353329.09,0.07,-0.38,0.92,-0.8,0.6,-39.5,0.69,0.07,-0.03,0.72
1697353329.1,0.07,-0.38,0.92,0.8,0.5,-40.2,0.69,0.07,-0.03,0.72
1697353329.11,0.07,-0.4,0.8,0.8,0.5,-40.2,0.69,0.07,-0.03,0.72
1697353329.12,0.07,-0.4,0.8,0.8,0.5,-40.2,0.69,0.07,-0.03,0.72
1697353329.13,0.07,-0.4,0.8,0.8,0.5,-40.2,0.69,0.07,-0.03,0.72
1697353329.14,0.07,-0.4,0.8,0.8,0.5,-40.2,0.69,0.07,-0.03,0.72
1697353329.15,0.07,-0.4,0.8,0.8,0.5,-40.2,0.69,0.07,-0.03,0.72
1697353329.16,0.07,-0.4,0.8,0.8,0.5,-40.2,0.69,0.07,-0.03,0.72
1697353329.17,0.07,-0.4,0.8,0.8,0.5,-40.2,0.69,0.07,-0.03,0.72
1697353329.18,0.07,-0.4,0.8,0.8,0.5,-40.2,0.69,0.07,-0.03,0.72
1697353329.19,0.07,-0.4,0.8,0.8,0.5,-40.2,0.69,0.07,-0.03,0.72
1697353329.2,0.07,-0.4,0.8,0.8,0.5,-40.2,0.69,0.07,-0.03,0.72
1697353329.21,0.07,-0.4,0.8,0.8,0.5,-40.2,0.69,0.07,-0.03,0.72
1697353329.22,0.07,-0.4,0.8,0.8,0.5,-40.2,0.69,0.07,-0.03,0.72
1697353329.23,0.07,-0.4,0.8,0.8,0.5,-40.2,0.69,0.07,-0.03,0.72
1697353329.24,0.07,-0.55,0.73,0.6,-0.5,-41.6,0.73,0.07,-0.02,0.68
1697353329.25,0.09,-0.54,1.02,1.5,-0.6,-41.8,0.73,0.07,-0.02,0.68
1697353329.26,0.06,-0.56,1.23,0.9,-0.6,-41.9,0.73,0.07,-0.02,0.68
1697353329.27,0.06,-0.4,1.46,0,-0.5,-41.9,0.73,0.07,-0.02,0.68
1697353329.28,0.11,-0.41,1.16,-0.3,-0.4,-42.2,0.74,0.07,-0.02,0.67
1697353329.29,0.1,-0.41,0.99,0.4,-0.6,-42.2,0.74,0.07,-0.02,0.67
1697353329.3,0.01,-0.49,1.02,1.4,-0.6,-42.5,0.74,0.07,-0.02,0.67
1697353329.31,0.04,-0.48,0.85,1.2,-0.2,-42.8,0.74,0.07,-0.02,0.66
1697353329.32,0.08,-0.36,0.8,-0.1,-0.3,-43.3,0.74,0.07,-0.02,0.66
1697353329.33,0.04,-0.38,1.16,-1.8,0,-43.7,0.75,0.07,-0.02,0.66
1697353329.34,0.06,-0.39,1.39,-1.5,-0.2,-43.7,0.75,0.07,-0.02,0.66
1697353329.35,0.12,-0.48,1.39,-0.3,-0.8,-43.9,0.75,0.07,-0.02,0.65
1697353329.36,0.17,-0.59,0.75,0.6,-1.4,-43.8,0.76,0.07,-0.02,0.65
1697353329.37,0.06,-0.47,0.61,-0.3,-1.8,-44.1,0.76,0.08,-0.02,0.65
1697353329.38,0.06,-0.46,1.21,-2.4,-1.3,-44,0.76,0.07,-0.02,0.64
1697353329.39,0.1,-0.3,1.05,-4,-0.9,-43.6,0.76,0.07,-0.02,0.64
1697353329.4,0.09,-0.25,0.88,-3.7,-0.8,-43.4,0.77,0.07,-0.02,0.64
1697353329.41,0.01,-0.45,0.73,-1.2,-0.2,-43,0.77,0.07,-0.02,0.63
1697353329.42,0.01,-0.57,0.71,1.8,0.5,-42.7,0.77,0.07,-0.02,0.63
1697353329.43,0.06,-0.65,1.08,2.7,1.6,-42.9,0.77,0.08,-0.02,0.63
1697353329.44,0.08,-0.58,1.18,0.1,2.5,-42.9,0.77,0.08,-0.02,0.63
1697353329.45,0.17,-0.47,1.28,-2.8,2.4,-43.2,0.78,0.07,-0.02,0.63
1697353329.46,0.09,-0.38,0.8,-4,1.8,-43.7,0.78,0.07,-0.02,0.62
1697353329.47,0.09,-0.38,0.8,-3.2,1.3,-44.3,0.78,0.07,-0.02,0.62
1697353329.48,0.13,-0.44,1.32,-1.5,0.9,-44.1,0.79,0.07,-0.02,0.61
1697353329.49,0.17,-0.49,1,0,0.4,-44.2,0.79,0.07,-0.02,0.61
1697353329.5,0.17,-0.49,1,0,0.4,-44.2,0.79,0.07,-0.02,0.61
1697353329.51,0.05,-0.55,0.85,-1.3,-0.3,-44.6,0.79,0.07,-0.02,0.61
1697353329.52,0.11,-0.47,1.33,-2.4,-0.4,-44.8,0.8,0.07,-0.02,0.6
1697353329.53,0.11,-0.47,1.33,-2.9,-0.4,-44.9,0.8,0.07,-0.02,0.6
1697353329.54,0.03,-0.47,0.72,-1.4,-0.3,-45,0.8,0.07,-0.02,0.59
1697353329.55,0.03,-0.47,0.72,-1.4,-0.3,-45,0.8,0.07,-0.02,0.59
1697353329.56,0.12,-0.55,1.02,0.6,0.2,-44.8,0.8,0.07,-0.02,0.59
1697353329.57,0.15,-0.56,1.28,2.4,0.5,-44.8,0.81,0.07,-0.02,0.59
1697353329.58,0.11,-0.53,1.02,2.7,0.5,-44.7,0.81,0.07,-0.02,0.58
1697353329.59,0.02,-0.57,1,1.9,0,-44.8,0.81,0.07,-0.01,0.58
1697353329.6,0.02,-0.53,1.17,1.2,0,-45,0.81,0.08,-0.01,0.58
1697353329.61,0.17,-0.53,1.11,1.4,-0.1,-44.9,0.82,0.08,-0.01,0.57
1697353329.62,0.12,-0.58,0.72,1.4,0.3,-45.1,0.82,0.08,-0.01,0.57
1697353329.63,0.12,-0.58,0.72,1.4,0.3,-45.1,0.82,0.08,-0.01,0.57
1697353329.64,0.12,-0.58,0.72,1.4,0.3,-45.1,0.82,0.08,-0.01,0.57
1697353329.65,0.12,-0.58,0.72,1.4,0.3,-45.1,0.82,0.08,-0.01,0.57
1697353329.66,0.12,-0.58,0.72,1.4,0.3,-45.1,0.82,0.08,-0.01,0.57
1697353329.67,0.12,-0.58,0.72,1.4,0.3,-45.1,0.82,0.08,-0.01,0.57
1697353329.68,0.12,-0.58,0.72,1.4,0.3,-45.1,0.82,0.08,-0.01,0.57
1697353329.69,0.12,-0.58,0.72,1.4,0.3,-45.1,0.82,0.08,-0.01,0.57
1697353329.7,0.12,-0.58,0.72,1.4,0.3,-45.1,0.82,0.08,-0.01,0.57
1697353329.71,0.12,-0.58,0.72,1.4,0.3,-45.1,0.82,0.08,-0.01,0.57
1697353329.72,0.12,-0.58,0.72,1.4,0.3,-45.1,0.82,0.08,-0.01,0.57
1697353329.73,0.12,-0.58,0.72,1.4,0.3,-45.1,0.82,0.08,-0.01,0.57
1697353329.74,0.12,-0.58,0.72,1.4,0.3,-45.1,0.82,0.08,-0.01,0.57
1697353329.75,0.12,-0.58,0.72,1.4,0.3,-45.1,0.82,0.08,-0.01,0.57
1697353329.76,0.12,-0.58,0.72,1.4,0.3,-45.1,0.82,0.08,-0.01,0.57
1697353329.77,0.12,-0.58,0.72,1.4,0.3,-45.1,0.82,0.08,-0.01,0.57
1697353329.78,0.12,-0.58,0.72,1.4,0.3,-45.1,0.82,0.08,-0.01,0.57
1697353329.79,0.12,-0.58,0.72,1.4,0.3,-45.1,0.82,0.08,-0.01,0.57
1697353329.8,0.12,-0.58,0.72,1.4,0.3,-45.1,0.82,0.08,-0.01,0.57
1697353329.81,0.12,-0.58,0.72,1.4,0.3,-45.1,0.82,0.08,-0.01,0.57
1697353329.82,0.12,-0.58,0.72,1.4,0.3,-45.1,0.82,0.08,-0.01,0.57
1697353329.83,0.12,-0.58,0.72,1.4,0.3,-45.1,0.82,0.08,-0.01,0.57
1697353329.84,0.12,-0.58,0.72,1.4,0.3,-45.1,0.82,0.08,-0.01,0.57
1697353329.85,0.12,-0.58,0.72,1.4,0.3,-45.1,0.82,0.08,-0.01,0.57
1697353329.86,0.12,-0.58,0.72,1.4,0.3,-45.1,0.82,0.08,-0.01,0.57
1697353329.87,0.12,-0.58,0.72,1.4,0.3,-45.1,0.82,0.08,-0.01,0.57
1697353329.88,0.12,-0.58,0.72,1.4,0.3,-45.1,0.82,0.08,-0.01,0.57
1697353329.89,0.12,-0.58,0.72,1.4,0.3,-45.1,0.82,0.08,-0.01,0.57
1697353329.9,0.12,-0.58,0.72,-1.3,-0.8,-47.3,0.82,0.08,-0.01,0.57
1697353329.91,0.15,-0.45,1.16,-2.6,-0.1,-46.8,0.88,0.07,-0,0.47
1697353329.92,0.23,-0.42,1.03,-2.1,0.8,-46.3,0.88,0.07,-0,0.47
1697353329.93,0.23,-0.42,1.03,-1.3,1,-45.6,0.88,0.07,-0,0.47
1697353329.94,0.13,-0.55,1.47,-0.8,0.3,-45.1,0.88,0.07,-0,0.46
1697353329.95,0.18,-0.5,0.74,-1.1,-0.2,-44.7,0.89,0.07,-0,0.46
1697353329.96,0.17,-0.54,0.93,-1.3,-0.5,-44.3,0.89,0.07,-0,0.45
1697353329.97,0.14,-0.47,1.46,-0.6,-0.6,-43.8,0.89,0.07,-0,0.45
1697353329.98,0.09,-0.5,0.76,0.1,-0.1,-43.4,0.89,0.07,-0,0.45
1697353329.99,0.23,-0.54,1.12,0.9,0.6,-42.8,0.89,0.07,-0,0.44
1697353330,0.09,-0.38,1.03,0.3,1.6,-42.3,0.89,0.07,-0,0.44
1697353330.01,0.1,-0.51,0.67,-0.1,2.3,-41.6,0.9,0.07,-0,0.44
1697353330.02,0.06,-0.35,1.39,0.6,2.9,-41.1,0.9,0.07,0,0.43
1697353330.03,0.21,-0.24,0.96,2.4,3.1,-40.6,0.9,0.07,0,0.43
1697353330.04,0.15,-0.49,1.28,6.2,2.3,-40,0.9,0.08,0,0.43
1697353330.05,0.1,-0.59,0.83,6.8,1.8,-39.9,0.9,0.08,0,0.43
1697353330.06,0.23,-0.58,1.14,3.9,1.1,-39.5,0.9,0.08,0,0.42
1697353330.07,0.33,-0.32,0.98,1.3,0.8,-39.1,0.91,0.08,0,0.42
1697353330.08,0.24,-0.45,1.04,-0.5,-0.1,-38.4,0.91,0.08,0,0.42
1697353330.09,0.3,-0.24,1.17,-1.4,-1,-37.5,0.91,0.08,0,0.41
1697353330.1,0.3,-0.24,1.17,-1.4,-1,-37.5,0.91,0.08,0,0.41
1697353330.11,0.34,-0.14,1.05,-0.4,-1.7,-35.7,0.91,0.08,0,0.41
1697353330.12,0.29,-0.3,1.08,-0.4,-1.7,-35.7,0.91,0.08,0,0.41
1697353330.13,0.21,-0.48,1.24,4.6,-4.2,-35.6,0.91,0.08,0,0.4
1697353330.14,0.01,-0.74,0.98,5.1,-5.2,-36.6,0.91,0.08,0,0.4
1697353330.15,0.14,-0.49,1.03,5.1,-5.2,-36.6,0.91,0.08,0,0.4
1697353330.16,0.14,-0.52,0.84,1.3,-4.9,-37.2,0.92,0.08,0,0.39
1697353330.17,0.19,-0.31,0.78,-6,-2.1,-37,0.92,0.08,0,0.39
1697353330.18,0.19,-0.31,0.78,-6,-2.1,-37,0.92,0.08,0,0.39
1697353330.19,0.24,-0.24,1.1,-2.7,0.8,-35.8,0.92,0.08,0,0.39
1697353330.2,0.24,-0.24,1.1,-2.7,0.8,-35.8,0.92,0.08,0,0.38
1697353330.21,0.18,-0.48,1.34,2.2,2.6,-34.8,0.92,0.08,0,0.38
1697353330.22,0.18,-0.48,1.34,2.2,2.6,-34.8,0.92,0.08,0,0.38
1697353330.23,0.12,-0.65,0.67,1.4,2.6,-35.2,0.92,0.08,0,0.37
1697353330.24,0.1,-0.52,1.35,0,3,-35.5,0.93,0.08,0.01,0.37
1697353330.25,0.21,-0.52,0.72,-0.1,3.3,-35.7,0.93,0.08,0.01,0.37
1697353330.26,0.24,-0.54,0.65,0.2,3.2,-35.8,0.93,0.08,0.01,0.36
1697353330.27,0.24,-0.54,0.65,0.1,2.6,-35.9,0.93,0.08,0.01,0.36
1697353330.28,0.16,-0.39,1.1,0.4,1.9,-36.3,0.93,0.08,0.01,0.36
1697353330.29,0.21,-0.42,0.98,1.6,1.1,-36.3,0.93,0.08,0.01,0.36
1697353330.3,-0.01,-0.45,1.08,4.9,1,-35.9,0.93,0.08,0.01,0.35
1697353330.31,0.02,-0.5,1.15,6.3,2,-35.8,0.93,0.08,0.01,0.35
1697353330.32,0.02,-0.5,1.15,6.3,2,-35.8,0.93,0.08,0.01,0.35
1697353330.33,0.02,-0.5,1.15,6.3,2,-35.8,0.93,0.08,0.01,0.35
1697353330.34,0.02,-0.5,1.15,6.3,2,-35.8,0.93,0.08,0.01,0.35
1697353330.35,0.02,-0.5,1.15,6.3,2,-35.8,0.93,0.08,0.01,0.35
1697353330.36,0.02,-0.5,1.15,6.3,2,-35.8,0.93,0.08,0.01,0.35
1697353330.37,0.02,-0.5,1.15,6.3,2,-35.8,0.93,0.08,0.01,0.35
1697353330.38,0.02,-0.5,1.15,6.3,2,-35.8,0.93,0.08,0.01,0.35
1697353330.39,0.02,-0.5,1.15,6.3,2,-35.8,0.93,0.08,0.01,0.35
1697353330.4,0.02,-0.5,1.15,6.3,2,-35.8,0.93,0.08,0.01,0.35
1697353330.41,0.02,-0.5,1.15,6.3,2,-35.8,0.93,0.08,0.01,0.35
1697353330.42,0.02,-0.5,1.15,6.3,2,-35.8,0.93,0.08,0.01,0.35
1697353330.43,0.02,-0.5,1.15,6.3,2,-35.8,0.93,0.08,0.01,0.35
1697353330.44,0.39,-0.34,1.07,2.6,-6.1,-34.9,0.95,0.08,0.01,0.31
1697353330.45,0.31,-0.52,1.01,3.2,-6,-34.6,0.95,0.08,0.01,0.31
1697353330.46,0.25,-0.31,1.28,2.6,-4.9,-34.3,0.95,0.08,0.01,0.3
1697353330.47,0.21,-0.6,1.09,1.7,-0.7,-33.9,0.95,0.08,0.01,0.3
1697353330.48,0.12,-0.27,0.96,0.9,1.6,-33.6,0.95,0.08,0.02,0.3
1697353330.49,-0.11,-0.39,1.54,2.2,3.3,-34.3,0.95,0.08,0.02,0.3
1697353330.5,-0.11,-0.39,1.54,2.2,3.3,-34.3,0.95,0.08,0.02,0.3
1697353330.51,0.1,-0.28,1.04,2.1,4.5,-33.9,0.95,0.08,0.02,0.29
1697353330.52,0.21,-0.31,0.95,1.3,4.1,-33,0.95,0.08,0.02,0.29
1697353330.53,0.2,-0.29,0.95,0,2.7,-31.5,0.96,0.08,0.02,0.28
1697353330.54,0.29,-0.24,0.98,-1.2,0.9,-29.2,0.96,0.08,0.02,0.28
1697353330.55,0.42,-0.25,1.06,-1.2,0.9,-29.2,0.96,0.08,0.02,0.28
1697353330.56,0.36,-0.16,0.96,-1.3,-3.1,-24.8,0.96,0.08,0.02,0.28
1697353330.57,0.28,-0.36,0.9,-0.6,-4.1,-23.3,0.96,0.08,0.02,0.28
1697353330.58,0.28,-0.36,0.9,-0.6,-4.1,-23.3,0.96,0.08,0.02,0.28
1697353330.59,0.12,-0.26,0.98,0.4,-3.7,-22.7,0.96,0.08,0.02,0.27
1697353330.6,0.12,-0.26,0.98,0.2,-2.8,-22.2,0.96,0.08,0.02,0.27
1697353330.61,0.05,-0.32,0.7,0.6,-1.4,-22.2,0.96,0.08,0.02,0.27
1697353330.62,0.1,-0.16,1.11,-0.5,0.5,-22.3,0.96,0.08,0.02,0.27
1697353330.63,0.08,-0.19,1.18,-0.7,0.9,-22.3,0.96,0.08,0.02,0.27
1697353330.64,0.3,-0.08,0.79,-0.8,1.5,-22.3,0.96,0.08,0.02,0.27
1697353330.65,0.2,-0.1,1.19,0.3,2.3,-21.5,0.96,0.08,0.02,0.26
1697353330.66,0.35,-0.07,0.72,3.1,2.7,-21,0.96,0.08,0.02,0.26
1697353330.67,0.23,-0.28,1.28,3.9,3.1,-19.8,0.96,0.08,0.02,0.26
1697353330.68,0.15,-0.28,0.9,2.9,3.5,-19.5,0.96,0.08,0.02,0.26
1697353330.69,0.24,-0.29,0.87,-0.2,3.9,-18.7,0.96,0.08,0.02,0.26
1697353330.7,0.01,-0.18,1.11,-2.5,4.2,-18.3,0.96,0.08,0.02,0.25
1697353330.71,0.13,-0.11,0.89,-2.5,4.5,-18.3,0.96,0.08,0.02,0.25
1697353330.72,0.16,-0.1,1.12,-1.2,5.1,-18.1,0.96,0.08,0.02,0.25
1697353330.73,0.18,-0.18,1.26,1,5,-17.6,0.97,0.08,0.02,0.25
1697353330.74,0.25,-0.32,0.85,0.9,3.4,-17,0.97,0.08,0.02,0.25
1697353330.75,0.29,-0.3,0.78,0.9,3.4,-17,0.97,0.08,0.02,0.25
1697353330.76,0.32,-0.16,0.93,-1.8,2,-15.5,0.97,0.08,0.02,0.25
1697353330.77,0.32,-0.16,0.93,-1.8,2,-15.5,0.97,0.08,0.02,0.25
1697353330.78,0.18,0.08,1.14,2.3,0.1,-13.4,0.97,0.08,0.02,0.24
1697353330.79,0.25,-0.27,0.97,2.3,0.1,-13.4,0.97,0.08,0.02,0.24
1697353330.8,0.08,-0.38,1.06,5.1,0.2,-13.8,0.97,0.08,0.02,0.24
1697353330.81,0.08,-0.38,1.06,2.5,0,-14,0.97,0.08,0.02,0.24
1697353330.82,0.12,-0.26,1.28,-3.3,1.5,-14.7,0.97,0.08,0.02,0.24
1697353330.83,0.12,-0.26,1.28,-3.3,1.5,-14.7,0.97,0.08,0.02,0.24
1697353330.84,0.12,-0.26,1.28,-3.3,1.5,-14.7,0.97,0.08,0.02,0.24
1697353330.85,0.12,-0.26,1.28,-3.3,1.5,-14.7,0.97,0.08,0.02,0.24
1697353330.86,0.12,-0.26,1.28,-3.3,1.5,-14.7,0.97,0.08,0.02,0.24
1697353330.87,0.12,-0.26,1.28,-3.3,1.5,-14.7,0.97,0.08,0.02,0.24
1697353330.88,0.12,-0.26,1.28,-3.3,1.5,-14.7,0.97,0.08,0.02,0.24
1697353330.89,0.12,-0.26,1.28,-3.3,1.5,-14.7,0.97,0.08,0.02,0.24
1697353330.9,0.12,-0.26,1.28,-3.3,1.5,-14.7,0.97,0.08,0.02,0.24
1697353330.91,0.12,-0.26,1.28,-3.3,1.5,-14.7,0.97,0.08,0.02,0.24
1697353330.92,0.12,-0.26,1.28,-3.3,1.5,-14.7,0.97,0.08,0.02,0.24
1697353330.93,0.12,-0.26,1.28,-3.3,1.5,-14.7,0.97,0.08,0.02,0.24
1697353330.94,0.12,-0.26,1.28,-3.3,1.5,-14.7,0.97,0.08,0.02,0.24
1697353330.95,0.12,-0.26,1.28,-3.3,1.5,-14.7,0.97,0.08,0.02,0.24
1697353330.96,0.12,-0.26,1.28,-3.3,1.5,-14.7,0.97,0.08,0.02,0.24
1697353330.97,0.27,0.05,1.22,0.3,1.2,-9.7,0.97,0.07,0.03,0.22
1697353330.98,0.26,0.01,0.97,4.2,0.8,-8.9,0.97,0.07,0.03,0.22
1697353330.99,0.24,-0.18,1.23,5.2,0.5,-8.1,0.97,0.07,0.03,0.22
1697353331,0.2,-0.3,1.11,4.4,0.5,-8.1,0.97,0.08,0.03,0.22
1697353331.01,0.16,-0.29,1.09,3.3,0.1,-8.4,0.97,0.08,0.03,0.22
1697353331.02,0.32,-0.23,0.96,2.6,0.1,-8.4,0.97,0.08,0.03,0.22
1697353331.03,0.22,-0.03,1.08,3.2,-0.3,-8.1,0.97,0.08,0.03,0.22
1697353331.04,0.13,0.08,1.03,2.1,-0.9,-6.8,0.97,0.08,0.03,0.22
1697353331.05,0.13,-0.12,1.25,1.5,-0.9,-6.6,0.97,0.08,0.03,0.22
1697353331.06,0.34,0.07,0.47,0.7,-1.3,-6.2,0.97,0.08,0.03,0.22
1697353331.07,0.27,0.03,1.13,-0.1,-1.6,-5.1,0.97,0.08,0.03,0.22
1697353331.08,0.24,0.07,0.74,0,-1.9,-4.1,0.97,0.08,0.03,0.22
1697353331.09,0.21,-0.03,1.01,0.4,-2.1,-3.6,0.97,0.08,0.03,0.21
1697353331.1,0.28,-0.06,0.89,0.4,-2.1,-3.6,0.97,0.08,0.03,0.21
1697353331.11,0.2,-0.04,1.09,-0.7,-1.4,-3.8,0.97,0.08,0.03,0.21
1697353331.12,0.11,0.01,0.89,-0.7,-1.4,-3.8,0.97,0.08,0.03,0.21
1697353331.13,0.08,-0.05,1.44,-1.4,0,-4.3,0.97,0.08,0.03,0.21
1697353331.14,0.1,-0,0.66,0.3,0.6,-4.7,0.97,0.08,0.03,0.21
1697353331.15,0.1,-0,0.66,0.3,0.6,-4.7,0.97,0.08,0.03,0.21
1697353331.16,0.05,-0.17,1.27,1,2.3,-5.3,0.97,0.08,0.03,0.21
1697353331.17,0.05,-0.17,1.27,1,2.3,-5.3,0.97,0.08,0.03,0.21
1697353331.18,0.05,-0.1,1.48,-1.6,2.5,-5.6,0.97,0.08,0.03,0.21
1697353331.19,0.12,-0,0.77,-0.7,1.8,-5.8,0.97,0.08,0.03,0.21
1697353331.2,0.12,-0,0.77,-0.7,1.8,-5.8,0.97,0.08,0.03,0.21
1697353331.21,0.07,-0.25,0.52,1.4,1.2,-6.1,0.97,0.08,0.03,0.21
1697353331.22,-0.09,-0.08,1.15,-2.7,0.6,-7,0.97,0.08,0.03,0.21
1697353331.23,-0.06,-0.04,0.87,-2.7,0.6,-7,0.97,0.08,0.03,0.21
1697353331.24,-0.09,0.13,1.18,-4,-0.1,-6.8,0.97,0.08,0.03,0.21
1697353331.25,-0.09,0.13,1.18,-4.5,-0.5,-6.3,0.97,0.07,0.03,0.21
1697353331.26,-0.08,-0.13,0.5,-1,-1,-6,0.97,0.08,0.03,0.21
1697353331.27,-0.08,-0.13,0.5,2.8,-1,-5,0.97,0.08,0.03,0.21
1697353331.28,-0.12,-0.24,0.83,3.2,-1.1,-4.6,0.98,0.08,0.03,0.21
1697353331.29,-0.69,-0.25,1.69,0.6,-0.4,-4.5,0.98,0.08,0.03,0.21
1697353331.3,-0.69,-0.23,0.72,-1.8,0.8,-4.4,0.98,0.08,0.03,0.21
1697353331.31,-0.55,-0.01,0.8,-3,2.2,-4.2,0.98,0.07,0.03,0.21
1697353331.32,-0.53,0.04,1.15,-1.9,3.1,-3.3,0.98,0.07,0.03,0.21
1697353331.33,-0.06,-0.01,0.93,1.6,2.9,-2.9,0.98,0.08,0.03,0.2
1697353331.34,-0.05,-0.17,1.13,4.1,1.7,-2.4,0.98,0.08,0.03,0.2
1697353331.35,0.11,-0.26,0.81,3.5,-0.4,-1.9,0.98,0.08,0.03,0.2
1697353331.36,0.07,-0.15,1.07,-0.5,-3.7,-3.1,0.98,0.08,0.03,0.2
1697353331.37,0.07,-0.15,1.07,-0.5,-3.7,-3.1,0.98,0.08,0.03,0.2
1697353331.38,0.07,-0.15,1.07,-0.5,-3.7,-3.1,0.98,0.08,0.03,0.2
1697353331.39,0.07,-0.15,1.07,-0.5,-3.7,-3.1,0.98,0.08,0.03,0.2
1697353331.4,0.07,-0.15,1.07,-0.5,-3.7,-3.1,0.98,0.08,0.03,0.2
1697353331.41,0.07,-0.15,1.07,-0.5,-3.7,-3.1,0.98,0.08,0.03,0.2
1697353331.42,0.07,-0.15,1.07,-0.5,-3.7,-3.1,0.98,0.08,0.03,0.2
1697353331.43,0.07,-0.15,1.07,-0.5,-3.7,-3.1,0.98,0.08,0.03,0.2
1697353331.44,0.07,-0.15,1.07,-0.5,-3.7,-3.1,0.98,0.08,0.03,0.2
1697353331.45,0.07,-0.15,1.07,-0.5,-3.7,-3.1,0.98,0.08,0.03,0.2
1697353331.46,0.07,-0.15,1.07,-0.5,-3.7,-3.1,0.98,0.08,0.03,0.2
1697353331.47,0.07,-0.15,1.07,-0.5,-3.7,-3.1,0.98,0.08,0.03,0.2
1697353331.48,0.07,-0.15,1.07,-0.5,-3.7,-3.1,0.98,0.08,0.03,0.2
1697353331.49,0.07,-0.15,1.07,-0.5,-3.7,-3.1,0.98,0.08,0.03,0.2
1697353331.5,-0.2,-0.05,0.51,1.7,0.6,-4.6,0.98,0.07,0.03,0.2
1697353331.51,-0.13,-0.17,0.88,1.7,0.6,-4.6,0.98,0.07,0.03,0.2
1697353331.52,-0.41,-0.25,1.19,2.8,0.7,-4.8,0.98,0.07,0.03,0.2
1697353331.53,-0.25,-0.19,1,-1,0.1,-4.3,0.98,0.07,0.03,0.2
1697353331.54,-0.06,-0.06,1.08,-0.4,-0.8,-4.4,0.98,0.07,0.03,0.2
1697353331.55,-0.06,-0.06,1.08,-0.4,-0.8,-4.4,0.98,0.07,0.03,0.2
1697353331.56,0.05,0.04,1.09,1.9,-1,-4.3,0.98,0.07,0.03,0.2
1697353331.57,-0.09,-0.12,1.4,3.2,-1.3,-4,0.98,0.07,0.03,0.19
1697353331.58,0,-0.14,0.67,3.5,-1.5,-4.8,0.98,0.07,0.03,0.19
1697353331.59,-0.07,-0.07,1.25,1.5,-1.3,-4.9,0.98,0.07,0.03,0.19
1697353331.6,0.02,-0.11,0.73,1.5,-1.3,-4.9,0.98,0.07,0.03,0.19
1697353331.61,-0.14,-0.01,1.38,-1.6,-0.3,-4.8,0.98,0.07,0.03,0.19
1697353331.62,-0.13,0.07,1.38,-1.6,-0.3,-4.8,0.98,0.07,0.03,0.19
1697353331.63,-0.06,0.01,0.77,-0.2,1.9,-4.4,0.98,0.07,0.03,0.19
1697353331.64,0.05,0.03,1.16,-0.2,1.9,-4.4,0.98,0.07,0.03,0.19
1697353331.65,0.05,0.03,1.16,0,2.1,-4,0.98,0.07,0.03,0.19
1697353331.66,-0.06,-0.18,0.95,-1.7,2.6,-4.1,0.98,0.07,0.03,0.19
1697353331.67,-0.01,0.06,0.84,-2.6,3.1,-4.1,0.98,0.07,0.03,0.19
1697353331.68,-0.03,-0.06,1.32,0,2.9,-4.2,0.98,0.07,0.03,0.19
1697353331.69,-0.07,0.1,0.48,2.8,2.5,-4.1,0.98,0.07,0.03,0.19
1697353331.7,0.03,-0.26,1.22,2.2,1.2,-4.3,0.98,0.07,0.03,0.19
1697353331.71,-0.04,-0.23,0.78,0,0.2,-4.5,0.98,0.07,0.03,0.19
1697353331.72,-0.15,-0.05,1.21,-1.9,-0.7,-4.4,0.98,0.07,0.03,0.19
1697353331.73,-0.01,-0.04,1.23,-1.4,-0.8,-4.5,0.98,0.07,0.03,0.19
1697353331.74,-0.08,-0.13,1.13,-2.6,-1.1,-4.3,0.98,0.07,0.03,0.19
1697353331.75,-0.04,0.1,1.43,-2.2,-0.7,-4.2,0.98,0.07,0.03,0.19
1697353331.76,-0.01,0.07,0.81,-2.2,-0.7,-4.2,0.98,0.07,0.03,0.19
1697353331.77,-0.1,-0.11,1.12,2.2,-0.6,-3.2,0.98,0.07,0.03,0.19
1697353331.78,-0.13,-0.04,0.88,2.8,-1.2,-3.5,0.98,0.07,0.03,0.19
1697353331.79,-0.24,-0.1,1.2,1.3,-1.5,-3.2,0.98,0.07,0.03,0.19
1697353331.8,-0.25,-0.06,1.23,-1,-1.9,-2.6,0.98,0.07,0.03,0.19
1697353331.81,-0.23,0.23,0.99,-2.1,-1.8,-2,0.98,0.07,0.03,0.19
1697353331.82,-0.23,0.23,0.99,-2.1,-1.8,-2,0.98,0.07,0.03,0.19
1697353331.83,-0.06,0.2,1.22,-0.1,-1.2,0.8,0.98,0.07,0.03,0.19
1697353331.84,-0.01,0.24,0.88,0.4,-1.8,2.2,0.98,0.07,0.03,0.19
1697353331.85,-0.03,0.11,1.12,0.5,-2.5,3.5,0.98,0.07,0.03,0.19
1697353331.86,0.03,0.3,0.65,0.5,-2.5,3.5,0.98,0.07,0.03,0.19
1697353331.87,-0.04,0.18,1.54,4.4,-6.3,7.1,0.98,0.07,0.03,0.19
1697353331.88,0.07,0.14,0.45,4.4,-6.3,7.1,0.98,0.07,0.03,0.19
1697353331.89,0.07,0.14,0.45,4.4,-6.3,7.1,0.98,0.07,0.03,0.19
1697353331.9,0.07,0.14,0.45,4.4,-6.3,7.1,0.98,0.07,0.03,0.19
1697353331.91,0.07,0.14,0.45,4.4,-6.3,7.1,0.98,0.07,0.03,0.19
1697353331.92,0.07,0.14,0.45,4.4,-6.3,7.1,0.98,0.07,0.03,0.19
1697353331.93,0.07,0.14,0.45,4.4,-6.3,7.1,0.98,0.07,0.03,0.19
1697353331.94,0.07,0.14,0.45,4.4,-6.3,7.1,0.98,0.07,0.03,0.19
1697353331.95,0.07,0.14,0.45,4.4,-6.3,7.1,0.98,0.07,0.03,0.19
1697353331.96,0.07,0.14,0.45,4.4,-6.3,7.1,0.98,0.07,0.03,0.19
1697353331.97,0.07,0.14,0.45,4.4,-6.3,7.1,0.98,0.07,0.03,0.19
1697353331.98,0.07,0.14,0.45,4.4,-6.3,7.1,0.98,0.07,0.03,0.19
1697353331.99,0.07,0.14,0.45,4.4,-6.3,7.1,0.98,0.07,0.03,0.19
1697353332,0.07,0.14,0.45,4.4,-6.3,7.1,0.98,0.07,0.03,0.19
1697353332.01,0.07,0.14,0.45,4.4,-6.3,7.1,0.98,0.07,0.03,0.19
1697353332.02,0.07,0.14,0.45,4.4,-6.3,7.1,0.98,0.07,0.03,0.19
1697353332.03,0.07,0.14,0.45,4.4,-6.3,7.1,0.98,0.07,0.03,0.19
1697353332.04,0.07,0.14,0.45,4.4,-6.3,7.1,0.98,0.07,0.03,0.19
1697353332.05,-0.01,0.37,1.29,-4.6,-0.1,14.6,0.98,0.07,0.03,0.19
1697353332.06,-0.01,0.53,0.97,-4.7,-1.6,15.4,0.98,0.08,0.03,0.21
1697353332.07,-0.03,0.45,0.78,-2.1,-2.6,16.4,0.98,0.08,0.03,0.21
1697353332.08,-0.11,0.14,1.07,2,-2.2,17.8,0.97,0.08,0.03,0.21
1697353332.09,-0.1,0.08,0.72,3.4,-1.1,18.1,0.97,0.08,0.03,0.21
1697353332.1,-0.09,-0.09,1.19,1.2,-0.1,18.2,0.97,0.08,0.03,0.21
1697353332.11,-0.12,0.04,0.74,-1.4,1,17.8,0.97,0.08,0.03,0.21
1697353332.12,-0.07,0.27,0.79,-2.3,1.9,17.5,0.97,0.08,0.03,0.22
1697353332.13,-0.1,0.27,1.32,-1.5,2.1,17.7,0.97,0.08,0.03,0.22
1697353332.14,0.01,0.32,0.82,1.8,1.6,17.8,0.97,0.08,0.03,0.22
1697353332.15,-0.02,0.21,0.87,4.5,0.4,18.2,0.97,0.08,0.03,0.22
1697353332.16,-0.18,0.12,1.37,4.3,-1,18.3,0.97,0.08,0.03,0.22
1697353332.17,-0.09,0.13,1.15,2.6,-2,18.1,0.97,0.08,0.03,0.22
1697353332.18,0.09,0.23,0.61,1,-2.5,18.2,0.97,0.08,0.02,0.22
1697353332.19,-0.2,0.25,0.96,0.7,-2.2,17.8,0.97,0.08,0.02,0.23
1697353332.2,-0.12,0.3,1.05,0.4,-2,17.1,0.97,0.08,0.02,0.23
1697353332.21,-0.15,0.42,0.77,-0.2,-1.8,16.9,0.97,0.08,0.02,0.23
1697353332.22,-0.26,0.45,0.97,0.6,-1.3,17.2,0.97,0.08,0.02,0.23
1697353332.23,-0.22,0.45,1.06,2,0.9,17.8,0.97,0.08,0.02,0.23
1697353332.24,-0.11,0.36,1.03,1.6,2.3,18.6,0.97,0.08,0.02,0.23
1697353332.25,-0.1,0.46,0.77,0.4,2.9,20,0.97,0.08,0.02,0.23
1697353332.26,-0.06,0.55,1.15,0.4,2.9,20,0.97,0.08,0.02,0.24
1697353332.27,0.06,0.77,0.91,1.2,2.4,24.4,0.97,0.08,0.02,0.24
1697353332.28,-0.13,0.69,0.96,3.7,1.5,27.6,0.97,0.08,0.02,0.24
1697353332.29,-0.1,0.81,1.41,5.5,0.7,30.6,0.97,0.08,0.02,0.24
1697353332.3,-0.12,0.59,0.91,5.7,-0.5,33.8,0.97,0.08,0.02,0.24
1697353332.31,-0.06,0.36,0.65,1.1,-1.1,36.1,0.97,0.08,0.02,0.25
1697353332.32,-0.24,0.55,1.34,-3.8,-0.4,37.2,0.96,0.08,0.02,0.25
1697353332.33,-0.1,0.92,0.97,-4.7,0.4,39.2,0.96,0.08,0.02,0.25
1697353332.34,-0.2,0.86,0.91,-0.7,1.4,40.9,0.96,0.08,0.02,0.26
1697353332.35,-0.14,0.89,1,-0.7,1.4,40.9,0.96,0.08,0.02,0.26
1697353332.36,-0.21,0.62,1.24,5.3,2.4,42.4,0.96,0.08,0.02,0.26
1697353332.37,-0.21,0.62,1.24,5.3,2.4,42.4,0.96,0.08,0.02,0.27
1697353332.38,-0.15,0.53,0.83,3.2,2.7,42.5,0.96,0.08,0.02,0.27
1697353332.39,-0.25,0.43,0.98,-0.5,3,41.6,0.96,0.08,0.02,0.28
1697353332.4,-0.23,0.6,1.07,-3,4.1,40.5,0.96,0.08,0.02,0.28
1697353332.41,-0.1,0.68,0.83,-4.3,5.3,39,0.96,0.08,0.02,0.28
1697353332.42,-0.1,0.68,0.83,-2.5,6.1,37.9,0.96,0.08,0.02,0.28
1697353332.43,-0.1,0.68,0.83,-2.5,6.1,37.9,0.96,0.08,0.02,0.28
1697353332.44,-0.1,0.68,0.83,-2.5,6.1,37.9,0.96,0.08,0.02,0.28
1697353332.45,-0.1,0.68,0.83,-2.5,6.1,37.9,0.96,0.08,0.02,0.28
1697353332.46,-0.1,0.68,0.83,-2.5,6.1,37.9,0.96,0.08,0.02,0.28
1697353332.47,-0.1,0.68,0.83,-2.5,6.1,37.9,0.96,0.08,0.02,0.28
1697353332.48,-0.1,0.68,0.83,-2.5,6.1,37.9,0.96,0.08,0.02,0.28
1697353332.49,-0.1,0.68,0.83,-2.5,6.1,37.9,0.96,0.08,0.02,0.28
1697353332.5,-0.1,0.68,0.83,-2.5,6.1,37.9,0.96,0.08,0.02,0.28
1697353332.51,-0.1,0.68,0.83,-2.5,6.1,37.9,0.96,0.08,0.02,0.28
1697353332.52,-0.1,0.68,0.83,-2.5,6.1,37.9,0.96,0.08,0.02,0.28
1697353332.53,-0.1,0.68,0.83,-2.5,6.1,37.9,0.96,0.08,0.02,0.28
1697353332.54,-0.1,0.68,0.83,-2.5,6.1,37.9,0.96,0.08,0.02,0.28
1697353332.55,-0.1,0.68,0.83,-2.5,6.1,37.9,0.96,0.08,0.02,0.28
1697353332.56,-0.12,0.53,0.99,0,3,24.6,0.94,0.08,0.02,0.32
1697353332.57,-0.21,0.64,1.14,3.8,3,25.7,0.94,0.08,0.02,0.32
1697353332.58,-0.25,0.61,1.72,7.3,3.1,27.4,0.94,0.08,0.02,0.32
1697353332.59,0.08,0.58,0.49,7.8,2.7,29.4,0.94,0.08,0.02,0.32
1697353332.6,-0.14,0.53,0.99,6.9,1.9,31.9,0.94,0.08,0.02,0.33
1697353332.61,-0.16,0.71,0.85,5.2,0.8,34.4,0.94,0.08,0.02,0.33
1697353332.62,-0.06,0.76,0.96,5.2,0.8,34.4,0.94,0.08,0.02,0.33
1697353332.63,-0.14,0.86,1.06,0.8,-0.9,40.7,0.94,0.08,0.02,0.34
1697353332.64,-0.19,0.99,1.02,1.5,-0.8,42.3,0.94,0.08,0.02,0.34
1697353332.65,-0.18,1.03,1.15,2.4,-0.2,45,0.94,0.08,0.02,0.34
1697353332.66,-0.15,0.94,0.81,3.4,0.3,47.4,0.93,0.08,0.02,0.35
1697353332.67,-0.21,0.87,0.86,3.4,0.3,47.4,0.93,0.08,0.02,0.35
1697353332.68,-0.21,0.87,0.86,4,0.7,49.5,0.93,0.08,0.02,0.35
1697353332.69,-0.27,0.92,1.1,1,1.7,52.8,0.93,0.08,0.02,0.36
1697353332.7,-0.27,0.92,1.1,1,1.7,52.8,0.93,0.08,0.02,0.36
1697353332.71,-0.23,0.99,1.05,0.9,2.1,55.7,0.93,0.08,0.02,0.37
1697353332.72,-0.23,0.99,1.05,0.9,2.1,55.7,0.92,0.08,0.02,0.37
1697353332.73,-0.26,0.81,0.92,3.1,2.5,58,0.92,0.08,0.02,0.38
1697353332.74,-0.18,0.79,0.99,3.1,2.5,58,0.92,0.08,0.02,0.38
1697353332.75,-0.18,0.79,0.99,2.5,2.1,58.3,0.92,0.08,0.02,0.38
1697353332.76,-0.08,0.85,0.94,0,0.6,58.8,0.92,0.08,0.02,0.39
1697353332.77,-0.08,0.85,0.94,0,0.6,58.8,0.91,0.08,0.02,0.4
1697353332.78,-0.21,0.84,0.85,0.6,0.1,58.9,0.91,0.08,0.02,0.4
1697353332.79,-0.21,0.84,0.85,2.1,-0.2,58.9,0.91,0.08,0.02,0.41
1697353332.8,-0.19,0.7,1.09,3.9,0,58.6,0.91,0.08,0.02,0.41
1697353332.81,-0.13,0.61,0.89,4.2,0.5,58.1,0.91,0.09,0.02,0.41
1697353332.82,-0.21,0.67,0.89,2.5,0.8,57.5,0.91,0.09,0.02,0.41
1697353332.83,-0.17,0.78,0.85,0,1.2,57.3,0.9,0.09,0.02,0.42
1697353332.84,-0.27,0.8,1.2,-1.2,2.1,57.3,0.9,0.09,0.02,0.43
1697353332.85,-0.17,0.8,1,-0.6,2.7,57.1,0.9,0.09,0.02,0.43
1697353332.86,-0.19,0.79,1.3,0.3,2.8,57.4,0.9,0.09,0.02,0.43
1697353332.87,-0.13,0.68,0.99,1.3,2.5,57.5,0.89,0.09,0.02,0.44
1697353332.88,-0.19,0.67,1.05,1.5,2.2,57.5,0.89,0.09,0.02,0.44
1697353332.89,-0.17,0.69,1.13,0.4,1.5,57.4,0.89,0.09,0.02,0.45
1697353332.9,-0.12,0.67,1.07,-0.3,1.2,57.4,0.89,0.09,0.02,0.45
1697353332.91,-0.21,0.73,1.08,-0.6,0.6,57.3,0.89,0.09,0.01,0.46
1697353332.92,-0.13,0.73,0.96,-0.1,0.2,57.2,0.88,0.09,0.01,0.46
1697353332.93,-0.23,0.75,0.89,0.3,0,57.1,0.88,0.09,0.01,0.47
1697353332.94,-0.23,0.75,0.89,0.3,0,57.1,0.88,0.09,0.01,0.47
1697353332.95,-0.23,0.75,0.89,0.3,0,57.1,0.88,0.09,0.01,0.47
1697353332.96,-0.23,0.75,0.89,0.3,0,57.1,0.88,0.09,0.01,0.47
1697353332.97,-0.23,0.75,0.89,0.3,0,57.1,0.88,0.09,0.01,0.47
1697353332.98,-0.23,0.75,0.89,0.3,0,57.1,0.88,0.09,0.01,0.47
1697353332.99,-0.23,0.75,0.89,0.3,0,57.1,0.88,0.09,0.01,0.47
1697353333,-0.23,0.75,0.89,0.3,0,57.1,0.88,0.09,0.01,0.47
1697353333.01,-0.23,0.75,0.89,0.3,0,57.1,0.88,0.09,0.01,0.47
1697353333.02,-0.23,0.75,0.89,0.3,0,57.1,0.88,0.09,0.01,0.47
1697353333.03,-0.23,0.75,0.89,0.3,0,57.1,0.88,0.09,0.01,0.47
1697353333.04,-0.23,0.75,0.89,0.3,0,57.1,0.88,0.09,0.01,0.47
1697353333.05,-0.23,0.75,0.89,0.3,0,57.1,0.88,0.09,0.01,0.47
1697353333.06,-0.23,0.75,0.89,0.3,0,57.1,0.88,0.09,0.01,0.47
1697353333.07,-0.23,0.75,0.89,0.3,0,57.1,0.88,0.09,0.01,0.47
1697353333.08,-0.23,0.75,0.89,0.3,0,57.1,0.88,0.09,0.01,0.47
1697353333.09,-0.23,0.75,0.89,0.3,0,57.1,0.88,0.09,0.01,0.47
1697353333.1,0.25,0.78,0.93,0.2,-1.2,60.4,0.84,0.09,0.01,0.54
1697353333.11,-0.07,0.84,0.9,-0.1,-2.4,59.7,0.83,0.09,0.01,0.55
1697353333.12,-0.07,0.84,0.9,-0.1,-2.4,59.7,0.83,0.09,0.01,0.55
1697353333.13,-0.23,0.84,0.8,-1.4,-0.5,61.8,0.82,0.09,0,0.56
1697353333.14,-0.23,0.84,0.8,-1.4,-0.5,61.8,0.82,0.09,0,0.56
1697353333.15,-0.03,0.79,0.75,-0.2,0.8,62.3,0.82,0.09,0,0.57
1697353333.16,0.04,0.76,0.77,0,1.6,63.4,0.82,0.09,0,0.57
1697353333.17,0.01,0.79,0.97,0.4,1.7,63.2,0.81,0.09,0,0.57
1697353333.18,0.15,0.74,1.29,-0.4,1,62.7,0.81,0.09,0,0.58
1697353333.19,0.26,0.78,0.91,-0.5,0,61.8,0.81,0.09,0,0.58
1697353333.2,0.26,0.78,0.91,-0.5,0,61.8,0.8,0.09,0,0.59
1697353333.21,0.05,0.78,1.13,0,-0.8,61.1,0.8,0.09,0,0.59
1697353333.22,0.09,0.86,0.7,1.3,-0.8,60.2,0.8,0.09,0,0.6
1697353333.23,-0.09,0.86,1.18,1.6,-0.5,60.3,0.8,0.09,0,0.6
1697353333.24,-0.1,0.73,0.99,2.1,0,60.6,0.79,0.09,-0,0.61
1697353333.25,-0.08,0.75,0.99,1.1,0.8,60.8,0.79,0.09,-0,0.61
1697353333.26,-0.12,0.77,1.12,-0.9,1.4,61.5,0.78,0.09,-0,0.61
1697353333.27,-0.03,0.91,0.72,-1.7,2.3,62,0.78,0.09,-0,0.62
1697353333.28,-0.08,0.94,1.13,-1.1,2.7,62.5,0.78,0.09,-0,0.62
1697353333.29,-0.02,0.81,1.32,1.2,2.7,63,0.77,0.09,-0,0.63
1697353333.3,0.12,0.72,1.31,2.8,1.9,62.9,0.77,0.09,-0,0.63
1697353333.31,0.14,0.7,0.92,1.9,1.4,62.7,0.77,0.09,-0,0.64
1697353333.32,0.03,0.84,1.03,-2.3,0.3,62.2,0.76,0.09,-0,0.64
1697353333.33,0.05,0.88,1.03,-2,0.2,62.4,0.76,0.09,-0,0.65
1697353333.34,0.01,0.93,0.89,-0.1,0.1,62.6,0.76,0.09,-0,0.65
1697353333.35,0.09,0.89,0.65,1.4,0.5,63.1,0.75,0.09,-0,0.65
1697353333.36,-0.1,0.89,0.81,2.7,0.7,63.5,0.75,0.09,-0.01,0.66
1697353333.37,-0.09,0.81,1.1,2.4,1.4,63.5,0.74,0.09,-0.01,0.66
1697353333.38,-0.03,0.77,1.1,1.1,1.6,63.3,0.74,0.09,-0.01,0.67
1697353333.39,0.07,0.73,0.89,-0.6,2.1,63,0.74,0.09,-0.01,0.67
1697353333.4,0.07,0.75,0.95,-1.8,2.2,62.6,0.73,0.09,-0.01,0.67
1697353333.41,0.07,0.87,1.12,-1.7,1.8,62.4,0.73,0.09,-0.01,0.68
1697353333.42,0.16,0.89,1.02,-0.3,1.6,62.1,0.73,0.09,-0.01,0.68
1697353333.43,0.13,0.8,1,0.6,1.6,61.8,0.72,0.09,-0.01,0.69
1697353333.44,0.02,0.72,0.86,0.3,1.7,61.4,0.72,0.09,-0.01,0.69
1697353333.45,0.07,0.7,1.1,-0.3,1.6,60.5,0.71,0.09,-0.01,0.69
1697353333.46,0.09,0.72,1.14,-1.4,1.7,60,0.71,0.09,-0.01,0.7
1697353333.47,0.08,0.65,1.15,-1.9,1.8,59.3,0.71,0.09,-0.01,0.7
1697353333.48,0.1,0.77,1.15,-2,1.3,58.3,0.7,0.09,-0.01,0.71
1697353333.49,0.07,0.73,1.02,-1,1.1,57.7,0.7,0.09,-0.01,0.71
1697353333.5,0.07,0.73,1.02,-1,1.1,57.7,0.7,0.09,-0.01,0.71
1697353333.51,0.07,0.73,1.02,-1,1.1,57.7,0.7,0.09,-0.01,0.71
1697353333.52,0.07,0.73,1.02,-1,1.1,57.7,0.7,0.09,-0.01,0.71
1697353333.53,0.07,0.73,1.02,-1,1.1,57.7,0.7,0.09,-0.01,0.71
1697353333.54,0.07,0.73,1.02,-1,1.1,57.7,0.7,0.09,-0.01,0.71
1697353333.55,0.07,0.73,1.02,-1,1.1,57.7,0.7,0.09,-0.01,0.71
1697353333.56,0.07,0.73,1.02,-1,1.1,57.7,0.7,0.09,-0.01,0.71
1697353333.57,0.07,0.73,1.02,-1,1.1,57.7,0.7,0.09,-0.01,0.71
1697353333.58,0.07,0.73,1.02,-1,1.1,57.7,0.7,0.09,-0.01,0.71
1697353333.59,0.07,0.73,1.02,-1,1.1,57.7,0.7,0.09,-0.01,0.71
1697353333.6,0.07,0.73,1.02,-1,1.1,57.7,0.7,0.09,-0.01,0.71
1697353333.61,0.07,0.73,1.02,-1,1.1,57.7,0.7,0.09,-0.01,0.71
1697353333.62,0.07,0.73,1.02,-1,1.1,57.7,0.7,0.09,-0.01,0.71
1697353333.63,0.04,0.77,0.75,1,3.1,56.8,0.65,0.08,-0.01,0.75
1697353333.64,0.09,0.8,1.07,0.7,2.6,56.8,0.65,0.08,-0.01,0.76
1697353333.65,0.11,0.75,1.37,-0.5,2.2,56.8,0.64,0.08,-0.01,0.76
1697353333.66,0.15,0.73,0.85,-1.8,2,56.8,0.64,0.08,-0.02,0.76
1697353333.67,0.09,0.74,0.75,-2.3,1.5,56.8,0.64,0.08,-0.02,0.76
1697353333.68,0.05,0.82,1.2,-0.5,1,56.6,0.63,0.08,-0.02,0.77
1697353333.69,0.08,0.79,0.92,0.5,0.2,56.3,0.63,0.08,-0.02,0.77
1697353333.7,0.02,0.69,1.11,0.8,-0.3,55.5,0.62,0.08,-0.02,0.78
1697353333.71,0.16,0.65,1.12,-0.3,-0.2,54.5,0.62,0.08,-0.02,0.78
1697353333.72,0.11,0.52,0.95,-1.3,-0.2,53.4,0.62,0.08,-0.02,0.78
1697353333.73,0.13,0.61,0.7,-1.3,0,52.1,0.61,0.08,-0.02,0.79
1697353333.74,0.07,0.65,1.14,-0.8,0.1,51,0.61,0.08,-0.02,0.79
1697353333.75,0.17,0.62,1.02,0.5,0.4,49.6,0.61,0.08,-0.02,0.79
1697353333.76,0.12,0.62,0.79,0.9,0.6,48.8,0.6,0.08,-0.02,0.79
1697353333.77,0.12,0.64,1.14,0.9,0.6,48.8,0.6,0.08,-0.02,0.79
1697353333.78,0.07,0.51,0.9,-0.1,1.3,47.2,0.59,0.08,-0.02,0.8
1697353333.79,0.11,0.59,0.93,-0.1,1.3,47.2,0.59,0.08,-0.02,0.8
1697353333.8,0.09,0.63,1.16,-1.9,1.4,46.1,0.59,0.08,-0.02,0.8
1697353333.81,0.06,0.55,1.04,-1.6,1.3,45.6,0.59,0.08,-0.02,0.81
1697353333.82,0.14,0.56,0.86,-1,0.8,44.7,0.58,0.08,-0.02,0.81
1697353333.83,0.13,0.48,1.24,-1.5,0.8,43.5,0.58,0.08,-0.02,0.81
1697353333.84,0.13,0.32,1.15,-3,0.6,41.8,0.58,0.08,-0.02,0.81
1697353333.85,0.13,0.32,1.15,-3,0.6,41.8,0.58,0.08,-0.02,0.81
1697353333.86,0.15,0.34,1.35,-4.6,0,39.5,0.58,0.08,-0.02,0.81
1697353333.87,0.18,0.43,0.84,-3.5,-0.2,36.4,0.57,0.08,-0.02,0.82
1697353333.88,0.15,0.48,1.02,-1.4,-0.3,35.1,0.56,0.08,-0.02,0.82
1697353333.89,0.1,0.4,1.08,0.4,-0.1,33.9,0.56,0.08,-0.02,0.82
1697353333.9,0.14,0.3,0.74,0.4,-0.1,33.9,0.56,0.08,-0.02,0.82
1697353333.91,0.08,0.24,1.24,0.6,0.3,32.9,0.56,0.08,-0.02,0.82
1697353333.92,0.08,0.24,1.24,-0.5,0.7,31.7,0.56,0.08,-0.03,0.83
1697353333.93,0.14,0.34,1.26,-2.2,0.9,30.5,0.56,0.08,-0.03,0.83
1697353333.94,0.14,0.34,1.26,-2.4,0.6,29.6,0.55,0.08,-0.03,0.83
1697353333.95,0.11,0.35,1.12,-1.1,0.3,29,0.55,0.08,-0.03,0.83
1697353333.96,0.12,0.43,0.55,0.8,0.2,28.6,0.55,0.08,-0.03,0.83
1697353333.97,0.13,0.33,1.09,2.1,0.2,27.9,0.55,0.08,-0.03,0.83
1697353333.98,0.06,0.17,1.51,0.9,0,27.2,0.54,0.08,-0.03,0.83
1697353333.99,0.19,0.13,0.68,-0.8,-0.1,26.1,0.54,0.08,-0.03,0.84
1697353334,0.12,0.18,1.33,-2.5,0.1,25,0.54,0.08,-0.03,0.84
1697353334.01,0.07,0.24,0.85,-2.8,0.7,23.4,0.54,0.08,-0.03,0.84
1697353334.02,0.07,0.24,0.85,-2.8,0.7,23.4,0.54,0.08,-0.03,0.84
1697353334.03,0.07,0.24,0.85,-2.8,0.7,23.4,0.54,0.08,-0.03,0.84
1697353334.04,0.07,0.24,0.85,-2.8,0.7,23.4,0.54,0.08,-0.03,0.84
1697353334.05,0.07,0.24,0.85,-2.8,0.7,23.4,0.54,0.08,-0.03,0.84
1697353334.06,0.07,0.24,0.85,-2.8,0.7,23.4,0.54,0.08,-0.03,0.84
1697353334.07,0.07,0.24,0.85,-2.8,0.7,23.4,0.54,0.08,-0.03,0.84
1697353334.08,0.07,0.24,0.85,-2.8,0.7,23.4,0.54,0.08,-0.03,0.84
1697353334.09,0.07,0.24,0.85,-2.8,0.7,23.4,0.54,0.08,-0.03,0.84
1697353334.1,0.07,0.24,0.85,-2.8,0.7,23.4,0.54,0.08,-0.03,0.84
1697353334.11,0.07,0.24,0.85,-2.8,0.7,23.4,0.54,0.08,-0.03,0.84
1697353334.12,0.07,0.24,0.85,-2.8,0.7,23.4,0.54,0.08,-0.03,0.84
1697353334.13,0.07,0.24,0.85,-2.8,0.7,23.4,0.54,0.08,-0.03,0.84
1697353334.14,0.07,0.24,0.85,-2.4,-0.5,11.7,0.52,0.08,-0.03,0.85
1697353334.15,0,0.01,0.65,-2.3,0.3,11,0.52,0.08,-0.03,0.85
1697353334.16,-0.01,-0.06,0.68,-0.6,1.6,9.3,0.52,0.08,-0.03,0.85
1697353334.17,-0.01,-0.06,0.68,-0.6,1.6,9.3,0.52,0.08,-0.03,0.85
1697353334.18,0.04,-0.2,1.12,-1.6,1.6,6.2,0.52,0.07,-0.03,0.85
1697353334.19,0.04,-0.2,1.12,-1.6,1.6,6.2,0.52,0.07,-0.03,0.85
1697353334.2,-0.05,-0.31,0.48,-4,1.2,0.1,0.52,0.07,-0.03,0.85
1697353334.21,0.02,-0.42,0.63,-5.1,0.7,-3.3,0.52,0.07,-0.03,0.85
1697353334.22,-0.02,-0.5,1.5,-6.6,0.4,-6.9,0.52,0.07,-0.03,0.85
1697353334.23,-0.06,-0.49,0.69,-6.3,0,-10.7,0.52,0.07,-0.03,0.85
1697353334.24,0.09,-0.55,0.92,-6.5,-0.1,-14.3,0.52,0.07,-0.03,0.85
1697353334.25,0.09,-0.55,0.92,-6.5,-0.1,-14.3,0.52,0.07,-0.03,0.85
1697353334.26,-0.05,-0.91,0.34,-8.5,-1.7,-22.9,0.52,0.07,-0.03,0.85
1697353334.27,-0.05,-0.91,0.34,-8.5,-1.7,-22.9,0.53,0.07,-0.03,0.85
1697353334.28,-0.1,-0.77,0.84,-10.2,-2.1,-26.2,0.53,0.07,-0.04,0.85
1697353334.29,-0.1,-0.77,0.84,-9.6,-2.2,-29.5,0.53,0.07,-0.04,0.84
1697353334.3,-0.03,-0.77,1.37,-6.2,-1.7,-32.6,0.53,0.07,-0.04,0.84
1697353334.31,-0.13,-0.8,0.76,-4.2,-1.6,-34.6,0.53,0.07,-0.04,0.84
1697353334.32,0.06,-0.93,1.2,-3.4,-1.1,-36.5,0.54,0.07,-0.04,0.84
1697353334.33,-0.09,-0.86,1.1,-3,-0.6,-38,0.54,0.07,-0.04,0.84
1697353334.34,-0.18,-0.85,0.85,-2.5,0,-39.5,0.54,0.07,-0.04,0.84
1697353334.35,-0.01,-0.94,1.36,-2.1,0.3,-40.9,0.55,0.07,-0.04,0.83
1697353334.36,-0.01,-0.84,1.19,-2.1,0.4,-41.2,0.55,0.07,-0.04,0.83
1697353334.37,-0.05,-0.79,1.15,-2,0.4,-42.1,0.55,0.07,-0.04,0.83
1697353334.38,-0.09,-0.59,1.05,-1,0.5,-42.5,0.56,0.07,-0.04,0.83
1697353334.39,0.1,-0.9,0.77,1.8,0.3,-42.2,0.56,0.07,-0.04,0.83
1697353334.4,-0.17,-0.81,0.94,2.7,0.2,-42.6,0.56,0.07,-0.04,0.82
1697353334.41,-0.13,-0.94,0.9,-4.6,1.2,-43.2,0.57,0.07,-0.04,0.82
1697353334.42,0.06,-0.77,1.2,-5.6,1.7,-43.7,0.57,0.07,-0.04,0.82
1697353334.43,-0.08,-0.55,0.6,-1.8,1.5,-44.2,0.57,0.07,-0.03,0.82
1697353334.44,0.11,-0.66,1.02,2.4,1.3,-44.5,0.57,0.07,-0.03,0.81
1697353334.45,0.01,-0.81,1.24,4.1,1.1,-45.5,0.58,0.07,-0.03,0.81
1697353334.46,-0.04,-0.94,1.05,1.1,0.5,-46.4,0.58,0.07,-0.03,0.81
1697353334.47,0.05,-0.95,1.39,1.1,0.5,-46.4,0.58,0.07,-0.03,0.81
1697353334.48,-0.05,-0.74,0.77,-2.9,0,-48.6,0.59,0.07,-0.03,0.8
1697353334.49,-0.02,-0.65,1.35,-1.9,-0.2,-48.8,0.59,0.07,-0.03,0.8
1697353334.5,0.07,-0.59,0.91,1,-0.7,-48.9,0.59,0.07,-0.03,0.8
1697353334.51,-0.05,-0.69,1.31,2.5,-1.3,-48.8,0.6,0.07,-0.03,0.8
1697353334.52,-0.17,-0.69,0.88,1.9,-0.8,-48.5,0.6,0.07,-0.03,0.8
1697353334.53,-0.17,-0.69,0.88,1.9,-0.8,-48.5,0.6,0.07,-0.03,0.79
1697353334.54,-0.17,-0.69,0.88,1.9,-0.8,-48.5,0.6,0.07,-0.03,0.79
1697353334.55,-0.17,-0.69,0.88,1.9,-0.8,-48.5,0.6,0.07,-0.03,0.79
1697353334.56,-0.17,-0.69,0.88,1.9,-0.8,-48.5,0.6,0.07,-0.03,0.79
1697353334.57,-0.17,-0.69,0.88,1.9,-0.8,-48.5,0.6,0.07,-0.03,0.79
1697353334.58,-0.17,-0.69,0.88,1.9,-0.8,-48.5,0.6,0.07,-0.03,0.79
1697353334.59,-0.17,-0.69,0.88,1.9,-0.8,-48.5,0.6,0.07,-0.03,0.79
1697353334.6,-0.17,-0.69,0.88,1.9,-0.8,-48.5,0.6,0.07,-0.03,0.79
1697353334.61,-0.17,-0.69,0.88,1.9,-0.8,-48.5,0.6,0.07,-0.03,0.79
1697353334.62,-0.17,-0.69,0.88,1.9,-0.8,-48.5,0.6,0.07,-0.03,0.79
1697353334.63,-0.17,-0.69,0.88,1.9,-0.8,-48.5,0.6,0.07,-0.03,0.79
1697353334.64,-0.17,-0.69,0.88,1.9,-0.8,-48.5,0.6,0.07,-0.03,0.79
1697353334.65,-0.17,-0.69,0.88,1.9,-0.8,-48.5,0.6,0.07,-0.03,0.79
1697353334.66,-0.17,-0.69,0.88,1.9,-0.8,-48.5,0.6,0.07,-0.03,0.79
1697353334.67,0.1,-0.7,0.85,-0.5,-2.1,-45.9,0.65,0.07,-0.03,0.76
1697353334.68,0.05,-0.6,1.01,1.9,-2.7,-46.3,0.65,0.07,-0.03,0.75
1697353334.69,0.08,-0.69,1.31,2,-2.1,-46.4,0.65,0.08,-0.03,0.75
1697353334.7,0.02,-0.69,0.83,1.1,-0.7,-46,0.66,0.08,-0.03,0.75
1697353334.71,0.11,-0.78,1.13,0.6,0,-45.6,0.66,0.08,-0.03,0.75
1697353334.72,0.13,-0.77,0.81,0.7,1,-45.8,0.66,0.08,-0.03,0.74
1697353334.73,0.19,-0.64,1.24,1,1.9,-45.9,0.67,0.08,-0.03,0.74
1697353334.74,0.22,-0.93,0.88,0.2,2.2,-45.8,0.67,0.08,-0.02,0.74
1697353334.75,0.2,-0.81,1.06,-0.9,2.2,-46,0.67,0.08,-0.02,0.74
1697353334.76,0.23,-0.45,0.84,-2,2.1,-46.7,0.68,0.08,-0.02,0.73
1697353334.77,0.29,-0.69,0.98,-3.6,1.7,-47,0.68,0.08,-0.02,0.73
1697353334.78,0.29,-0.69,0.98,-3.6,1.7,-47,0.68,0.07,-0.02,0.73
1697353334.79,0.2,-0.59,0.68,-0.8,-0.5,-45.8,0.69,0.07,-0.02,0.72
1697353334.8,0.2,-0.59,0.68,-0.8,-0.5,-45.8,0.69,0.07,-0.02,0.72
1697353334.81,0.13,-0.93,0.76,-0.4,-1.6,-45.5,0.69,0.08,-0.02,0.72
1697353334.82,0.24,-0.74,0.96,-1.5,-1.8,-45.2,0.69,0.08,-0.02,0.72
1697353334.83,0.21,-0.72,0.95,-0.8,-1.4,-44.5,0.69,0.08,-0.02,0.72
1697353334.84,0.19,-0.87,1.22,-0.8,-1.4,-44.5,0.7,0.08,-0.02,0.71
1697353334.85,0.34,-0.59,0.93,0,-0.9,-44.7,0.7,0.08,-0.02,0.71
1697353334.86,0.16,-0.68,1.18,-0.2,-0.8,-43.7,0.71,0.08,-0.02,0.7
1697353334.87,0.05,-0.63,1.24,-0.2,-0.8,-43.7,0.71,0.08,-0.02,0.7
1697353334.88,0.33,-1.05,0.74,3,0.2,-44.6,0.71,0.08,-0.02,0.7
1697353334.89,0.15,-0.76,0.95,1.4,1.4,-45.3,0.71,0.08,-0.02,0.7
1697353334.9,0.15,-0.76,0.95,1.4,1.4,-45.3,0.71,0.08,-0.02,0.7
1697353334.91,0.02,-0.74,1.11,-0.2,1.4,-46.8,0.72,0.08,-0.02,0.69
1697353334.92,0.09,-0.8,0.89,-1.7,1.1,-47.5,0.72,0.08,-0.02,0.69
1697353334.93,0.26,-0.64,0.84,-1.2,1.5,-48.4,0.72,0.08,-0.02,0.69
1697353334.94,0.26,-0.64,0.84,-0.2,1.3,-48.8,0.73,0.08,-0.02,0.68
1697353334.95,0.29,-0.89,0.76,1.7,0,-48.4,0.73,0.08,-0.02,0.68
1697353334.96,0.35,-0.82,0.58,-1.3,0,-48.3,0.73,0.08,-0.02,0.68
1697353334.97,0.14,-0.67,1.23,-4,0,-47.5,0.73,0.08,-0.02,0.67
1697353334.98,0.23,-0.65,0.95,-4.2,-0.1,-46.8,0.74,0.08,-0.02,0.67
1697353334.99,0.2,-0.71,0.8,-1.7,-0.4,-46.2,0.74,0.08,-0.02,0.67
1697353335,0.13,-0.84,1.08,0.6,-0.3,-45.7,0.74,0.08,-0.02,0.66
1697353335.01,0.09,-1,0.99,1.5,0.2,-45.7,0.75,0.08,-0.02,0.66
1697353335.02,0.19,-0.79,1.06,0.8,0.6,-46.1,0.75,0.08,-0.02,0.66
1697353335.03,0.21,-0.93,1.03,0,0.9,-46.1,0.75,0.08,-0.02,0.66
1697353335.04,0.23,-0.77,1.03,0.5,1.5,-46.6,0.75,0.08,-0.02,0.65
1697353335.05,0.15,-0.67,1.12,1.7,1.5,-46.8,0.76,0.08,-0.02,0.65
1697353335.06,0.23,-0.71,0.98,3.5,1,-46.4,0.76,0.08,-0.02,0.65
1697353335.07,0.23,-0.71,0.98,3.5,1,-46.4,0.76,0.08,-0.02,0.65
1697353335.08,0.23,-0.71,0.98,3.5,1,-46.4,0.76,0.08,-0.02,0.65
1697353335.09,0.23,-0.71,0.98,3.5,1,-46.4,0.76,0.08,-0.02,0.65
1697353335.1,0.23,-0.71,0.98,3.5,1,-46.4,0.76,0.08,-0.02,0.65
1697353335.11,0.23,-0.71,0.98,3.5,1,-46.4,0.76,0.08,-0.02,0.65
1697353335.12,0.23,-0.71,0.98,3.5,1,-46.4,0.76,0.08,-0.02,0.65
1697353335.13,0.23,-0.71,0.98,3.5,1,-46.4,0.76,0.08,-0.02,0.65
1697353335.14,0.23,-0.71,0.98,3.5,1,-46.4,0.76,0.08,-0.02,0.65
1697353335.15,0.23,-0.71,0.98,3.5,1,-46.4,0.76,0.08,-0.02,0.65
1697353335.16,0.23,-0.71,0.98,3.5,1,-46.4,0.76,0.08,-0.02,0.65
1697353335.17,0.23,-0.71,0.98,3.5,1,-46.4,0.76,0.08,-0.02,0.65
1697353335.18,0.23,-0.71,0.98,3.5,1,-46.4,0.76,0.08,-0.02,0.65
1697353335.19,0.23,-0.71,0.98,3.5,1,-46.4,0.79,0.08,-0.01,0.61
1697353335.2,0.1,-0.67,1.1,1.1,1.1,-39.3,0.79,0.08,-0.01,0.61
1697353335.21,0.2,-0.52,1.05,1.2,2.9,-38.6,0.8,0.08,-0.01,0.6
1697353335.22,0.2,-0.52,1.05,1.2,2.9,-38.6,0.8,0.08,-0.01,0.6
1697353335.23,0.29,-0.6,0.93,5,2.2,-37.5,0.8,0.08,-0.01,0.6
1697353335.24,0.29,-0.6,0.93,5,2.2,-37.5,0.8,0.08,-0.01,0.6
1697353335.25,0.3,-0.7,0.9,-2.9,-0.3,-36.2,0.8,0.08,-0.01,0.59
1697353335.26,0.3,-0.7,0.9,-2.9,-0.3,-36.2,0.8,0.08,-0.01,0.59
1697353335.27,0.19,-0.41,0.85,-5.2,-1.6,-34.5,0.81,0.08,-0.01,0.59
1697353335.28,0.22,-0.1,0.94,-2.1,-1.4,-32,0.81,0.08,-0.01,0.59
1697353335.29,0.31,-0.1,0.9,2.4,-0.6,-29.7,0.81,0.08,-0.01,0.58
1697353335.3,0.23,-0.37,0.97,3.7,0.2,-27.6,0.81,0.08,-0.01,0.58
1697353335.31,0.29,-0.37,0.76,1.6,1.3,-25.9,0.81,0.08,-0.01,0.58
1697353335.32,0.16,-0.41,0.94,0.2,2.8,-24,0.81,0.08,-0.01,0.58
1697353335.33,0.34,-0.22,0.66,1.8,3.5,-22.6,0.81,0.08,-0.01,0.58
1697353335.34,0.19,-0.2,1.34,4.4,3.4,-21.1,0.82,0.08,-0,0.57
1697353335.35,0.21,-0.27,1.12,5.7,3.4,-20,0.82,0.08,-0,0.57
1697353335.36,0.3,-0.25,0.9,4.6,2.9,-18.5,0.82,0.08,-0,0.57
1697353335.37,0.29,-0.26,1.02,2.7,2.8,-17,0.82,0.08,-0,0.57
1697353335.38,0.3,-0.11,0.96,1.7,2.2,-14.8,0.82,0.08,-0,0.57
1697353335.39,0.21,0.06,1.17,1.5,1.7,-12.7,0.82,0.08,-0,0.57
1697353335.4,0.3,0.09,0.92,2.2,1.5,-11.1,0.82,0.08,-0,0.57
1697353335.41,0.27,0.03,0.88,2.1,1.6,-9.5,0.82,0.08,-0,0.57
1697353335.42,0.25,0.11,1.07,0.7,1.4,-7.4,0.82,0.08,-0,0.57
1697353335.43,0.28,0.16,0.79,0.7,1.4,-7.4,0.82,0.08,-0,0.57
1697353335.44,0.12,0.12,1.22,1.9,1,-6.1,0.82,0.08,-0,0.56
1697353335.45,0.26,-0.07,1.07,2.9,0.4,-4.8,0.82,0.08,-0,0.56
1697353335.46,0.29,-0.01,0.83,1.1,0,-3.9,0.82,0.08,-0,0.56
1697353335.47,0.29,0.14,1.03,-1.8,-0.4,-2.9,0.82,0.08,-0,0.56
1697353335.48,0.27,0.25,1.06,-2.2,-0.6,-1.9,0.82,0.08,-0,0.56
1697353335.49,0.3,0.14,1.14,0.5,-0.6,-1.4,0.82,0.08,-0,0.56
1697353335.5,0.3,0,0.92,3.7,-0.6,-0.9,0.82,0.08,-0,0.56
1697353335.51,0.26,-0.13,1.2,4.9,-0.5,-0.6,0.82,0.08,-0,0.56
1697353335.52,0.3,-0.15,1.08,4.9,-0.5,-0.6,0.82,0.08,-0,0.56
1697353335.53,0.24,0.1,1.05,-0.6,-0.9,-1.1,0.82,0.08,-0,0.56
1697353335.54,0.24,0.1,1.05,-0.6,-0.9,-1.1,0.82,0.08,-0,0.56
1697353335.55,0.25,0.38,0.87,1.2,-0.6,0.2,0.82,0.08,-0,0.56
1697353335.56,0.28,0.3,0.99,2.6,-0.7,1.7,0.82,0.08,-0,0.56
1697353335.57,0.28,0.3,0.99,2.6,-0.7,1.7,0.82,0.08,-0,0.56
1697353335.58,0.28,0.3,0.99,2.6,-0.7,1.7,0.82,0.08,-0,0.56
1697353335.59,0.28,0.3,0.99,2.6,-0.7,1.7,0.82,0.08,-0,0.56
1697353335.6,0.28,0.3,0.99,2.6,-0.7,1.7,0.82,0.08,-0,0.56
1697353335.61,0.28,0.3,0.99,2.6,-0.7,1.7,0.82,0.08,-0,0.56
1697353335.62,0.28,0.3,0.99,2.6,-0.7,1.7,0.82,0.08,-0,0.56
1697353335.63,0.28,0.3,0.99,2.6,-0.7,1.7,0.82,0.08,-0,0.56
1697353335.64,0.28,0.3,0.99,2.6,-0.7,1.7,0.82,0.08,-0,0.56
1697353335.65,0.28,0.3,0.99,2.6,-0.7,1.7,0.82,0.08,-0,0.56
1697353335.66,0.28,0.3,0.99,2.6,-0.7,1.7,0.82,0.08,-0,0.56
1697353335.67,0.28,0.3,0.99,2.6,-0.7,1.7,0.82,0.08,-0,0.56
1697353335.68,0.28,0.3,0.99,2.6,-0.7,1.7,0.82,0.08,-0,0.56
1697353335.69,0.28,0.3,0.99,2.6,-0.7,1.7,0.82,0.08,-0,0.56
1697353335.7,0.28,0.3,0.99,2.6,-0.7,1.7,0.82,0.08,-0,0.56
1697353335.71,0.22,0.32,0.98,1.6,0.9,12.4,0.81,0.08,-0,0.58
1697353335.72,0.22,0.28,1.23,0,0.9,12.2,0.81,0.08,-0,0.58
1697353335.73,0.32,0.24,0.95,-1.2,1,12.3,0.81,0.08,-0,0.58
1697353335.74,0.3,0.38,0.96,-0.6,1.4,12.3,0.81,0.08,-0,0.58
1697353335.75,0.33,0.34,0.89,-0.5,1.2,12.4,0.81,0.08,-0,0.58
1697353335.76,0.31,0.36,1.07,-0.3,0.6,12.6,0.81,0.08,-0,0.58
1697353335.77,0.31,0.4,1.05,1,-0.3,13.5,0.81,0.08,-0,0.58
1697353335.78,0.29,0.3,1.15,1.9,-1.5,13.9,0.81,0.08,-0,0.58
1697353335.79,0.37,0.18,0.85,1.9,-1.5,13.9,0.81,0.08,-0,0.58
1697353335.8,0.24,0.15,0.9,1.4,-2.3,13.8,0.81,0.08,-0,0.58
1697353335.81,0.16,0.19,1.14,0,-2.4,14,0.81,0.08,-0,0.59
1697353335.82,0.29,0.18,0.94,-1.2,-2,14.5,0.81,0.08,-0,0.59
1697353335.83,0.2,0.22,1.02,-0.5,-1.5,13.8,0.8,0.08,-0,0.59
1697353335.84,0.27,0.19,0.92,-0.6,-1.1,13.8,0.8,0.08,-0,0.59
1697353335.85,0.18,0.22,1.23,0,-0.5,13.3,0.8,0.08,-0,0.59
1697353335.86,0.37,0.21,0.85,-0.2,-0.2,12.8,0.8,0.08,-0,0.59
1697353335.87,0.27,0.22,0.99,-0.5,0.1,12.1,0.8,0.08,-0,0.59
1697353335.88,0.33,0.28,0.83,0.4,0.2,11.4,0.8,0.08,-0.01,0.59
1697353335.89,0.19,0.19,1.23,0.1,0.2,11.3,0.8,0.08,-0.01,0.59
1697353335.9,0.35,0.31,0.91,0.1,0.6,10.8,0.8,0.08,-0.01,0.59
1697353335.91,0.27,0.27,1.08,1,0.8,10.8,0.8,0.08,-0.01,0.59
1697353335.92,0.28,0.24,1.13,1,0.8,10.8,0.8,0.08,-0.01,0.59
1697353335.93,0.28,0.13,1.03,0,0.6,11.9,0.8,0.08,-0.01,0.6
1697353335.94,0.24,0.24,1.13,0.1,0,12,0.8,0.08,-0.01,0.6
1697353335.95,0.2,0.25,1.18,0.1,0,12,0.8,0.08,-0.01,0.6
1697353335.96,0.3,0.17,1.03,0.4,-0.7,12.8,0.8,0.08,-0.01,0.6
1697353335.97,0.3,0.17,1.03,0.2,-1.3,12.8,0.8,0.08,-0.01,0.6
1697353335.98,0.28,0.21,1.23,0,-2,12.6,0.8,0.08,-0.01,0.6
1697353335.99,0.28,0.21,1.23,-0.3,-2.4,12.4,0.8,0.08,-0.01,0.6
1697353336,0.38,0.23,0.83,-0.9,-2,11.6,0.79,0.08,-0.01,0.6
1697353336.01,0.2,0.32,1.09,-1.7,-1.7,11.4,0.79,0.08,-0.01,0.6
1697353336.02,0.39,0.3,0.94,-1.2,-1.3,11.2,0.79,0.08,-0.01,0.6
1697353336.03,0.26,0.5,0.9,1.3,-1.4,11.5,0.79,0.08,-0.01,0.6
1697353336.04,0.26,0.32,1.07,3.5,-1.6,11.8,0.79,0.08,-0.01,0.6
1697353336.05,0.26,0.25,1.16,2.6,-1.2,12.6,0.79,0.09,-0.01,0.61
1697353336.06,0.2,0.1,0.9,0.5,-0.1,12.7,0.79,0.09,-0.01,0.61
1697353336.07,0.26,0.18,0.98,-1.2,0.5,12.9,0.79,0.09,-0.01,0.61
1697353336.08,0.23,0.27,1,-1.4,1.3,13.4,0.79,0.09,-0.01,0.61
1697353336.09,0.19,0.36,1.04,-0.1,2,13.7,0.79,0.08,-0.01,0.61
1697353336.1,0.19,0.36,1.04,-0.1,2,13.7,0.79,0.08,-0.01,0.61
1697353336.11,0.19,0.36,1.04,-0.1,2,13.7,0.79,0.08,-0.01,0.61
1697353336.12,0.19,0.36,1.04,-0.1,2,13.7,0.79,0.08,-0.01,0.61
1697353336.13,0.19,0.36,1.04,-0.1,2,13.7,0.79,0.08,-0.01,0.61
1697353336.14,0.19,0.36,1.04,-0.1,2,13.7,0.79,0.08,-0.01,0.61
1697353336.15,0.19,0.36,1.04,-0.1,2,13.7,0.79,0.08,-0.01,0.61
1697353336.16,0.19,0.36,1.04,-0.1,2,13.7,0.79,0.08,-0.01,0.61
1697353336.17,0.19,0.36,1.04,-0.1,2,13.7,0.79,0.08,-0.01,0.61
1697353336.18,0.19,0.36,1.04,-0.1,2,13.7,0.79,0.08,-0.01,0.61
1697353336.19,0.19,0.36,1.04,-0.1,2,13.7,0.79,0.08,-0.01,0.61
1697353336.2,0.19,0.36,1.04,-0.1,2,13.7,0.79,0.08,-0.01,0.61
1697353336.21,0.19,0.36,1.04,-0.1,2,13.7,0.79,0.08,-0.01,0.61
1697353336.22,0.19,0.36,1.04,-0.1,2,13.7,0.79,0.08,-0.01,0.61
1697353336.23,0.19,0.36,1.04,-0.1,2,13.7,0.79,0.08,-0.01,0.61
1697353336.24,0.19,0.36,1.04,-0.1,2,13.7,0.79,0.08,-0.01,0.61
1697353336.25,0.19,0.36,1.04,-0.1,2,13.7,0.79,0.08,-0.01,0.61
1697353336.26,0.19,0.36,1.04,-5.2,-3.2,16,0.79,0.08,-0.01,0.61
1697353336.27,0.26,0.71,0.96,-8.1,-1.8,16.9,0.77,0.08,-0.01,0.63
1697353336.28,0.2,0.66,1.19,1.9,-0.9,19.6,0.77,0.08,-0.01,0.63
1697353336.29,0.28,0.27,1.03,1.9,-0.9,19.6,0.77,0.08,-0.01,0.63
1697353336.3,0.34,0.22,0.71,4.2,-0.2,20.7,0.77,0.08,-0.01,0.63
1697353336.31,0.34,0.22,0.71,4.2,-0.2,20.7,0.77,0.08,-0.01,0.63
1697353336.32,0.25,0.22,0.94,3.1,-0.1,20.6,0.77,0.09,-0.01,0.63
1697353336.33,0.37,0.57,0.83,-1.4,-1.4,18.8,0.77,0.08,-0.01,0.64
1697353336.34,0.29,0.6,0.88,-1.4,-1.4,18.8,0.77,0.08,-0.01,0.64
1697353336.35,0.12,0.59,1.3,0.1,-1.8,18.8,0.77,0.08,-0.01,0.64
1697353336.36,0.12,0.59,1.3,1.5,-2.2,18.5,0.76,0.09,-0.01,0.64
1697353336.37,0.31,0.39,0.82,1.1,-2.5,18,0.76,0.09,-0.01,0.64
1697353336.38,0.2,0.47,1.04,-0.2,-2.3,17.5,0.76,0.09,-0.01,0.64
1697353336.39,0.18,0.39,1.08,-0.9,-0.7,17.2,0.76,0.09,-0.01,0.64
1697353336.4,0.15,0.37,1.04,-1.9,0.9,17.4,0.76,0.09,-0.01,0.64
1697353336.41,0.25,0.61,1.09,1.1,3.3,18.3,0.76,0.09,-0.01,0.64
1697353336.42,0.29,0.5,0.81,2.2,3.5,18.5,0.76,0.09,-0.01,0.65
1697353336.43,0.2,0.42,0.97,5.9,4.5,19.2,0.76,0.09,-0.01,0.65
1697353336.44,0.29,0.27,1.02,6.9,4.5,20.3,0.76,0.09,-0.01,0.65
1697353336.45,0.26,0.2,1.22,5.8,3.4,20.7,0.75,0.09,-0.01,0.65
1697353336.46,0.28,0.43,1.05,0.9,1.8,21,0.75,0.09,-0.01,0.65
1697353336.47,0.4,0.53,0.76,-1.7,0.6,21.5,0.75,0.09,-0.01,0.65
1697353336.48,0.33,0.73,0.82,-1.8,-0.6,21.5,0.75,0.09,-0.01,0.65
1697353336.49,0.14,0.63,0.98,0.6,-1.2,21.3,0.75,0.09,-0.01,0.66
1697353336.5,0.19,0.41,0.89,3.8,-1.4,21,0.75,0.09,-0.01,0.66
1697353336.51,0.28,0.31,0.87,4.4,-1.1,20.1,0.75,0.09,-0.01,0.66
1697353336.52,0.39,0.31,0.76,-0.2,-0.2,18.6,0.75,0.09,-0.01,0.66
1697353336.53,0.3,0.48,0.93,-0.8,0.2,18.1,0.74,0.09,-0.01,0.66
1697353336.54,0.24,0.53,1.07,0.7,0.1,18.2,0.74,0.09,-0.01,0.66
1697353336.55,0.3,0.51,0.96,0.9,0.1,18.6,0.74,0.09,-0.01,0.66
1697353336.56,0.25,0.41,1.04,0.3,0,19.1,0.74,0.09,-0.01,0.66
1697353336.57,0.21,0.4,1.3,-0.4,-0.1,19.1,0.74,0.09,-0.01,0.66
1697353336.58,0.14,0.36,1.28,-1.4,-0.6,19,0.74,0.09,-0.01,0.67
1697353336.59,0.28,0.42,0.83,-2.3,-0.3,19.2,0.74,0.09,-0.01,0.67
1697353336.6,0.14,0.44,0.96,-1.1,0,19.2,0.74,0.09,-0.01,0.67
1697353336.61,0.25,0.42,0.66,0.1,0.2,18.7,0.74,0.09,-0.01,0.67
1697353336.62,0.33,0.38,0.81,1.1,1,17.9,0.74,0.09,-0.01,0.67
1697353336.63,0.19,0.34,0.9,1.6,0.9,17.6,0.73,0.09,-0.01,0.67
1697353336.64,0.21,0.23,1.18,0.3,1,16.5,0.73,0.09,-0.01,0.67
1697353336.65,0.33,0.41,0.82,0.1,0.9,15.8,0.73,0.09,-0.01,0.67
1697353336.66,0.33,0.41,0.82,0.1,0.9,15.8,0.73,0.09,-0.01,0.68
1697353336.67,0.33,0.41,0.82,0.1,0.9,15.8,0.73,0.09,-0.01,0.68
1697353336.68,0.33,0.41,0.82,0.1,0.9,15.8,0.73,0.09,-0.01,0.68
1697353336.69,0.33,0.41,0.82,0.1,0.9,15.8,0.73,0.09,-0.01,0.68
1697353336.7,0.33,0.41,0.82,0.1,0.9,15.8,0.73,0.09,-0.01,0.68
1697353336.71,0.33,0.41,0.82,0.1,0.9,15.8,0.73,0.09,-0.01,0.68
1697353336.72,0.33,0.41,0.82,0.1,0.9,15.8,0.73,0.09,-0.01,0.68
1697353336.73,0.33,0.41,0.82,0.1,0.9,15.8,0.73,0.09,-0.01,0.68
1697353336.74,0.33,0.41,0.82,0.1,0.9,15.8,0.73,0.09,-0.01,0.68
1697353336.75,0.33,0.41,0.82,0.1,0.9,15.8,0.73,0.09,-0.01,0.68
1697353336.76,0.33,0.41,0.82,0.1,0.9,15.8,0.73,0.09,-0.01,0.68
1697353336.77,0.33,0.41,0.82,0.1,0.9,15.8,0.73,0.09,-0.01,0.68
1697353336.78,0.33,0.41,0.82,0.1,0.9,15.8,0.73,0.09,-0.01,0.68
1697353336.79,0.26,0.14,1.19,0.1,-4.1,9.1,0.73,0.09,-0.01,0.68
1697353336.8,0.21,0.12,1.13,-0.6,-4,7.3,0.72,0.09,-0.02,0.69
1697353336.81,0.21,0.21,0.99,-1.1,-3.9,6.8,0.72,0.09,-0.02,0.69
1697353336.82,0.18,0.12,0.85,-0.5,-3.7,6.6,0.72,0.09,-0.02,0.69
1697353336.83,0.11,0.01,1.13,0.1,-2.9,6.3,0.72,0.09,-0.02,0.69
1697353336.84,0.28,-0.01,0.87,-0.9,-1.8,5.4,0.72,0.09,-0.02,0.69
1697353336.85,0.21,-0.07,0.97,-3.4,0.4,4.2,0.72,0.09,-0.02,0.69
1697353336.86,0.19,0.06,1.27,-4.3,1.6,3.6,0.72,0.09,-0.02,0.69
1697353336.87,0.23,0.13,1.09,-4.3,2.2,3.5,0.72,0.08,-0.02,0.69
1697353336.88,0.2,0.22,1.1,-0.7,2.6,3.1,0.72,0.08,-0.02,0.69
1697353336.89,0.21,0.18,1.23,1.8,2.3,3.8,0.72,0.08,-0.02,0.69
1697353336.9,0.21,-0.08,1.15,3.3,2.2,3.8,0.72,0.08,-0.02,0.69
1697353336.91,0.15,-0.07,1.08,1.9,1.5,3.3,0.72,0.08,-0.02,0.69
1697353336.92,0.06,0.04,1.05,-0.3,0.5,3,0.72,0.08,-0.02,0.69
1697353336.93,0.05,-0.01,0.99,-1.7,-0.6,3.8,0.72,0.08,-0.02,0.69
1697353336.94,0.12,0.32,0.82,-2.1,-1.2,4.6,0.72,0.08,-0.02,0.69
1697353336.95,-0.06,0.15,0.94,0,-2.1,5.3,0.72,0.08,-0.02,0.69
1697353336.96,0.08,-0.04,0.74,1.6,-2.4,5.4,0.72,0.08,-0.02,0.69
1697353336.97,0.03,0.17,0.86,0,-1.4,5.7,0.72,0.08,-0.02,0.69
1697353336.98,-0.08,0.2,0.95,-1.4,-0.2,5.9,0.72,0.08,-0.02,0.69
1697353336.99,-0.05,0.26,0.96,-1.1,1.5,6,0.72,0.08,-0.02,0.69
1697353337,-0.21,0.12,1.18,1.4,3,5.8,0.72,0.08,-0.02,0.69
1697353337.01,-0.26,0.12,1.32,4.3,3.8,5.7,0.72,0.08,-0.02,0.69
1697353337.02,-0.12,-0,1.07,4.6,4.1,5.5,0.71,0.08,-0.02,0.69
1697353337.03,-0.24,0.02,0.9,3.5,3.9,5.3,0.71,0.08,-0.02,0.69
1697353337.04,-0.5,-0,1.06,-0.9,3.8,4.3,0.71,0.08,-0.02,0.69
1697353337.05,-0.65,0.37,1.14,-2.1,4.6,4,0.71,0.08,-0.02,0.7
1697353337.06,-0.77,0.13,1.17,-1.4,5.8,4,0.71,0.08,-0.02,0.7
1697353337.07,-0.77,0.13,1.17,-1.4,5.8,4,0.71,0.08,-0.02,0.7
1697353337.08,-0.34,0.07,1.03,-0.1,6.4,3.8,0.71,0.08,-0.02,0.7
1697353337.09,-0.34,0.07,1.03,-0.1,6.4,3.8,0.71,0.08,-0.02,0.7
1697353337.1,0.25,0.12,1.16,0,5.3,3.1,0.71,0.08,-0.02,0.7
1697353337.11,0.25,0.12,1.16,-1.2,3.6,2.4,0.71,0.08,-0.02,0.7
1697353337.12,0.06,0.01,0.57,-1.2,1.1,2.6,0.71,0.08,-0.02,0.7
1697353337.13,0.06,0.1,0.87,-0.5,-1.4,2.4,0.71,0.08,-0.02,0.7
1697353337.14,-0.06,-0.09,1.21,1.4,-3,2.3,0.71,0.08,-0.02,0.7
1697353337.15,-0.01,-0.04,1.07,2.8,-3.9,2.1,0.71,0.08,-0.02,0.7
1697353337.16,-0.06,-0.14,1.05,1.9,-3.1,2.2,0.71,0.08,-0.02,0.7
1697353337.17,-0.06,-0.04,0.95,-0.6,-2.5,2.3,0.71,0.08,-0.02,0.7
1697353337.18,-0.06,-0.04,0.95,-0.6,-2.5,2.3,0.71,0.08,-0.02,0.7
1697353337.19,-0.06,-0.04,0.95,-0.6,-2.5,2.3,0.71,0.08,-0.02,0.7
1697353337.2,-0.06,-0.04,0.95,-0.6,-2.5,2.3,0.71,0.08,-0.02,0.7
1697353337.21,-0.06,-0.04,0.95,-0.6,-2.5,2.3,0.71,0.08,-0.02,0.7
1697353337.22,-0.06,-0.04,0.95,-0.6,-2.5,2.3,0.71,0.08,-0.02,0.7
1697353337.23,-0.06,-0.04,0.95,-0.6,-2.5,2.3,0.71,0.08,-0.02,0.7
1697353337.24,-0.06,-0.04,0.95,-0.6,-2.5,2.3,0.71,0.08,-0.02,0.7
1697353337.25,-0.06,-0.04,0.95,-0.6,-2.5,2.3,0.71,0.08,-0.02,0.7
1697353337.26,-0.06,-0.04,0.95,-0.6,-2.5,2.3,0.71,0.08,-0.02,0.7
1697353337.27,-0.06,-0.04,0.95,-0.6,-2.5,2.3,0.71,0.08,-0.02,0.7
1697353337.28,-0.06,-0.04,0.95,-0.6,-2.5,2.3,0.71,0.08,-0.02,0.7
1697353337.29,-0.06,-0.04,0.95,-0.6,-2.5,2.3,0.71,0.08,-0.02,0.7
1697353337.3,-0.06,-0.04,0.95,-0.6,-2.5,2.3,0.71,0.08,-0.02,0.7
1697353337.31,0.08,0.09,0.76,0.6,-1.9,-0.3,0.71,0.08,-0.02,0.7
1697353337.32,-0.14,0.05,1.12,0.6,-1.9,-0.3,0.71,0.08,-0.02,0.7
1697353337.33,-0.16,-0.12,1.02,1.9,0,0,0.71,0.08,-0.02,0.7
1697353337.34,-0.16,-0.12,1.02,1.9,0,0,0.71,0.08,-0.02,0.7
1697353337.35,-0.02,0.03,0.77,-2.6,2.3,0,0.71,0.08,-0.02,0.7
1697353337.36,-0.03,0.21,0.89,-2.7,2,-0.1,0.71,0.08,-0.02,0.7
1697353337.37,-0.13,0.11,1.41,-1.1,1.3,0.1,0.71,0.08,-0.02,0.7
1697353337.38,-0.1,-0.01,1.19,0.8,0.6,0.5,0.71,0.08,-0.02,0.7
1697353337.39,-0.08,-0.06,0.96,2,-0.4,0.3,0.71,0.08,-0.02,0.7
1697353337.4,-0.05,-0.02,0.94,2.3,-1.2,0,0.71,0.08,-0.02,0.7
1697353337.41,-0.05,-0.02,0.94,2.3,-1.2,0,0.71,0.08,-0.02,0.7
1697353337.42,0.05,-0.05,0.68,0.8,-0.9,0,0.71,0.08,-0.02,0.7
1697353337.43,-0.01,0.05,0.82,-0.7,-0.8,0,0.71,0.08,-0.02,0.7
1697353337.44,-0.18,0,1.11,-1.1,-0.7,-0.4,0.71,0.08,-0.02,0.7
1697353337.45,-0.12,0.12,0.95,-1.6,0,-0.5,0.71,0.08,-0.02,0.7
1697353337.46,-0.11,0.03,1.04,0.5,0.3,0,0.71,0.08,-0.02,0.7
1697353337.47,-0.14,-0.11,1.1,0.7,0,-0.1,0.71,0.08,-0.02,0.7
1697353337.48,-0.18,0,1.06,0,-0.3,-0.1,0.71,0.08,-0.02,0.7
1697353337.49,-0.19,-0.12,1.14,-0.6,-0.5,-0.3,0.71,0.08,-0.02,0.7
1697353337.5,-0.29,-0.03,1.27,-0.3,-0.2,-0.4,0.71,0.08,-0.02,0.7
1697353337.51,-0.21,0.02,0.95,-0.5,0,-0.1,0.71,0.08,-0.02,0.7
1697353337.52,-0.07,0.04,0.85,-0.4,-0.1,0,0.71,0.08,-0.02,0.7
1697353337.53,-0.17,-0.03,1.04,0.2,-0.2,-0.1,0.71,0.08,-0.02,0.7
1697353337.54,-0.09,-0.05,1.1,1.2,-0.9,0,0.71,0.08,-0.02,0.7
1697353337.55,-0.09,-0.13,0.97,1.8,-1.3,0,0.71,0.08,-0.02,0.7
1697353337.56,0.1,0,0.93,0.9,-1.6,0,0.71,0.08,-0.02,0.7
1697353337.57,-0.01,-0.08,0.79,-0.2,-1.3,0,0.71,0.08,-0.02,0.7
1697353337.58,-0.15,-0.01,1.05,-0.6,-0.5,0.1,0.71,0.08,-0.02,0.7
1697353337.59,-0.2,0.1,1.12,-1.9,0.1,0.3,0.71,0.08,-0.02,0.7
1697353337.6,-0.09,0.04,0.98,0.2,1.2,0.2,0.71,0.08,-0.02,0.7
1697353337.61,-0.07,0.01,1.07,1.1,2.1,0.3,0.71,0.08,-0.02,0.7
1697353337.62,0,-0.07,0.94,0.7,2.1,0,0.71,0.08,-0.02,0.7
1697353337.63,-0.06,0.01,1.01,-1.4,2,-0.1,0.71,0.08,-0.02,0.7
1697353337.64,-0.01,0.12,1.08,-2.1,2.1,-0.2,0.71,0.08,-0.02,0.7
1697353337.65,0.01,0,0.86,-0.6,1.8,-0.3,0.71,0.08,-0.02,0.7
1697353337.66,-0.04,0.02,0.66,0,1.9,-0.5,0.71,0.08,-0.02,0.7
1697353337.67,-0.16,-0.03,0.85,0.3,2.3,-0.6,0.71,0.08,-0.02,0.7
1697353337.68,-0.04,-0.04,0.84,-0.8,2.7,-0.5,0.71,0.08,-0.02,0.7
1697353337.69,-0.22,0.03,1.08,-0.6,2.8,-0.5,0.71,0.08,-0.02,0.7
1697353337.7,-0.21,-0.12,0.98,-0.6,2.8,-0.5,0.71,0.08,-0.02,0.7
1697353337.71,-0.21,-0.12,0.98,-0.6,2.8,-0.5,0.71,0.08,-0.02,0.7
1697353337.72,-0.21,-0.12,0.98,-0.6,2.8,-0.5,0.71,0.08,-0.02,0.7
1697353337.73,-0.21,-0.12,0.98,-0.6,2.8,-0.5,0.71,0.08,-0.02,0.7
1697353337.74,-0.21,-0.12,0.98,-0.6,2.8,-0.5,0.71,0.08,-0.02,0.7
1697353337.75,-0.21,-0.12,0.98,-0.6,2.8,-0.5,0.71,0.08,-0.02,0.7
1697353337.76,-0.21,-0.12,0.98,-0.6,2.8,-0.5,0.71,0.08,-0.02,0.7
1697353337.77,-0.21,-0.12,0.98,-0.6,2.8,-0.5,0.71,0.08,-0.02,0.7
1697353337.78,-0.21,-0.12,0.98,-0.6,2.8,-0.5,0.71,0.08,-0.02,0.7
1697353337.79,-0.21,-0.12,0.98,-0.6,2.8,-0.5,0.71,0.08,-0.02,0.7
1697353337.8,-0.21,-0.12,0.98,-0.6,2.8,-0.5,0.71,0.08,-0.02,0.7
1697353337.81,-0.21,-0.12,0.98,-0.6,2.8,-0.5,0.71,0.08,-0.02,0.7
1697353337.82,-0.21,-0.12,0.98,-0.6,2.8,-0.5,0.71,0.08,-0.02,0.7
1697353337.83,-0.21,-0.12,0.98,-0.6,2.8,-0.5,0.71,0.08,-0.02,0.7
1697353337.84,0.04,-0.08,0.79,0,1.5,-2,0.71,0.08,-0.01,0.7
1697353337.85,-0.11,-0.06,0.92,-0.7,1.2,-2.3,0.71,0.08,-0.01,0.7
1697353337.86,-0.16,0.05,0.98,-2,0.2,-1.7,0.71,0.08,-0.01,0.7
1697353337.87,-0.11,-0,0.94,-0.5,-0.6,-1.8,0.71,0.08,-0.01,0.7
1697353337.88,0.05,-0.07,1.09,1.8,-0.7,-2.2,0.71,0.08,-0.01,0.7
1697353337.89,0.05,-0.07,1.09,-0.6,-1.6,-2.6,0.71,0.08,-0.01,0.7
1697353337.9,0.02,0.03,1.01,-3.4,-2.3,-2.8,0.71,0.08,-0.01,0.7
1697353337.91,-0.04,-0.02,0.85,-3.8,-2.5,-2.8,0.71,0.08,-0.02,0.7
1697353337.92,0.01,0.03,0.85,-2.9,-1.9,-2.8,0.71,0.08,-0.02,0.7
1697353337.93,-0.05,0.02,0.79,-1.9,-0.9,-2.4,0.71,0.08,-0.02,0.7
1697353337.94,-0.06,-0.03,0.88,1.8,0.9,-2.3,0.71,0.08,-0.02,0.7
1697353337.95,-0.08,-0.24,1.17,3.2,2.3,-2.2,0.71,0.08,-0.02,0.7
1697353337.96,-0.02,-0.18,1.05,1.6,2.8,-1.9,0.71,0.08,-0.01,0.7
1697353337.97,-0.16,-0.1,1.15,-0.2,2,-2.1,0.71,0.08,-0.01,0.7
1697353337.98,-0.21,-0.05,1.47,-0.6,1.2,-2.1,0.71,0.08,-0.01,0.7
1697353337.99,-0.11,0.02,0.7,-0.3,0.5,-1.6,0.71,0.08,-0.01,0.7
1697353338,-0.16,-0.08,0.93,0.9,-0.3,-1.4,0.71,0.08,-0.01,0.7
1697353338.01,-0.06,-0.07,0.81,0.6,-1.1,-1.3,0.71,0.08,-0.01,0.7
1697353338.02,-0.12,-0.1,0.83,-0.7,-0.9,-1.5,0.71,0.08,-0.01,0.7
1697353338.03,-0.11,0,0.86,-3.6,-0.3,-1.6,0.71,0.08,-0.02,0.7
1697353338.04,-0.09,0.2,1.02,-6.1,0,-1.6,0.71,0.08,-0.02,0.7
1697353338.05,0.04,0.12,0.92,-3.4,0.9,-1.6,0.71,0.08,-0.02,0.7
1697353338.06,-0.11,0.04,0.92,0.1,1,-1.6,0.71,0.08,-0.02,0.7
1697353338.07,-0.04,-0.06,1,1.8,1.3,-1.9,0.71,0.08,-0.02,0.7
1697353338.08,-0.14,-0.09,1.04,0.7,1.3,-1.9,0.71,0.08,-0.01,0.7
1697353338.09,-0.09,-0.11,1.26,-0.4,0.5,-1.9,0.71,0.08,-0.01,0.7
1697353338.1,-0.11,-0.08,1.16,-1.1,-0.1,-1.8,0.71,0.08,-0.01,0.69
1697353338.11,-0.08,0.05,1.25,-1.8,-1.2,-1.6,0.71,0.08,-0.01,0.69
1697353338.12,-0.01,0.17,0.64,-0.8,-1.6,-0.7,0.71,0.08,-0.01,0.69
1697353338.13,-0.12,-0.08,0.94,0.8,-1.6,0.1,0.71,0.08,-0.02,0.69
1697353338.14,-0.01,-0.04,0.83,0.8,-0.5,0.1,0.71,0.08,-0.02,0.69
1697353338.15,-0.17,0.01,1.01,-1.4,-0.1,0.6,0.71,0.08,-0.02,0.69
1697353338.16,-0.05,0.04,0.98,-2,0.5,1.2,0.71,0.08,-0.02,0.69
1697353338.17,-0.07,0.1,0.83,-0.1,1.2,1.4,0.71,0.08,-0.02,0.69
1697353338.18,-0.07,0.06,0.97,1.7,1.5,1.6,0.71,0.08,-0.02,0.69
1697353338.19,-0.15,0.07,1.03,0.8,0.9,1.6,0.71,0.08,-0.02,0.69
1697353338.2,-0.14,0.06,1.34,0.9,0.1,1.5,0.71,0.08,-0.02,0.7
1697353338.21,-0.17,0.01,1.08,0.8,0,1.5,0.71,0.08,-0.02,0.7
1697353338.22,-0.06,-0.04,1.02,0.6,-0.5,1,0.71,0.08,-0.01,0.7
1697353338.23,-0.06,-0.04,1.02,0.6,-0.5,1,0.71,0.08,-0.01,0.7
1697353338.24,-0.06,-0.04,1.02,0.6,-0.5,1,0.71,0.08,-0.01,0.7
1697353338.25,-0.06,-0.04,1.02,0.6,-0.5,1,0.71,0.08,-0.01,0.7
1697353338.26,-0.06,-0.04,1.02,0.6,-0.5,1,0.71,0.08,-0.01,0.7
1697353338.27,-0.06,-0.04,1.02,0.6,-0.5,1,0.71,0.08,-0.01,0.7
1697353338.28,-0.06,-0.04,1.02,0.6,-0.5,1,0.71,0.08,-0.01,0.7
1697353338.29,-0.06,-0.04,1.02,0.6,-0.5,1,0.71,0.08,-0.01,0.7
1697353338.3,-0.06,-0.04,1.02,0.6,-0.5,1,0.71,0.08,-0.01,0.7
1697353338.31,-0.06,-0.04,1.02,0.6,-0.5,1,0.71,0.08,-0.01,0.7
1697353338.32,-0.06,-0.04,1.02,0.6,-0.5,1,0.71,0.08,-0.01,0.7
1697353338.33,-0.06,-0.04,1.02,0.6,-0.5,1,0.71,0.08,-0.01,0.7
1697353338.34,-0.06,-0.04,1.02,0.6,-0.5,1,0.71,0.08,-0.01,0.7
1697353338.35,-0.06,-0.04,1.02,0.6,-0.5,1,0.71,0.08,-0.01,0.7
1697353338.36,-0.06,-0.04,1.02,0.6,-0.5,1,0.71,0.08,-0.01,0.7
1697353338.37,-0.06,-0.04,1.02,0.6,-0.5,1,0.71,0.08,-0.01,0.7
1697353338.38,-0.06,-0.04,1.02,0.6,-0.5,1,0.71,0.08,-0.01,0.7
1697353338.39,-0.06,-0.04,1.02,0.6,-0.5,1,0.71,0.08,-0.01,0.7
1697353338.4,-0.06,-0.04,1.02,0.6,-0.5,1,0.71,0.08,-0.01,0.7
1697353338.41,-0.06,-0.04,1.02,0.6,-0.5,1,0.71,0.08,-0.01,0.7
1697353338.42,-0.06,-0.04,1.02,0.6,-0.5,1,0.71,0.08,-0.01,0.7
1697353338.43,-0.06,-0.04,1.02,0.6,-0.5,1,0.71,0.08,-0.01,0.7
1697353338.44,-0.06,-0.04,1.02,0.6,-0.5,1,0.71,0.08,-0.01,0.7
1697353338.45,-0.06,-0.04,1.02,0.6,-0.5,1,0.71,0.08,-0.01,0.7
1697353338.46,-0.06,-0.04,1.02,0.6,-0.5,1,0.71,0.08,-0.01,0.7
1697353338.47,-0.06,-0.04,1.02,0.6,-0.5,1,0.71,0.08,-0.01,0.7
1697353338.48,-0.06,-0.04,1.02,0.6,-0.5,1,0.71,0.08,-0.01,0.7
1697353338.49,-0.06,-0.04,1.02,0.6,-0.5,1,0.71,0.08,-0.01,0.7
1697353338.5,-0.06,-0.04,1.02,0.6,-0.5,1,0.71,0.08,-0.01,0.7
1697353338.51,-0.06,-0.04,1.02,0.6,-0.5,1,0.71,0.08,-0.01,0.7
1697353338.52,-0.06,-0.04,1.02,0.6,-0.5,1,0.71,0.08,-0.01,0.7
1697353338.53,-0.06,-0.04,1.02,0.6,-0.5,1,0.71,0.08,-0.01,0.7
1697353338.54,-0.06,-0.04,1.02,0.6,-0.5,1,0.71,0.08,-0.01,0.7
1697353338.55,-0.06,-0.04,1.02,0.6,-0.5,1,0.71,0.08,-0.01,0.7
1697353338.56,-0.06,-0.04,1.02,0.6,-0.5,1,0.71,0.08,-0.01,0.7
1697353338.57,-0.06,-0.04,1.02,0.6,-0.5,1,0.71,0.08,-0.01,0.7
1697353338.58,-0.06,-0.04,1.02,0.6,-0.5,1,0.71,0.08,-0.01,0.7
1697353338.59,-0.06,-0.04,1.02,0.6,-0.5,1,0.71,0.08,-0.01,0.7
1697353338.6,-0.06,-0.04,1.02,0.6,-0.5,1,0.71,0.08,-0.01,0.7
1697353338.61,-0.06,-0.04,1.02,0.6,-0.5,1,0.71,0.08,-0.01,0.7
1697353338.62,-0.06,-0.04,1.02,0.6,-0.5,1,0.71,0.08,-0.01,0.7
1697353338.63,-0.06,-0.04,1.02,0.6,-0.5,1,0.71,0.08,-0.01,0.7
1697353338.64,-0.06,-0.04,1.02,0.6,-0.5,1,0.71,0.08,-0.01,0.7
1697353338.65,-0.06,-0.04,1.02,0.6,-0.5,1,0.71,0.08,-0.01,0.7
1697353338.66,-0.06,-0.04,1.02,0.6,-0.5,1,0.71,0.08,-0.01,0.7
1697353338.67,-0.06,-0.04,1.02,0.6,-0.5,1,0.71,0.08,-0.01,0.7
1697353338.68,-0.06,-0.04,1.02,0.6,-0.5,1,0.71,0.08,-0.01,0.7
1697353338.69,-0.06,-0.04,1.02,0.6,-0.5,1,0.71,0.08,-0.01,0.7
1697353338.7,-0.06,-0.04,1.02,0.6,-0.5,1,0.71,0.08,-0.01,0.7
1697353338.71,-0.06,-0.04,1.02,0.6,-0.5,1,0.71,0.08,-0.01,0.7
1697353338.72,-0.06,-0.04,1.02,0.6,-0.5,1,0.71,0.08,-0.01,0.7
1697353338.73,-0.06,-0.04,1.02,0.6,-0.5,1,0.71,0.08,-0.01,0.7
1697353338.74,-0.06,-0.04,1.02,0.6,-0.5,1,0.71,0.08,-0.01,0.7
1697353338.75,-0.06,-0.04,1.02,0.6,-0.5,1,0.71,0.08,-0.01,0.7
1697353338.76,-0.06,-0.04,1.02,0.6,-0.5,1,0.71,0.08,-0.01,0.7
1697353338.77,-0.06,-0.04,1.02,0.6,-0.5,1,0.71,0.08,-0.01,0.7
1697353338.78,-0.06,-0.04,1.02,0.6,-0.5,1,0.71,0.08,-0.01,0.7
1697353338.79,-0.06,-0.04,1.02,0.6,-0.5,1,0.71,0.08,-0.01,0.7
1697353338.8,-0.06,-0.04,1.02,0.6,-0.5,1,0.71,0.08,-0.01,0.7
1697353338.81,-0.06,-0.04,1.02,0.6,-0.5,1,0.71,0.08,-0.01,0.7
1697353338.82,-0.06,-0.04,1.02,0.6,-0.5,1,0.71,0.08,-0.01,0.7
1697353338.83,-0.06,-0.04,1.02,0.6,-0.5,1,0.71,0.08,-0.01,0.7
1697353338.84,-0.06,-0.04,1.02,0.6,-0.5,1,0.71,0.08,-0.01,0.7
1697353338.85,-0.06,-0.04,1.02,0.6,-0.5,1,0.71,0.08,-0.01,0.7
1697353338.86,-0.06,-0.04,1.02,0.6,-0.5,1,0.71,0.08,-0.01,0.7
1697353338.87,-0.06,-0.04,1.02,0.6,-0.5,1,0.71,0.08,-0.01,0.7
1697353338.88,-0.06,-0.04,1.02,0.6,-0.5,1,0.71,0.08,-0.01,0.7
1697353338.89,-0.06,-0.04,1.02,0.6,-0.5,1,0.71,0.08,-0.01,0.7
1697353338.9,-0.06,-0.04,1.02,0.6,-0.5,1,0.71,0.08,-0.01,0.7
1697353338.91,-0.06,-0.04,1.02,0.6,-0.5,1,0.71,0.08,-0.01,0.7
1697353338.92,-0.06,-0.04,1.02,0.6,-0.5,1,0.71,0.08,-0.01,0.7
1697353338.93,-0.24,0.57,1.49,6.2,0.5,16.6,0.7,0.07,-0.01,0.71
1697353338.94,-0.08,0.58,0.84,5.4,0.9,19.1,0.7,0.07,-0.01,0.71
1697353338.95,-0.15,0.65,1.19,2.8,0.9,22.1,0.7,0.08,-0.01,0.71
1697353338.96,-0.12,0.77,0.98,1.6,0.8,24,0.7,0.08,-0.01,0.71
1697353338.97,-0.03,0.81,0.77,2.1,0.7,27.5,0.7,0.08,-0.01,0.71
1697353338.98,-0.15,0.85,1.04,3.3,0.5,29.7,0.7,0.08,-0.01,0.71
1697353338.99,-0.06,0.81,0.73,5.3,0,31.6,0.69,0.08,-0.01,0.72
1697353339,-0.18,0.66,1.06,5.4,-0.1,32.4,0.69,0.08,-0.01,0.72
1697353339.01,-0.11,0.71,1.03,4,-0.5,32.6,0.69,0.08,-0.01,0.72
1697353339.02,-0.21,0.7,1.26,1.6,-1.2,32.5,0.69,0.08,-0.01,0.72
1697353339.03,-0.22,0.66,1.13,-0.2,-1,32.2,0.69,0.08,-0.01,0.72
1697353339.04,-0.12,0.85,0.85,-0.5,-0.6,31.4,0.69,0.08,-0.01,0.72
1697353339.05,-0.16,0.8,0.9,-0.2,-0.6,31.2,0.68,0.08,-0.01,0.73
1697353339.06,-0.12,0.8,0.84,0.5,0,31.1,0.68,0.08,-0.01,0.73
1697353339.07,-0.13,0.74,1.14,1.1,0.5,30.8,0.68,0.08,-0.01,0.73
1697353339.08,-0.12,0.66,1.24,0.8,0.7,30.6,0.68,0.08,-0.01,0.73
1697353339.09,-0.11,0.65,0.98,-0.9,1.1,30.5,0.68,0.08,-0.01,0.73
1697353339.1,-0.14,0.73,1.26,-2.4,1,30.3,0.67,0.08,-0.01,0.73
1697353339.11,-0.17,0.8,1.21,-3,0.2,30.3,0.67,0.08,-0.01,0.74
1697353339.12,-0.14,0.78,1,-1.2,0,30.6,0.67,0.08,-0.01,0.74
1697353339.13,-0.12,0.7,1.02,0.9,0,30.8,0.67,0.08,-0.01,0.74
1697353339.14,-0.14,0.56,0.9,1.1,0,30.8,0.67,0.08,-0.01,0.74
1697353339.15,-0.07,0.6,0.97,0.4,0.4,30.8,0.66,0.08,-0.01,0.74
1697353339.16,-0.12,0.55,1.24,-1.4,0.3,30.7,0.66,0.08,-0.01,0.75
1697353339.17,-0.02,0.7,1.21,-3.7,-0.4,30.6,0.66,0.08,-0.01,0.75
1697353339.18,-0.01,0.78,0.84,-4.4,-1.3,30.7,0.66,0.08,-0.01,0.75
1697353339.19,-0.21,0.83,1.19,-1.2,-2,31.4,0.66,0.08,-0.01,0.75
1697353339.2,-0.15,0.65,0.92,1.7,-2.1,32,0.65,0.08,-0.01,0.75
1697353339.21,-0.15,0.65,0.92,1.7,-2.1,32,0.65,0.08,-0.01,0.75
1697353339.22,-0.19,0.48,1.17,2.2,-1,31.8,0.65,0.08,-0.01,0.76
1697353339.23,-0.1,0.54,1.17,-1,-0.8,31.5,0.65,0.08,-0.01,0.76
1697353339.24,-0.16,0.73,1.01,-1,-0.8,31.5,0.64,0.08,-0.01,0.76
1697353339.25,-0.14,0.92,1.1,-3,-0.2,31.6,0.64,0.08,-0.02,0.76
1697353339.26,-0.14,0.92,1.1,-3,-0.2,31.6,0.64,0.08,-0.02,0.76
1697353339.27,-0.05,0.67,0.75,1.6,-0.5,32,0.64,0.08,-0.02,0.77
1697353339.28,0.05,0.58,0.78,3.6,-0.4,32,0.64,0.08,-0.02,0.77
1697353339.29,-0.07,0.48,1.04,2.8,-0.1,31.8,0.64,0.08,-0.02,0.77
1697353339.3,-0.16,0.43,1.14,-0.5,-0.1,31.2,0.63,0.08,-0.02,0.77
1697353339.31,-0.2,0.67,0.93,-3.8,0,30.5,0.63,0.08,-0.02,0.77
1697353339.32,-0.2,0.67,0.93,-3.8,0,30.5,0.63,0.08,-0.02,0.77
1697353339.33,-0.2,0.67,0.93,-3.8,0,30.5,0.63,0.08,-0.02,0.77
1697353339.34,-0.2,0.67,0.93,-3.8,0,30.5,0.63,0.08,-0.02,0.77
1697353339.35,-0.2,0.67,0.93,-3.8,0,30.5,0.63,0.08,-0.02,0.77
1697353339.36,-0.2,0.67,0.93,-3.8,0,30.5,0.63,0.08,-0.02,0.77
1697353339.37,-0.2,0.67,0.93,-3.8,0,30.5,0.63,0.08,-0.02,0.77
1697353339.38,-0.2,0.67,0.93,-3.8,0,30.5,0.63,0.08,-0.02,0.77
1697353339.39,-0.2,0.67,0.93,-3.8,0,30.5,0.63,0.08,-0.02,0.77
1697353339.4,-0.2,0.67,0.93,-3.8,0,30.5,0.63,0.08,-0.02,0.77
1697353339.41,-0.2,0.67,0.93,-3.8,0,30.5,0.63,0.08,-0.02,0.77
1697353339.42,-0.2,0.67,0.93,-3.8,0,30.5,0.63,0.08,-0.02,0.77
1697353339.43,-0.2,0.67,0.93,-3.8,0,30.5,0.63,0.08,-0.02,0.77
1697353339.44,-0.2,0.67,0.93,-3.8,0,30.5,0.63,0.08,-0.02,0.77
1697353339.45,-0.18,0.45,0.97,1.4,-1,28.6,0.6,0.08,-0.02,0.8
1697353339.46,-0.08,0.47,0.86,0,-0.3,28,0.6,0.08,-0.02,0.8
1697353339.47,-0.15,0.49,1,-1.3,-0.2,27.5,0.6,0.08,-0.02,0.8
1697353339.48,-0.14,0.6,0.93,-2.5,0.1,28,0.59,0.08,-0.02,0.8
1697353339.49,-0.18,0.67,1.02,-1.4,0.4,28.6,0.59,0.08,-0.02,0.8
1697353339.5,-0.06,0.77,0.95,1.7,0,29.3,0.59,0.08,-0.02,0.8
1697353339.51,-0.14,0.78,1.12,5.1,-0.1,29.9,0.59,0.08,-0.02,0.81
1697353339.52,-0.25,0.22,1.08,2,0.1,29.3,0.59,0.08,-0.02,0.81
1697353339.53,-0.05,0.35,1.07,-2.8,0.7,29.2,0.58,0.08,-0.02,0.81
1697353339.54,0.02,0.51,1.1,-2.8,0.7,29.2,0.58,0.08,-0.02,0.81
1697353339.55,-0.06,0.45,0.75,-2.5,0.7,28.4,0.58,0.08,-0.02,0.81
1697353339.56,-0.06,0.45,0.75,-2.5,0.7,28.4,0.58,0.08,-0.02,0.81
1697353339.57,0.03,0.57,0.93,0.5,0.7,26.7,0.58,0.08,-0.02,0.81
1697353339.58,-0.01,0.3,0.88,3.1,0.2,25.6,0.57,0.08,-0.02,0.82
1697353339.59,-0.01,0.3,0.88,3.1,0.2,25.6,0.57,0.08,-0.02,0.82
1697353339.6,-0.15,0.05,1.03,1.5,-0.4,21.1,0.57,0.08,-0.02,0.82
1697353339.61,-0.15,0.05,1.03,1.5,-0.4,21.1,0.57,0.08,-0.02,0.82
1697353339.62,-0.21,0.23,1.09,-5.3,-0.7,16.3,0.57,0.07,-0.02,0.82
1697353339.63,-0.21,0.23,1.09,-5.3,-0.7,16.3,0.57,0.07,-0.02,0.82
1697353339.64,-0.13,0.45,0.96,-5.7,-0.6,14.4,0.57,0.07,-0.02,0.82
1697353339.65,-0.13,0.45,0.96,-2.5,-0.4,13.4,0.57,0.07,-0.02,0.82
1697353339.66,-0.12,-0.35,0.84,0.9,0,11.9,0.57,0.07,-0.02,0.82
1697353339.67,-0.12,-0.35,0.84,-3.6,0.5,9.1,0.56,0.07,-0.02,0.82
1697353339.68,-0.04,-0.62,1.04,-8.5,1,5.3,0.56,0.07,-0.03,0.82
1697353339.69,-0.04,-0.62,1.04,-11.9,2.1,1.2,0.56,0.07,-0.03,0.82
1697353339.7,-0.07,-0.44,0.95,-11.7,2.2,-2.9,0.56,0.07,-0.03,0.82
1697353339.71,-0.07,-0.44,0.95,-8.6,2.1,-7.5,0.56,0.07,-0.03,0.82
1697353339.72,-0.01,-0.59,1.33,-5.6,2,-12.7,0.57,0.07,-0.03,0.82
1697353339.73,-0.01,-0.69,0.9,-4.9,1.2,-15.8,0.57,0.07,-0.03,0.82
1697353339.74,-0.18,-0.9,1.07,-6.7,0,-19.6,0.57,0.07,-0.03,0.82
1697353339.75,-0.23,-1.02,1.28,-9.2,-0.5,-23.6,0.57,0.07,-0.03,0.82
1697353339.76,-0.03,-0.87,0.81,-10.9,-0.9,-26.1,0.57,0.07,-0.03,0.82
1697353339.77,-0.15,-0.83,1.28,-10.1,-1.6,-27.9,0.57,0.07,-0.03,0.82
1697353339.78,-0.12,-0.67,0.86,-8.2,-1.7,-29.7,0.58,0.07,-0.03,0.81
1697353339.79,-0.16,-0.86,1.26,-5.6,-2.2,-31.5,0.58,0.07,-0.03,0.81
1697353339.8,-0.18,-0.98,1.11,-4.8,-1.9,-33.2,0.58,0.07,-0.03,0.81
1697353339.81,-0.2,-1.02,0.97,-5.2,-1.9,-35.4,0.58,0.07,-0.03,0.81
1697353339.82,-0.17,-0.97,1.18,-4.7,-2,-36.8,0.59,0.07,-0.03,0.81
1697353339.83,-0.2,-1.15,0.99,-4.6,-1.5,-38.9,0.59,0.07,-0.03,0.8
1697353339.84,-0.26,-1.1,1.1,-5.7,-1,-40.7,0.59,0.07,-0.03,0.8
1697353339.85,-0.26,-1.1,1.1,-5.7,-1,-40.7,0.59,0.07,-0.03,0.8
1697353339.86,-0.26,-1.1,1.1,-5.7,-1,-40.7,0.59,0.07,-0.03,0.8
1697353339.87,-0.26,-1.1,1.1,-5.7,-1,-40.7,0.59,0.07,-0.03,0.8
1697353339.88,-0.26,-1.1,1.1,-5.7,-1,-40.7,0.59,0.07,-0.03,0.8
1697353339.89,-0.26,-1.1,1.1,-5.7,-1,-40.7,0.59,0.07,-0.03,0.8
1697353339.9,-0.26,-1.1,1.1,-5.7,-1,-40.7,0.59,0.07,-0.03,0.8
1697353339.91,-0.26,-1.1,1.1,-5.7,-1,-40.7,0.59,0.07,-0.03,0.8
1697353339.92,-0.26,-1.1,1.1,-5.7,-1,-40.7,0.59,0.07,-0.03,0.8
1697353339.93,-0.26,-1.1,1.1,-5.7,-1,-40.7,0.59,0.07,-0.03,0.8
1697353339.94,-0.26,-1.1,1.1,-5.7,-1,-40.7,0.59,0.07,-0.03,0.8
1697353339.95,-0.26,-1.1,1.1,-5.7,-1,-40.7,0.59,0.07,-0.03,0.8
1697353339.96,-0.26,-1.1,1.1,-5.7,-1,-40.7,0.59,0.07,-0.03,0.8
1697353339.97,-0.26,-1.1,1.1,-5.7,-1,-40.7,0.59,0.07,-0.03,0.8
1697353339.98,-0.26,-1.1,1.1,-5.7,-1,-40.7,0.59,0.07,-0.03,0.8
1697353339.99,-0.26,-1.1,1.1,-5.7,-1,-40.7,0.64,0.07,-0.03,0.77
1697353340,-0.26,-1.1,1.1,-5.7,-1,-40.7,0.64,0.07,-0.03,0.77
1697353340.01,-0.26,-1.1,1.1,-5.7,-1,-40.7,0.64,0.07,-0.03,0.77
1697353340.02,-0.18,-1.02,0.94,-3.3,2.1,-57.2,0.65,0.07,-0.03,0.75
1697353340.03,-0.08,-1.07,0.88,-1.3,2.7,-56.6,0.66,0.07,-0.03,0.75
1697353340.04,-0.16,-1.08,0.86,1,2.9,-56.2,0.66,0.07,-0.03,0.75
1697353340.05,-0.14,-1.15,1.1,2.3,1.9,-55.7,0.67,0.07,-0.03,0.74
1697353340.06,-0.05,-1.24,0.95,1.5,1.2,-56.4,0.67,0.07,-0.03,0.74
1697353340.07,-0.21,-1.27,0.94,0,0.7,-56.8,0.67,0.07,-0.03,0.74
1697353340.08,-0.3,-1.23,1.19,-2,1.1,-56.7,0.68,0.07,-0.03,0.73
1697353340.09,-0.12,-1.1,0.84,-1.9,0.9,-56.6,0.68,0.07,-0.02,0.73
1697353340.1,-0.18,-1.02,0.87,-1.6,0.9,-56.6,0.69,0.07,-0.02,0.72
1697353340.11,-0.14,-1.1,0.72,-0.3,1.2,-56.4,0.69,0.07,-0.02,0.72
1697353340.12,-0.16,-1.06,1.01,0,1.3,-56.2,0.69,0.07,-0.02,0.72
1697353340.13,-0.17,-1.15,1.11,0.6,1.6,-55.9,0.7,0.07,-0.02,0.71
1697353340.14,-0.14,-1.17,1.03,0.9,0.9,-55.2,0.7,0.07,-0.02,0.71
1697353340.15,0.17,-1.14,0.9,1.3,1.3,-55.4,0.7,0.07,-0.02,0.71
1697353340.16,0.41,-1.07,0.64,0.5,0.7,-55.5,0.7,0.07,-0.02,0.71
1697353340.17,0.07,-1.01,1.51,-1.3,-0.6,-54.9,0.71,0.07,-0.02,0.7
1697353340.18,0.31,-0.83,0.85,-1.3,-0.6,-54.9,0.71,0.07,-0.02,0.7
1697353340.19,0.19,-0.78,0.87,-0.7,-1.2,-54.4,0.71,0.07,-0.02,0.7
1697353340.2,0.08,-1.1,0.83,0.5,-1.2,-53.8,0.71,0.07,-0.02,0.7
1697353340.21,-0.06,-1.05,0.81,1.7,1.2,-52.6,0.72,0.07,-0.02,0.69
1697353340.22,-0.06,-1.05,0.81,1.7,1.2,-52.6,0.72,0.07,-0.02,0.69
1697353340.23,-0.29,-1.17,0.96,-1.8,2.7,-54,0.73,0.07,-0.02,0.68
1697353340.24,-0.29,-1.17,0.96,-1.8,2.7,-54,0.73,0.07,-0.02,0.68
1697353340.25,-0.14,-1.13,1,-3.4,1.9,-55.4,0.74,0.07,-0.02,0.67
1697353340.26,-0.14,-1.13,1,-3.4,1.9,-55.4,0.74,0.07,-0.02,0.67
1697353340.27,0.12,-0.89,1.1,-2.3,1,-56.3,0.74,0.07,-0.02,0.67
1697353340.28,0.12,-0.89,1.1,0.2,-0.2,-55.3,0.74,0.07,-0.02,0.66
1697353340.29,0.05,-0.85,0.79,2.1,-0.3,-54.5,0.75,0.07,-0.02,0.66
1697353340.3,0.03,-1.03,0.98,3,0,-54.4,0.75,0.07,-0.02,0.66
1697353340.31,0.12,-1.05,0.76,0.8,0.6,-53.6,0.75,0.07,-0.02,0.65
1697353340.32,0.05,-0.9,0.78,0.2,1.8,-52.3,0.76,0.07,-0.02,0.65
1697353340.33,-0.09,-0.94,0.72,1.8,3.2,-51.4,0.76,0.07,-0.02,0.65
1697353340.34,-0.26,-1.04,1.08,3.3,4.1,-51.6,0.76,0.07,-0.01,0.64
1697353340.35,-0.13,-1.35,1.02,1,4.3,-52.8,0.77,0.07,-0.01,0.64
1697353340.36,-0.13,-1.14,0.75,-0.1,4.3,-52.9,0.77,0.07,-0.01,0.64
1697353340.37,-0.08,-1.03,1.18,0.4,3.5,-52.9,0.77,0.07,-0.01,0.63
1697353340.38,0.04,-1.03,1.24,1.9,3,-53.2,0.77,0.07,-0.01,0.63
1697353340.39,0.09,-0.98,0.82,2.5,2.8,-52.9,0.78,0.07,-0.01,0.63
1697353340.4,0.07,-0.94,0.97,1.7,2.2,-51.9,0.78,0.07,-0.01,0.62
1697353340.41,0.07,-0.89,0.91,-0.7,1.4,-50.6,0.78,0.07,-0.01,0.62
1697353340.42,-0.02,-0.69,0.92,-0.6,1.9,-49.3,0.79,0.07,-0.01,0.61
1697353340.43,-0.02,-0.69,0.92,-0.6,1.9,-49.3,0.79,0.07,-0.01,0.61
1697353340.44,-0.02,-0.69,0.92,-0.6,1.9,-49.3,0.79,0.07,-0.01,0.61
1697353340.45,-0.02,-0.69,0.92,-0.6,1.9,-49.3,0.79,0.07,-0.01,0.61
1697353340.46,-0.02,-0.69,0.92,-0.6,1.9,-49.3,0.79,0.07,-0.01,0.61
1697353340.47,-0.02,-0.69,0.92,-0.6,1.9,-49.3,0.79,0.07,-0.01,0.61
1697353340.48,-0.02,-0.69,0.92,-0.6,1.9,-49.3,0.79,0.07,-0.01,0.61
1697353340.49,-0.02,-0.69,0.92,-0.6,1.9,-49.3,0.79,0.07,-0.01,0.61
1697353340.5,-0.02,-0.69,0.92,-0.6,1.9,-49.3,0.79,0.07,-0.01,0.61
1697353340.51,-0.02,-0.69,0.92,-0.6,1.9,-49.3,0.79,0.07,-0.01,0.61
1697353340.52,-0.02,-0.69,0.92,-0.6,1.9,-49.3,0.79,0.07,-0.01,0.61
1697353340.53,-0.02,-0.69,0.92,-0.6,1.9,-49.3,0.79,0.07,-0.01,0.61
1697353340.54,-0.02,-0.69,0.92,-0.6,1.9,-49.3,0.79,0.07,-0.01,0.61
1697353340.55,-0.02,-0.69,0.92,-0.6,1.9,-49.3,0.79,0.07,-0.01,0.61
1697353340.56,-0.09,-0.27,1.06,2,-0.5,-21.2,0.81,0.07,-0,0.58
1697353340.57,0.07,0.01,0.77,0.5,0.4,-18.1,0.81,0.07,-0,0.58
1697353340.58,0.07,0.01,0.77,0.5,0.4,-18.1,0.81,0.07,-0,0.58
1697353340.59,-0.27,-0.03,1,3.6,1.6,-16.5,0.81,0.07,-0,0.58
1697353340.6,-0.12,-0.2,1.11,6.7,3.2,-15.2,0.81,0.07,-0,0.58
1697353340.61,-0.12,-0.27,0.93,5.8,4.2,-12.6,0.81,0.07,0,0.58
1697353340.62,0.03,-0.35,1.09,5.8,4.2,-12.6,0.81,0.07,0,0.58
1697353340.63,0.03,-0.35,1.09,2.5,3.5,-11.9,0.81,0.07,0,0.58
1697353340.64,-0.32,-0.42,1.55,-0.6,2.2,-11.8,0.81,0.07,0,0.58
1697353340.65,-0.2,0.01,1.17,-1,2.1,-11.7,0.81,0.07,0,0.58
1697353340.66,-0.28,0.12,1.08,-1.5,0.3,-10.2,0.81,0.07,0,0.58
1697353340.67,-0.32,0.03,1.18,1,-1.1,-8.7,0.82,0.07,0,0.57
1697353340.68,-0.23,-0.05,0.74,4.2,-2.1,-7.6,0.82,0.07,0,0.57
1697353340.69,-0.09,-0.24,0.7,3.9,-2.4,-6.7,0.82,0.07,0,0.57
1697353340.7,-0.1,-0.18,1.07,0.5,-2.4,-6.1,0.82,0.07,0,0.57
1697353340.71,0.07,0.11,0.7,-3.1,-2,-6.1,0.82,0.07,0,0.57
1697353340.72,0.07,0.16,0.96,-4.2,-1.9,-5.5,0.82,0.07,0,0.57
1697353340.73,-0.08,0.46,1.22,-1.5,-1.5,-4.8,0.82,0.07,0,0.57
1697353340.74,-0.01,0.29,0.98,3.8,-1.3,-3.5,0.82,0.07,0,0.57
1697353340.75,-0.15,0.09,1.26,6.8,-0.9,-1.7,0.82,0.07,0,0.57
1697353340.76,-0.07,0.19,1.05,6.2,-1.1,0,0.82,0.07,0,0.57
1697353340.77,-0.17,0.15,1.09,5.6,-1.2,2.7,0.82,0.07,0,0.57
1697353340.78,0.16,0.27,0.59,3,-0.8,5.4,0.82,0.08,0,0.57
1697353340.79,-0.18,0.58,1.25,0.9,-0.3,8.2,0.82,0.08,0,0.57
1697353340.8,0.09,0.83,0.96,0.4,0.1,12.6,0.82,0.08,0,0.57
1697353340.81,0.09,0.83,0.96,0.4,0.1,12.6,0.82,0.08,0,0.57
1697353340.82,-0.12,0.86,1.06,7.6,1,20,0.81,0.08,0,0.58
1697353340.83,-0.12,0.65,1.2,8.3,0.8,24,0.81,0.08,0,0.58
1697353340.84,0.04,1.03,0.51,6,0.7,27,0.81,0.08,0,0.58
1697353340.85,-0.19,1.24,1.46,6,0.7,27,0.81,0.08,0,0.58
1697353340.86,-0.14,1.01,1.09,6.5,-0.2,35.7,0.81,0.08,0,0.59
1697353340.87,-0.1,0.91,1.1,6.5,-0.2,35.7,0.81,0.08,0,0.59
1697353340.88,-0.12,0.73,1.18,9.3,-1.6,39.6,0.8,0.08,0,0.59
1697353340.89,-0.12,0.73,1.18,9.3,-1.6,39.6,0.8,0.08,0,0.59
1697353340.9,-0.32,0.85,0.82,2.5,-1.3,40,0.8,0.08,0,0.6
1697353340.91,-0.48,0.86,1.29,1.3,-0.6,39.6,0.8,0.08,0,0.6
1697353340.92,-0.33,0.93,0.7,1.2,-0.2,39.2,0.79,0.08,0,0.6
1697353340.93,-0.35,1.06,0.97,1.6,0,39.7,0.79,0.08,0,0.61
1697353340.94,-0.19,1.07,0.81,2.4,-0.5,40.5,0.79,0.08,0,0.61
1697353340.95,-0.19,1.07,0.81,2.4,-0.5,40.5,0.79,0.08,0,0.61
1697353340.96,-0.19,1.07,0.81,2.4,-0.5,40.5,0.79,0.08,0,0.61
1697353340.97,-0.19,1.07,0.81,2.4,-0.5,40.5,0.79,0.08,0,0.61
1697353340.98,-0.19,1.07,0.81,2.4,-0.5,40.5,0.79,0.08,0,0.61
1697353340.99,-0.19,1.07,0.81,2.4,-0.5,40.5,0.79,0.08,0,0.61
1697353341,-0.19,1.07,0.81,2.4,-0.5,40.5,0.79,0.08,0,0.61
1697353341.01,-0.19,1.07,0.81,2.4,-0.5,40.5,0.79,0.08,0,0.61
1697353341.02,-0.19,1.07,0.81,2.4,-0.5,40.5,0.79,0.08,0,0.61
1697353341.03,-0.19,1.07,0.81,2.4,-0.5,40.5,0.79,0.08,0,0.61
1697353341.04,-0.19,1.07,0.81,2.4,-0.5,40.5,0.79,0.08,0,0.61
1697353341.05,-0.19,1.07,0.81,2.4,-0.5,40.5,0.79,0.08,0,0.61
1697353341.06,-0.19,1.07,0.81,2.4,-0.5,40.5,0.79,0.08,0,0.61
1697353341.07,-0.19,1.07,0.81,2.4,-0.5,40.5,0.79,0.08,0,0.61
1697353341.08,-0.17,1.13,0.84,-1.5,4.5,50.1,0.75,0.08,-0,0.65
1697353341.09,0.05,1.01,0.95,1.3,3.9,50.4,0.75,0.08,-0,0.66
1697353341.1,-0.18,0.72,1.48,5,3.3,50.9,0.75,0.08,-0,0.66
1697353341.11,0.12,0.83,0.62,5.7,1.8,51.4,0.74,0.08,-0,0.66
1697353341.12,-0.18,0.74,0.94,3.1,0,51.2,0.74,0.08,-0,0.67
1697353341.13,-0.08,0.85,0.96,-1,-1.1,51.4,0.74,0.08,-0,0.67
1697353341.14,0.05,1,0.21,-3.5,-2.1,51.4,0.74,0.08,-0,0.67
1697353341.15,-0.42,1.04,1.31,-3.8,-2.1,50.9,0.73,0.08,-0,0.68
1697353341.16,-0.27,1.18,0.58,-2.8,-1.8,50.4,0.73,0.08,-0,0.68
1697353341.17,-0.49,0.93,1.33,-0.5,-0.9,50.1,0.73,0.08,-0,0.68
1697353341.18,-0.31,0.79,1,2.7,0.3,49.7,0.72,0.08,-0,0.69
1697353341.19,-0.31,0.79,1,2.7,0.3,49.7,0.72,0.08,-0,0.69
1697353341.2,-0.29,0.91,1.11,0.9,2.1,48.2,0.72,0.08,-0,0.69
1697353341.21,-0.29,0.91,1.11,0.9,2.1,48.2,0.72,0.08,-0,0.69
1697353341.22,0.06,1.1,1,-3.1,3.3,48.6,0.71,0.08,-0.01,0.7
1697353341.23,-0.07,1.07,0.84,-1.6,3,49.4,0.71,0.08,-0.01,0.7
1697353341.24,-0.2,1,1.25,0.4,2.6,50.1,0.7,0.08,-0.01,0.7
1697353341.25,-0.08,0.9,0.69,0.7,2.7,51.4,0.7,0.08,-0.01,0.71
1697353341.26,-0.06,0.9,1,0.8,2.5,51.7,0.7,0.08,-0.01,0.71
1697353341.27,-0.06,0.9,1,0.8,2.5,51.7,0.7,0.08,-0.01,0.71
1697353341.28,-0.09,0.95,0.92,0.7,2,52.1,0.7,0.08,-0.01,0.71
1697353341.29,-0.09,0.95,0.92,1.8,1.3,52.4,0.69,0.08,-0.01,0.72
1697353341.3,-0.21,0.83,0.73,1.7,0.3,52.5,0.69,0.08,-0.01,0.72
1697353341.31,-0.12,0.85,0.99,-3.3,-0.2,52.2,0.68,0.08,-0.01,0.72
1697353341.32,-0.05,0.82,0.43,-4.1,-0.6,52,0.68,0.08,-0.01,0.73
1697353341.33,-0.03,1.02,0.94,-2.6,-0.7,51.9,0.68,0.08,-0.01,0.73
1697353341.34,-0.26,1.07,0.94,-0.6,-0.5,52.3,0.67,0.08,-0.01,0.73
1697353341.35,-0.17,1.06,1.06,2.1,0.1,52,0.67,0.08,-0.01,0.74
1697353341.36,0.04,1.04,0.37,3,0.7,51.8,0.67,0.08,-0.01,0.74
1697353341.37,-0.07,0.85,0.79,2,1.5,51.4,0.66,0.08,-0.01,0.74
1697353341.38,-0.3,0.88,1.3,0.5,2.1,51,0.66,0.08,-0.01,0.75
1697353341.39,-0.11,0.91,0.89,-1,2.2,50.7,0.66,0.08,-0.01,0.75
1697353341.4,-0.16,0.97,0.76,-1.8,1.7,50.7,0.65,0.08,-0.01,0.75
1697353341.41,-0.3,0.97,1.52,-1.6,1.7,50.5,0.65,0.08,-0.01,0.76
1697353341.42,-0.21,1.17,0.77,0,2.1,50.5,0.65,0.08,-0.01,0.76
1697353341.43,-0.36,0.98,1.38,1.4,2.4,50.3,0.64,0.08,-0.01,0.76
1697353341.44,-0.29,0.96,1.01,1.8,2.6,50.2,0.64,0.08,-0.01,0.76
1697353341.45,-0.08,0.81,0.72,2,2.6,50,0.64,0.08,-0.01,0.77
1697353341.46,-0.08,0.81,0.72,2,2.6,50,0.64,0.08,-0.01,0.77
1697353341.47,-0.15,0.8,1.06,-1.8,1.8,49.7,0.63,0.08,-0.01,0.77
1697353341.48,-0.15,0.8,1.06,-1.8,1.8,49.7,0.63,0.08,-0.01,0.77
1697353341.49,-0.15,0.8,1.06,-1.8,1.8,49.7,0.63,0.08,-0.01,0.77
1697353341.5,-0.15,0.8,1.06,-1.8,1.8,49.7,0.63,0.08,-0.01,0.77
1697353341.51,-0.15,0.8,1.06,-1.8,1.8,49.7,0.63,0.08,-0.01,0.77
1697353341.52,-0.15,0.8,1.06,-1.8,1.8,49.7,0.63,0.08,-0.01,0.77
1697353341.53,-0.15,0.8,1.06,-1.8,1.8,49.7,0.63,0.08,-0.01,0.77
1697353341.54,-0.15,0.8,1.06,-1.8,1.8,49.7,0.63,0.08,-0.01,0.77
1697353341.55,-0.15,0.8,1.06,-1.8,1.8,49.7,0.63,0.08,-0.01,0.77
1697353341.56,-0.15,0.8,1.06,-1.8,1.8,49.7,0.63,0.08,-0.01,0.77
1697353341.57,-0.15,0.8,1.06,-1.8,1.8,49.7,0.63,0.08,-0.01,0.77
1697353341.58,-0.15,0.8,1.06,-1.8,1.8,49.7,0.63,0.08,-0.01,0.77
1697353341.59,-0.15,0.8,1.06,-1.8,1.8,49.7,0.63,0.08,-0.01,0.77
1697353341.6,-0.03,0.37,0.6,-1,4,34.1,0.59,0.07,-0.02,0.8
1697353341.61,-0.12,0.39,1.15,-4.1,1.7,28.6,0.59,0.07,-0.02,0.8
1697353341.62,-0.19,0.33,0.82,-4.1,1.7,28.6,0.59,0.07,-0.02,0.8
1697353341.63,-0.2,0.29,1.12,-2.9,0.4,24.5,0.59,0.07,-0.02,0.81
1697353341.64,-0.2,0.29,1.12,-2.9,0.4,24.5,0.59,0.07,-0.02,0.81
1697353341.65,-0.1,0.11,0.97,-2.9,0,21.8,0.58,0.07,-0.02,0.81
1697353341.66,0.06,0.11,0.86,-4.2,-0.3,19.4,0.58,0.07,-0.02,0.81
1697353341.67,0.16,-0.17,0.89,-6.7,-1.3,16.5,0.58,0.07,-0.02,0.81
1697353341.68,-0.33,-0.35,1.68,-8.6,-1.2,12.7,0.58,0.07,-0.02,0.81
1697353341.69,0.07,-0.44,0.92,-10.2,-1,8.3,0.58,0.07,-0.02,0.81
1697353341.7,0.02,-0.5,0.56,-10.7,-1.1,3.6,0.58,0.07,-0.02,0.81
1697353341.71,-0.15,-0.56,1.41,-9.8,-1.1,-1.4,0.58,0.07,-0.02,0.81
1697353341.72,-0.23,-0.77,1.38,-8.5,-1.3,-7.9,0.58,0.07,-0.02,0.81
1697353341.73,-0,-0.8,0.97,-8.3,-1.4,-13.2,0.58,0.07,-0.02,0.81
1697353341.74,-0.31,-0.87,1.23,-9.4,-1.4,-17.4,0.58,0.07,-0.02,0.81
1697353341.75,-0.15,-0.94,1.08,-11.1,-0.7,-21.9,0.58,0.07,-0.03,0.81
1697353341.76,-0.15,-0.89,0.78,-11.8,-0.2,-25.6,0.58,0.07,-0.03,0.81
1697353341.77,-0.28,-0.93,1.39,-11,-0.3,-29.1,0.59,0.07,-0.03,0.81
1697353341.78,-0.14,-0.73,0.7,-9.1,0.6,-31.4,0.59,0.07,-0.03,0.8
1697353341.79,-0.14,-0.88,0.85,-6.4,0,-33.8,0.59,0.07,-0.03,0.8
1697353341.8,-0.29,-0.99,1.15,-4.5,0,-35.9,0.59,0.07,-0.03,0.8
1697353341.81,-0.12,-1.09,0.88,-3.3,0,-38,0.6,0.07,-0.03,0.8
1697353341.82,0.05,-1.14,0.56,-3.4,0,-40.5,0.6,0.07,-0.03,0.8
1697353341.83,-0.27,-1.17,1.07,-4.4,-0.3,-42.3,0.6,0.07,-0.03,0.79
1697353341.84,-0.05,-0.97,0.77,-4.2,0,-43.8,0.61,0.07,-0.03,0.79
1697353341.85,-0.17,-1.03,1.07,-2.9,-0.5,-44.8,0.61,0.07,-0.03,0.79
1697353341.86,-0.17,-1.03,1.07,-2.9,-0.5,-44.8,0.61,0.07,-0.03,0.79
1697353341.87,-0.01,-0.9,0.71,1,-0.3,-46.7,0.62,0.07,-0.03,0.79
1697353341.88,-0.06,-0.96,1.07,1.3,-0.7,-46.8,0.62,0.07,-0.03,0.78
1697353341.89,-0.24,-0.95,1.01,2.2,-0.4,-47.3,0.62,0.07,-0.03,0.78
1697353341.9,-0.24,-0.95,1.01,2.2,-0.4,-47.3,0.62,0.07,-0.03,0.78
1697353341.91,0,-0.94,0.55,1,-0.5,-47.9,0.63,0.07,-0.03,0.78
1697353341.92,0,-0.94,0.55,0.1,-0.8,-48.1,0.63,0.07,-0.03,0.77
1697353341.93,-0.07,-0.91,0.84,-1.2,0,-48.2,0.64,0.07,-0.03,0.77
1697353341.94,-0.07,-0.91,0.84,-1.2,0,-48.2,0.64,0.07,-0.03,0.77
1697353341.95,-0.15,-0.85,1.05,-1.6,0.7,-48.5,0.64,0.07,-0.03,0.76
1697353341.96,-0.22,-0.8,1.06,-1.6,0.7,-48.5,0.64,0.07,-0.03,0.76
1697353341.97,-0.3,-0.83,1.44,-0.1,0.7,-48.6,0.65,0.07,-0.03,0.76
1697353341.98,-0.3,-0.83,1.44,1.2,0.8,-49.1,0.65,0.07,-0.02,0.76
1697353341.99,-0.23,-1.07,1.11,-0.3,1.5,-50.3,0.65,0.07,-0.02,0.75
1697353342,-0.23,-1.03,1.26,-2.9,2.1,-51.2,0.65,0.07,-0.02,0.75
1697353342.01,-0.23,-1.03,1.26,-2.9,2.1,-51.2,0.65,0.07,-0.02,0.75
1697353342.02,-0.23,-1.03,1.26,-2.9,2.1,-51.2,0.65,0.07,-0.02,0.75
1697353342.03,-0.23,-1.03,1.26,-2.9,2.1,-51.2,0.65,0.07,-0.02,0.75
1697353342.04,-0.23,-1.03,1.26,-2.9,2.1,-51.2,0.65,0.07,-0.02,0.75
1697353342.05,-0.23,-1.03,1.26,-2.9,2.1,-51.2,0.65,0.07,-0.02,0.75
1697353342.06,-0.23,-1.03,1.26,-2.9,2.1,-51.2,0.65,0.07,-0.02,0.75
1697353342.07,-0.23,-1.03,1.26,-2.9,2.1,-51.2,0.65,0.07,-0.02,0.75
1697353342.08,-0.23,-1.03,1.26,-2.9,2.1,-51.2,0.65,0.07,-0.02,0.75
1697353342.09,-0.23,-1.03,1.26,-2.9,2.1,-51.2,0.65,0.07,-0.02,0.75
1697353342.1,-0.23,-1.03,1.26,-2.9,2.1,-51.2,0.65,0.07,-0.02,0.75
1697353342.11,-0.23,-1.03,1.26,-2.9,2.1,-51.2,0.65,0.07,-0.02,0.75
1697353342.12,-0.23,-1.03,1.26,-2.9,2.1,-51.2,0.65,0.07,-0.02,0.75
1697353342.13,-0.23,-1.03,1.26,0,2,-52.5,0.7,0.07,-0.02,0.71
1697353342.14,-0.17,-1,1.17,0,3.9,-52.2,0.71,0.07,-0.02,0.71
1697353342.15,-0.16,-1.03,0.71,-0.1,3.6,-53,0.71,0.07,-0.02,0.71
1697353342.16,-0.3,-1.05,1.49,-1.4,3.7,-53.7,0.71,0.07,-0.02,0.7
1697353342.17,-0.16,-0.94,0.82,-1.5,2.6,-54.3,0.71,0.07,-0.02,0.7
1697353342.18,-0.21,-0.91,1.23,0.4,1.8,-55.1,0.72,0.07,-0.02,0.69
1697353342.19,-0.17,-0.93,0.89,2.5,1.1,-55.5,0.72,0.07,-0.02,0.69
1697353342.2,-0.16,-1.06,0.75,3.6,0.4,-56.4,0.72,0.07,-0.02,0.69
1697353342.21,-0.14,-1.12,1.26,2.1,0.4,-57.1,0.73,0.07,-0.02,0.68
1697353342.22,-0.13,-1.13,0.96,0.2,0,-57.5,0.73,0.07,-0.02,0.68
1697353342.23,-0.18,-1.07,1.18,-1.5,-0.2,-58,0.73,0.07,-0.02,0.68
1697353342.24,-0.11,-0.98,0.94,-1.5,-0.2,-58,0.74,0.07,-0.02,0.67
1697353342.25,-0.16,-0.86,0.87,-1.9,-0.1,-58,0.74,0.07,-0.01,0.67
1697353342.26,-0.16,-0.86,0.87,-1.5,-0.1,-57.7,0.74,0.07,-0.01,0.67
1697353342.27,-0.1,-0.89,1.04,0.2,-0.8,-56.6,0.75,0.07,-0.01,0.66
1697353342.28,-0.1,-0.89,1.04,0.2,-0.8,-56.6,0.75,0.07,-0.01,0.66
1697353342.29,-0.17,-1.01,0.76,0.1,-0.9,-56.2,0.75,0.07,-0.01,0.65
1697353342.3,-0.19,-0.96,1.05,-0.1,-0.8,-55.6,0.76,0.07,-0.01,0.65
1697353342.31,-0.23,-0.74,1.19,0,-0.6,-55.3,0.76,0.07,-0.01,0.65
1697353342.32,-0.28,-0.77,0.85,0.2,0,-54,0.76,0.07,-0.01,0.64
1697353342.33,-0.27,-0.9,1.06,1.8,0.6,-53.3,0.77,0.07,-0.01,0.64
1697353342.34,-0.2,-1.06,0.85,3.5,1.6,-52.8,0.77,0.07,-0.01,0.64
1697353342.35,-0.18,-1.15,0.99,2.6,2.5,-52.8,0.77,0.07,-0.01,0.63
1697353342.36,-0.14,-0.96,0.86,0.2,3.1,-53.6,0.77,0.07,-0.01,0.63
1697353342.37,-0.11,-0.91,1.13,-0.6,2.6,-54,0.78,0.07,-0.01,0.63
1697353342.38,-0.15,-0.88,0.73,0.4,2,-54.8,0.78,0.07,-0.01,0.62
1697353342.39,-0.11,-0.99,1.23,2.2,1.2,-55.4,0.78,0.07,-0.01,0.62
1697353342.4,-0.21,-1.01,0.93,1.9,0.5,-56,0.79,0.07,-0.01,0.61
1697353342.41,-0.11,-0.99,1.17,0.1,0,-56.5,0.79,0.07,-0.01,0.61
1697353342.42,-0.23,-0.84,0.9,-1,-0.3,-57.2,0.79,0.07,-0.01,0.6
1697353342.43,-0.16,-0.92,1.17,-1.5,-0.4,-57.4,0.8,0.07,-0.01,0.6
1697353342.44,-0.19,-0.88,1.07,-0.5,-0.5,-57.4,0.8,0.07,-0.01,0.6
1697353342.45,-0.24,-0.83,0.86,0.4,0.2,-56.9,0.8,0.07,-0.01,0.59
1697353342.46,-0.21,-0.93,1.21,0.6,1.1,-56.4,0.8,0.07,-0.01,0.59
1697353342.47,-0.17,-0.93,0.9,0.7,1.6,-56.1,0.81,0.07,-0.01,0.59
1697353342.48,-0.03,-0.81,1.12,1.6,1.7,-55.3,0.81,0.07,-0.01,0.58
1697353342.49,-0.14,-0.83,0.94,2.4,1.7,-54.7,0.81,0.07,-0.01,0.58
1697353342.5,-0.16,-0.79,1.48,2.6,1.5,-53.9,0.81,0.07,-0.01,0.58
1697353342.51,-0.16,-0.79,1.48,2.6,1.5,-53.9,0.81,0.07,-0.01,0.58
1697353342.52,-0.16,-0.79,1.48,2.6,1.5,-53.9,0.81,0.07,-0.01,0.58
1697353342.53,-0.16,-0.79,1.48,2.6,1.5,-53.9,0.81,0.07,-0.01,0.58
1697353342.54,-0.16,-0.79,1.48,2.6,1.5,-53.9,0.81,0.07,-0.01,0.58
1697353342.55,-0.16,-0.79,1.48,2.6,1.5,-53.9,0.81,0.07,-0.01,0.58
1697353342.56,-0.16,-0.79,1.48,2.6,1.5,-53.9,0.81,0.07,-0.01,0.58
1697353342.57,-0.16,-0.79,1.48,2.6,1.5,-53.9,0.81,0.07,-0.01,0.58
1697353342.58,-0.16,-0.79,1.48,2.6,1.5,-53.9,0.81,0.07,-0.01,0.58
1697353342.59,-0.16,-0.79,1.48,2.6,1.5,-53.9,0.81,0.07,-0.01,0.58
1697353342.6,-0.16,-0.79,1.48,2.6,1.5,-53.9,0.81,0.07,-0.01,0.58
1697353342.61,-0.16,-0.79,1.48,2.6,1.5,-53.9,0.81,0.07,-0.01,0.58
1697353342.62,-0.16,-0.79,1.48,2.6,1.5,-53.9,0.81,0.07,-0.01,0.58
1697353342.63,-0.16,-0.79,1.48,2.6,1.5,-53.9,0.81,0.07,-0.01,0.58
1697353342.64,-0.16,-0.79,1.48,10.4,1.6,6.7,0.83,0.08,0,0.55
1697353342.65,-0.04,0.97,1.15,11,1.9,12.1,0.83,0.08,0,0.55
1697353342.66,0.12,0.97,0.57,12.3,0.9,16.9,0.83,0.08,0,0.55
1697353342.67,-0.07,0.85,1.32,12,0,20.8,0.83,0.08,0,0.55
1697353342.68,0.12,0.73,0.95,9.4,-1.3,24.1,0.83,0.08,0,0.55
1697353342.69,0.08,0.77,0.72,7.5,-1.6,26.1,0.83,0.08,0,0.55
1697353342.7,0.14,0.72,1.08,5,-2.4,28.5,0.83,0.08,0,0.55
1697353342.71,0.35,0.84,1.01,2.9,-3.6,29.2,0.83,0.08,0,0.56
1697353342.72,0.32,0.71,0.62,0.9,-4.3,30.5,0.83,0.08,0,0.56
1697353342.73,0.26,0.71,1.02,0.1,-5.2,31.1,0.82,0.08,0,0.56
1697353342.74,0.15,0.73,1.04,-0.3,-5.5,30.8,0.82,0.08,0,0.56
1697353342.75,-0.02,0.71,0.88,-0.8,-4.8,30.3,0.82,0.08,-0,0.57
1697353342.76,0.01,0.55,1.16,-1.8,-4.1,30.1,0.82,0.08,-0,0.57
1697353342.77,-0.05,0.77,0.98,-1.9,-2.3,29.5,0.82,0.08,-0,0.57
1697353342.78,-0.04,0.56,1.34,-2.4,-0.5,30,0.82,0.08,-0,0.57
1697353342.79,0.14,0.55,0.87,-2,0.3,29.7,0.82,0.08,-0,0.57
1697353342.8,0.21,0.51,1.02,-2.4,1.8,29.3,0.81,0.08,-0,0.57
1697353342.81,0.31,0.49,0.98,-3.1,2.5,29.1,0.81,0.08,-0,0.58
1697353342.82,0.33,0.35,0.83,-3.4,2.8,28.8,0.81,0.08,-0,0.58
1697353342.83,0.33,0.72,1.05,-2.6,2.8,28.2,0.81,0.08,-0,0.58
1697353342.84,0.28,0.36,0.85,-1.9,2.3,29.2,0.81,0.08,-0,0.58
1697353342.85,0.27,0.52,0.84,2.3,2,29.4,0.81,0.08,-0,0.58
1697353342.86,0.18,0.37,1.3,4.2,0.8,31.1,0.81,0.08,-0,0.59
1697353342.87,0.15,0.36,1.11,2.9,-1.1,31.7,0.8,0.08,-0,0.59
1697353342.88,0.16,0.4,0.96,-0.1,-1.8,32.7,0.8,0.08,-0,0.59
1697353342.89,0.27,0.52,1.1,-3,-2.7,33.4,0.8,0.08,-0,0.59
1697353342.9,0.25,0.68,1.06,-3.4,-3.3,33.5,0.8,0.08,-0,0.6
1697353342.91,0.25,0.68,1.06,-3.4,-3.3,33.5,0.8,0.08,-0,0.6
1697353342.92,0.35,0.53,0.91,0.4,-3,32.6,0.8,0.08,-0.01,0.6
1697353342.93,0.35,0.53,0.91,0.4,-3,32.6,0.79,0.08,-0.01,0.6
1697353342.94,0.31,0.33,1.01,1.2,-1.4,30.9,0.79,0.08,-0.01,0.6
1697353342.95,0.24,0.53,0.9,1.2,-1.4,30.9,0.79,0.08,-0.01,0.61
1697353342.96,0.21,0.46,0.98,0.3,1.4,29.7,0.79,0.08,-0.01,0.61
1697353342.97,0.17,0.61,1.03,-0.5,2.3,29.4,0.79,0.08,-0.01,0.61
1697353342.98,0.2,0.54,0.98,-1.8,3.1,30.3,0.79,0.08,-0.01,0.61
1697353342.99,0.2,0.54,0.98,-1.8,3.1,30.3,0.78,0.08,-0.01,0.62
1697353343,0.25,0.67,0.95,-0.7,3,31.6,0.78,0.08,-0.01,0.62
1697353343.01,0.29,0.6,1.02,-0.7,3,31.6,0.78,0.08,-0.01,0.62
1697353343.02,0.31,0.58,1.03,0.4,2.9,32,0.78,0.08,-0.01,0.62
1697353343.03,0.31,0.58,1.03,0.4,2.9,32,0.78,0.08,-0.01,0.62
1697353343.04,0.31,0.58,1.03,0.4,2.9,32,0.78,0.08,-0.01,0.62
1697353343.05,0.31,0.58,1.03,0.4,2.9,32,0.78,0.08,-0.01,0.62
1697353343.06,0.31,0.58,1.03,0.4,2.9,32,0.78,0.08,-0.01,0.62
1697353343.07,0.31,0.58,1.03,0.4,2.9,32,0.78,0.08,-0.01,0.62
1697353343.08,0.31,0.58,1.03,0.4,2.9,32,0.78,0.08,-0.01,0.62
1697353343.09,0.31,0.58,1.03,0.4,2.9,32,0.78,0.08,-0.01,0.62
1697353343.1,0.31,0.58,1.03,0.4,2.9,32,0.78,0.08,-0.01,0.62
1697353343.11,0.31,0.58,1.03,0.4,2.9,32,0.78,0.08,-0.01,0.62
1697353343.12,0.31,0.58,1.03,0.4,2.9,32,0.78,0.08,-0.01,0.62
1697353343.13,0.31,0.58,1.03,0.4,2.9,32,0.78,0.08,-0.01,0.62
1697353343.14,0.31,0.58,1.03,0.4,2.9,32,0.78,0.08,-0.01,0.62
1697353343.15,0.31,0.58,1.03,0.4,2.9,32,0.78,0.08,-0.01,0.62
1697353343.16,0.18,0.5,0.99,-0.1,1.8,24.7,0.76,0.08,-0.01,0.65
1697353343.17,0.29,0.42,0.86,-0.2,1.7,25.1,0.76,0.08,-0.01,0.65
1697353343.18,0.24,0.46,1.07,-0.3,1.4,24.9,0.75,0.08,-0.01,0.65
1697353343.19,0.17,0.43,0.95,1,1.3,25.2,0.75,0.08,-0.01,0.65
1697353343.2,0.29,0.34,1.15,1,1.3,25.2,0.75,0.08,-0.01,0.66
1697353343.21,0.29,0.35,0.96,0.4,0.2,24.7,0.75,0.08,-0.01,0.66
1697353343.22,0.22,0.24,1.03,0.4,-0.1,23.8,0.75,0.08,-0.01,0.66
1697353343.23,0.24,0.25,1.1,-0.5,-0.3,23.1,0.75,0.08,-0.01,0.66
1697353343.24,0.3,0.37,0.88,0.1,0,22.1,0.74,0.08,-0.01,0.66
1697353343.25,0.26,0.24,0.87,0.2,0.4,21.1,0.74,0.08,-0.01,0.66
1697353343.26,0.16,0.4,1.15,-0.1,1,20.4,0.74,0.08,-0.01,0.67
1697353343.27,0.23,0.21,0.78,0,1.5,19.2,0.74,0.08,-0.01,0.67
1697353343.28,0.22,0.35,1.09,-0.6,2.3,18.8,0.74,0.08,-0.01,0.67
1697353343.29,0.17,0.27,1.18,0,3,18,0.74,0.08,-0.01,0.67
1697353343.3,0.24,0.2,0.82,0,3,17.5,0.74,0.08,-0.01,0.67
1697353343.31,0.25,0.39,0.96,0,3,17.5,0.74,0.08,-0.01,0.67
1697353343.32,0.28,0.24,0.88,2.1,2.6,16.4,0.74,0.08,-0.01,0.67
1697353343.33,0.23,0.36,1.12,2.1,1.6,16.4,0.73,0.08,-0.01,0.67
1697353343.34,0.29,0.26,1.09,1.8,0.7,16.4,0.73,0.08,-0.01,0.67
1697353343.35,0.34,0.18,1.2,0.1,-0.1,16.3,0.73,0.08,-0.01,0.68
1697353343.36,0.24,0.4,0.91,0.1,-0.1,16.3,0.73,0.08,-0.01,0.68
1697353343.37,0.29,0.18,1.15,-1.4,-1.8,16.3,0.73,0.08,-0.01,0.68
1697353343.38,0.23,0.43,1,-2.3,-2,16.7,0.73,0.08,-0.01,0.68
1697353343.39,0.24,0.22,0.99,-2.3,-2,16.7,0.73,0.08,-0.01,0.68
1697353343.4,0.15,0.34,0.92,-1.1,-0.2,16.4,0.73,0.08,-0.01,0.68
1697353343.41,0.15,0.34,0.92,-1.1,-0.2,16.4,0.73,0.08,-0.01,0.68
1697353343.42,0.26,0.36,0.93,2.1,1.9,16.1,0.72,0.08,-0.01,0.68
1697353343.43,0.26,0.36,0.93,2.1,1.9,16.1,0.72,0.08,-0.01,0.68
1697353343.44,0.23,0.24,0.97,2.8,2.4,16.1,0.72,0.08,-0.01,0.69
1697353343.45,0.24,0.28,0.93,3,2.7,15.8,0.72,0.08,-0.01,0.69
1697353343.46,0.28,0.38,0.96,2.7,2.5,16.6,0.72,0.08,-0.01,0.69
1697353343.47,0.29,0.23,0.83,1.9,1.8,16.2,0.72,0.08,-0.01,0.69
1697353343.48,0.28,0.45,1.01,1.3,1.3,17.1,0.72,0.08,-0.01,0.69
1697353343.49,0.3,0.39,0.97,2,0.7,17.9,0.72,0.08,-0.01,0.69
1697353343.5,0.18,0.37,1,1,0.2,18.5,0.72,0.08,-0.01,0.69
1697353343.51,0.19,0.51,1.23,1.2,0.5,19.6,0.72,0.08,-0.01,0.69
1697353343.52,0.29,0.43,0.85,0,0.7,20.4,0.71,0.08,-0.01,0.69
1697353343.53,0.14,0.43,1.27,0,0.4,20.6,0.71,0.08,-0.01,0.7
1697353343.54,0.28,0.35,0.92,-0.2,0.6,20.9,0.71,0.08,-0.01,0.7
1697353343.55,0.3,0.38,0.91,-0.9,0.7,20.5,0.71,0.08,-0.01,0.7
1697353343.56,0.3,0.38,0.91,-0.9,0.7,20.5,0.71,0.08,-0.01,0.7
1697353343.57,0.3,0.38,0.91,-0.9,0.7,20.5,0.71,0.08,-0.01,0.7
1697353343.58,0.3,0.38,0.91,-0.9,0.7,20.5,0.71,0.08,-0.01,0.7
1697353343.59,0.3,0.38,0.91,-0.9,0.7,20.5,0.71,0.08,-0.01,0.7
1697353343.6,0.3,0.38,0.91,-0.9,0.7,20.5,0.71,0.08,-0.01,0.7
1697353343.61,0.3,0.38,0.91,-0.9,0.7,20.5,0.71,0.08,-0.01,0.7
1697353343.62,0.3,0.38,0.91,-0.9,0.7,20.5,0.71,0.08,-0.01,0.7
1697353343.63,0.3,0.38,0.91,-0.9,0.7,20.5,0.71,0.08,-0.01,0.7
1697353343.64,0.3,0.38,0.91,-0.9,0.7,20.5,0.71,0.08,-0.01,0.7
1697353343.65,0.3,0.38,0.91,-0.9,0.7,20.5,0.71,0.08,-0.01,0.7
1697353343.66,0.3,0.38,0.91,-0.9,0.7,20.5,0.71,0.08,-0.01,0.7
1697353343.67,0.3,0.38,0.91,-0.9,0.7,20.5,0.71,0.08,-0.01,0.7
1697353343.68,0.3,0.38,0.91,-0.9,0.7,20.5,0.71,0.08,-0.01,0.7
1697353343.69,0.19,0.52,1.06,-0.3,-0.4,21.8,0.69,0.08,-0.01,0.72
1697353343.7,0.3,0.57,0.96,-0.8,-0.2,21.8,0.69,0.08,-0.01,0.72
1697353343.71,0.3,0.57,0.96,-0.8,-0.2,21.8,0.69,0.08,-0.01,0.72
1697353343.72,0.11,0.54,1.06,-0.7,1,23.1,0.69,0.08,-0.01,0.72
1697353343.73,0.11,0.54,1.06,-0.7,1,23.1,0.69,0.08,-0.01,0.72
1697353343.74,0.19,0.58,1.02,1.3,1.8,24.3,0.69,0.08,-0.01,0.72
1697353343.75,0.19,0.58,1.02,1.2,1.1,25,0.69,0.08,-0.01,0.72
1697353343.76,0.18,0.55,1.17,1.2,1.1,25,0.68,0.08,-0.01,0.73
1697353343.77,0.22,0.57,1,1.7,0,26.2,0.68,0.08,-0.01,0.73
1697353343.78,0.23,0.69,1.19,1.7,0,26.2,0.68,0.08,-0.01,0.73
1697353343.79,0.23,0.63,1.05,1.7,-1.1,26.7,0.68,0.08,-0.02,0.73
1697353343.8,0.26,0.57,0.94,1.7,-2.7,27.5,0.68,0.08,-0.02,0.73
1697353343.81,0.17,0.55,1.24,-0.2,-3.9,27.6,0.67,0.08,-0.02,0.73
1697353343.82,0.21,0.54,1.04,-1.1,-3.2,27.3,0.67,0.08,-0.02,0.74
1697353343.83,0.19,0.54,1.07,-1.7,-2.2,26.9,0.67,0.08,-0.02,0.74
1697353343.84,0.18,0.63,1.04,-0.9,-1,26.6,0.67,0.08,-0.02,0.74
1697353343.85,0.21,0.57,0.99,-0.1,-0.1,26.3,0.67,0.08,-0.02,0.74
1697353343.86,0.16,0.57,1.11,0,1.2,26.4,0.67,0.08,-0.02,0.74
1697353343.87,0.21,0.57,1.04,-0.1,1.9,26.5,0.66,0.08,-0.02,0.74
1697353343.88,0.17,0.65,0.9,0,1.5,27,0.66,0.08,-0.02,0.75
1697353343.89,0.27,0.7,0.98,0.5,0.2,27.8,0.66,0.08,-0.02,0.75
1697353343.9,0.3,0.55,1.06,0.2,-0.5,28.1,0.66,0.08,-0.02,0.75
1697353343.91,0.25,0.6,0.8,-0.4,-1.2,28,0.66,0.08,-0.02,0.75
1697353343.92,0.23,0.74,1.15,-0.3,-2,28.1,0.65,0.08,-0.02,0.75
1697353343.93,0.33,0.57,0.9,-0.7,-2.6,28,0.65,0.08,-0.02,0.75
1697353343.94,0.17,0.64,1.23,0,-3.1,27.6,0.65,0.08,-0.02,0.76
1697353343.95,0.28,0.67,1.01,-0.7,-3,27.4,0.65,0.08,-0.02,0.76
1697353343.96,0.26,0.37,0.99,-2.3,-2.6,26.6,0.65,0.08,-0.02,0.76
1697353343.97,0.16,0.57,0.84,-3,-1.6,26.3,0.65,0.08,-0.02,0.76
1697353343.98,0.16,0.57,0.84,-3,-1.6,26.3,0.65,0.08,-0.02,0.76
1697353343.99,0.18,0.63,1.08,-0.8,0.4,26.7,0.64,0.08,-0.02,0.76
1697353344,0.18,0.63,1.08,-0.8,0.4,26.7,0.64,0.08,-0.02,0.76
1697353344.01,0.13,0.68,0.98,1.8,1.5,28.6,0.64,0.08,-0.02,0.76
1697353344.02,0.13,0.68,0.98,1.8,1.5,28.6,0.64,0.08,-0.02,0.77
1697353344.03,0.3,0.74,0.94,4.2,0.6,31.8,0.64,0.08,-0.02,0.77
1697353344.04,0.3,0.74,0.94,4.2,0.6,31.8,0.63,0.08,-0.02,0.77
1697353344.05,0.23,0.62,1.06,2.9,0,32.3,0.63,0.08,-0.02,0.77
1697353344.06,0.2,0.64,0.86,2.9,0,32.3,0.63,0.08,-0.02,0.77
1697353344.07,0.2,0.64,0.86,0.2,-0.3,32.9,0.63,0.08,-0.02,0.78
1697353344.08,0.2,0.64,0.86,0.2,-0.3,32.9,0.63,0.08,-0.02,0.78
1697353344.09,0.2,0.64,0.86,0.2,-0.3,32.9,0.63,0.08,-0.02,0.78
1697353344.1,0.2,0.64,0.86,0.2,-0.3,32.9,0.63,0.08,-0.02,0.78
1697353344.11,0.2,0.64,0.86,0.2,-0.3,32.9,0.63,0.08,-0.02,0.78
1697353344.12,0.2,0.64,0.86,0.2,-0.3,32.9,0.63,0.08,-0.02,0.78
1697353344.13,0.2,0.64,0.86,0.2,-0.3,32.9,0.63,0.08,-0.02,0.78
1697353344.14,0.2,0.64,0.86,0.2,-0.3,32.9,0.63,0.08,-0.02,0.78
1697353344.15,0.2,0.64,0.86,0.2,-0.3,32.9,0.63,0.08,-0.02,0.78
1697353344.16,0.2,0.64,0.86,0.2,-0.3,32.9,0.63,0.08,-0.02,0.78
1697353344.17,0.2,0.64,0.86,0.2,-0.3,32.9,0.63,0.08,-0.02,0.78
1697353344.18,0.2,0.64,0.86,0.2,-0.3,32.9,0.63,0.08,-0.02,0.78
1697353344.19,0.2,0.64,0.86,0.2,-0.3,32.9,0.63,0.08,-0.02,0.78
1697353344.2,0.2,0.64,0.86,0.2,-0.3,32.9,0.63,0.08,-0.02,0.78
1697353344.21,0.08,0.8,0.73,-0.3,2.6,36.1,0.59,0.07,-0.02,0.8
1697353344.22,0.02,0.82,0.76,-0.1,2.5,35.8,0.59,0.07,-0.02,0.8
1697353344.23,0.04,0.83,0.64,0,2.8,35.4,0.59,0.07,-0.02,0.81
1697353344.24,-0.05,0.9,1.11,0.2,2.7,35.5,0.58,0.07,-0.02,0.81
1697353344.25,-0.01,0.89,0.76,0.5,2.9,35.3,0.58,0.07,-0.02,0.81
1697353344.26,-0.02,0.91,1.01,0.9,3.1,35.7,0.58,0.07,-0.02,0.81
1697353344.27,-0.07,0.71,1.18,0.7,3.6,35.9,0.58,0.07,-0.02,0.81
1697353344.28,0.04,0.75,1,0,3.7,35.8,0.57,0.07,-0.02,0.82
1697353344.29,0.01,0.78,0.83,-0.5,3.8,36,0.57,0.07,-0.02,0.82
1697353344.3,-0.03,0.85,0.98,-0.3,3.8,36.4,0.57,0.07,-0.02,0.82
1697353344.31,0.08,0.81,0.6,0.1,3.8,36.7,0.57,0.07,-0.02,0.82
1697353344.32,0.13,0.86,0.71,0.2,3.6,37.1,0.56,0.07,-0.02,0.82
1697353344.33,-0.01,0.83,1.11,-0.1,3.1,37.1,0.56,0.07,-0.02,0.83
1697353344.34,0.16,0.82,0.5,-1.2,2.5,37.4,0.56,0.07,-0.02,0.83
1697353344.35,0.04,0.87,0.74,-1.4,2.1,37.4,0.55,0.07,-0.02,0.83
1697353344.36,0.04,0.87,0.74,-1.4,2.1,37.4,0.55,0.07,-0.02,0.83
1697353344.37,-0.17,0.88,0.67,-1,2.4,37,0.55,0.07,-0.02,0.83
1697353344.38,-0.12,0.92,0.89,-1,2.4,37,0.55,0.07,-0.02,0.83
1697353344.39,-0.13,0.93,1.06,1.5,4,37.2,0.55,0.07,-0.02,0.83
1697353344.4,-0.14,0.79,0.9,2.2,4.2,37.2,0.54,0.07,-0.02,0.84
1697353344.41,-0.11,0.85,1.16,2.2,4.2,37.2,0.54,0.07,-0.02,0.84
1697353344.42,-0.03,0.97,0.65,-1.2,4.7,37.4,0.54,0.07,-0.02,0.84
1697353344.43,-0.17,0.92,1.02,-1.6,4.8,38.3,0.54,0.07,-0.02,0.84
1697353344.44,-0.17,0.92,1.02,-1.6,4.8,38.3,0.53,0.07,-0.02,0.84
1697353344.45,-0.14,0.82,0.95,-0.9,4.8,38.6,0.53,0.07,-0.02,0.85
1697353344.46,-0.14,0.82,0.95,-0.3,4.6,39.3,0.53,0.07,-0.02,0.85
1697353344.47,-0.12,0.89,0.79,-2.3,4,39.8,0.52,0.07,-0.02,0.85
1697353344.48,-0.19,0.94,1.12,-2.4,3.5,40.5,0.52,0.07,-0.02,0.85
1697353344.49,-0.1,1.03,0.77,0.1,2.5,41,0.52,0.07,-0.02,0.85
1697353344.5,-0.03,1,0.86,2.5,1.4,41.8,0.51,0.07,-0.02,0.86
1697353344.51,-0.08,1,0.7,3.6,0.3,42.7,0.51,0.07,-0.02,0.86
1697353344.52,-0.06,0.96,0.83,4.2,-0.4,43,0.51,0.07,-0.02,0.86
1697353344.53,-0.18,0.78,0.82,2.9,-0.5,42.2,0.5,0.07,-0.02,0.86
1697353344.54,-0.33,0.99,1.08,1.5,-0.2,42.4,0.5,0.07,-0.02,0.86
1697353344.55,-0.38,1.07,1.09,3.2,0.2,42.8,0.5,0.07,-0.02,0.86
1697353344.56,-0.29,1.02,0.81,3.2,0.2,42.8,0.5,0.07,-0.02,0.86
1697353344.57,-0.25,1.13,1.23,4.5,0.4,43.1,0.49,0.07,-0.02,0.87
1697353344.58,-0.04,0.96,0.96,5,0.1,43.9,0.49,0.07,-0.02,0.87
1697353344.59,0.02,0.86,0.93,5,0.1,43.9,0.49,0.07,-0.02,0.87
1697353344.6,0.02,0.86,0.93,3.3,-0.3,45.3,0.48,0.07,-0.02,0.87
1697353344.61,0.02,0.86,0.93,3.3,-0.3,45.3,0.48,0.07,-0.02,0.87
1697353344.62,0.02,0.86,0.93,3.3,-0.3,45.3,0.48,0.07,-0.02,0.87
1697353344.63,0.02,0.86,0.93,3.3,-0.3,45.3,0.48,0.07,-0.02,0.87
1697353344.64,0.02,0.86,0.93,3.3,-0.3,45.3,0.48,0.07,-0.02,0.87
1697353344.65,0.02,0.86,0.93,3.3,-0.3,45.3,0.48,0.07,-0.02,0.87
1697353344.66,0.02,0.86,0.93,3.3,-0.3,45.3,0.48,0.07,-0.02,0.87
1697353344.67,0.02,0.86,0.93,3.3,-0.3,45.3,0.48,0.07,-0.02,0.87
1697353344.68,0.02,0.86,0.93,3.3,-0.3,45.3,0.48,0.07,-0.02,0.87
1697353344.69,0.02,0.86,0.93,3.3,-0.3,45.3,0.48,0.07,-0.02,0.87
1697353344.7,0.02,0.86,0.93,3.3,-0.3,45.3,0.48,0.07,-0.02,0.87
1697353344.71,0.02,0.86,0.93,3.3,-0.3,45.3,0.48,0.07,-0.02,0.87
1697353344.72,0.02,0.86,0.93,3.3,-0.3,45.3,0.48,0.07,-0.02,0.87
1697353344.73,0.02,0.86,0.93,7.2,2,47.2,0.43,0.07,-0.02,0.9
1697353344.74,-0.07,1.09,0.91,0,-0.2,47.3,0.42,0.07,-0.03,0.9
1697353344.75,-0.07,0.98,1.15,-0.9,-1.5,48.2,0.42,0.07,-0.03,0.9
1697353344.76,-0.07,0.98,1.15,-0.9,-1.5,48.2,0.42,0.07,-0.03,0.9
1697353344.77,-0.1,1.21,0.94,-1.8,-3.2,48.3,0.42,0.07,-0.03,0.91
1697353344.78,-0.16,1.11,0.71,-0.8,-3.8,48.5,0.41,0.07,-0.03,0.91
1697353344.79,-0.09,0.96,0.57,2.9,-2.5,48,0.41,0.07,-0.03,0.91
1697353344.8,-0.26,0.99,0.94,2.9,-2.5,48,0.41,0.07,-0.03,0.91
1697353344.81,-0.26,0.99,0.94,1.5,-0.3,46.8,0.4,0.07,-0.03,0.91
1697353344.82,-0.07,0.96,0.9,0.4,1.2,46,0.4,0.07,-0.03,0.91
1697353344.83,-0.11,0.74,0.81,-0.1,2.2,45.5,0.39,0.07,-0.03,0.92
1697353344.84,-0.2,1.08,0.84,-2.9,3.4,44.2,0.39,0.07,-0.03,0.92
1697353344.85,-0.13,1.15,0.99,-4.3,4.4,45,0.39,0.07,-0.03,0.92
1697353344.86,-0.1,1.21,0.97,-2.1,4.6,45.1,0.38,0.07,-0.03,0.92
1697353344.87,-0.13,1.13,0.99,0.3,3.9,45.9,0.38,0.07,-0.03,0.92
1697353344.88,-0.12,0.93,1.17,0.9,3.2,47.1,0.38,0.07,-0.03,0.92
1697353344.89,-0.17,0.9,1.11,-0.2,2.2,47.5,0.37,0.06,-0.03,0.93
1697353344.9,-0.15,1.1,1.06,-2.2,2.1,47.9,0.37,0.06,-0.03,0.93
1697353344.91,-0.12,1.13,0.79,-1.8,1.5,48.5,0.36,0.06,-0.03,0.93
1697353344.92,-0.15,1.14,0.94,0.8,0.9,49.1,0.36,0.06,-0.03,0.93
1697353344.93,-0.04,0.98,0.73,3.3,0.9,49,0.35,0.06,-0.03,0.93
1697353344.94,0.05,1,0.51,3.9,1,48.8,0.35,0.06,-0.03,0.93
1697353344.95,-0,0.78,0.88,2.5,1.4,48.6,0.35,0.06,-0.03,0.94
1697353344.96,0.04,0.88,0.4,1.9,1.9,47.2,0.34,0.06,-0.03,0.94
1697353344.97,-0.07,0.78,0.68,-1.9,2.5,46.6,0.34,0.06,-0.03,0.94
1697353344.98,-0.01,1.2,0.48,-5.7,3.1,45.9,0.34,0.06,-0.03,0.94
1697353344.99,-0.01,1.2,0.48,-5.7,3.1,45.9,0.34,0.06,-0.03,0.94
1697353345,-0.09,1.24,0.78,-4.5,3.9,45.2,0.33,0.06,-0.03,0.94
1697353345.01,-0.12,0.96,1.21,-1,4.3,45.8,0.33,0.06,-0.03,0.94
1697353345.02,-0.02,1.04,1.28,0.3,3.4,45.7,0.32,0.06,-0.03,0.95
1697353345.03,-0.02,1.04,1.28,0.3,3.4,45.7,0.32,0.06,-0.03,0.95
1697353345.04,0.01,0.94,1.01,-2,2.2,45.3,0.31,0.06,-0.03,0.95
1697353345.05,0.01,0.94,1.01,-2,2.2,45.3,0.31,0.06,-0.03,0.95
1697353345.06,-0.17,0.89,0.87,3.3,3.4,44.7,0.31,0.06,-0.03,0.95
1697353345.07,-0.14,0.9,0.78,3.3,3.4,44.7,0.3,0.06,-0.03,0.95
1697353345.08,-0.02,0.85,0.6,2,5.3,44.6,0.3,0.06,-0.03,0.95
1697353345.09,-0.02,0.85,0.6,2,5.3,44.6,0.3,0.06,-0.03,0.95
1697353345.1,-0.17,1.13,1.21,-0.4,7.4,44.9,0.29,0.06,-0.03,0.95
1697353345.11,-0.17,1.13,1.21,-0.4,7.4,44.9,0.29,0.06,-0.03,0.96
1697353345.12,-0.05,1.1,0.94,-1.6,6.1,46.2,0.28,0.06,-0.03,0.96
1697353345.13,-0.05,1.1,0.94,-1.6,6.1,46.2,0.28,0.06,-0.03,0.96
1697353345.14,-0.05,1.1,0.94,-1.6,6.1,46.2,0.28,0.06,-0.03,0.96
1697353345.15,-0.05,1.1,0.94,-1.6,6.1,46.2,0.28,0.06,-0.03,0.96
1697353345.16,-0.05,1.1,0.94,-1.6,6.1,46.2,0.28,0.06,-0.03,0.96
1697353345.17,-0.05,1.1,0.94,-1.6,6.1,46.2,0.28,0.06,-0.03,0.96
1697353345.18,-0.05,1.1,0.94,-1.6,6.1,46.2,0.28,0.06,-0.03,0.96
1697353345.19,-0.05,1.1,0.94,-1.6,6.1,46.2,0.28,0.06,-0.03,0.96
1697353345.2,-0.05,1.1,0.94,-1.6,6.1,46.2,0.28,0.06,-0.03,0.96
1697353345.21,-0.05,1.1,0.94,-1.6,6.1,46.2,0.28,0.06,-0.03,0.96
1697353345.22,-0.05,1.1,0.94,-1.6,6.1,46.2,0.28,0.06,-0.03,0.96
1697353345.23,-0.05,1.1,0.94,-1.6,6.1,46.2,0.28,0.06,-0.03,0.96
1697353345.24,-0.05,1.1,0.94,-1.6,6.1,46.2,0.28,0.06,-0.03,0.96
1697353345.25,-0.05,1.1,0.94,-1.6,6.1,46.2,0.28,0.06,-0.03,0.96
1697353345.26,0.14,1.03,0.61,-2.1,4.2,36.3,0.23,0.05,-0.04,0.97
1697353345.27,-0.11,0.88,1.26,-0.5,5.3,37.1,0.23,0.05,-0.04,0.97
1697353345.28,-0.26,1.03,0.78,0.8,5.3,38.4,0.22,0.05,-0.04,0.97
1697353345.29,0.02,0.7,0.53,0.2,4.5,39.1,0.22,0.05,-0.04,0.97
1697353345.3,-0.06,0.82,1.45,-1.7,4.5,40.6,0.22,0.05,-0.04,0.97
1697353345.31,0.04,1.06,0.98,-3.7,3.6,41,0.21,0.05,-0.04,0.98
1697353345.32,0.15,0.86,0.9,-5,2.1,41.5,0.21,0.05,-0.04,0.98
1697353345.33,0.19,0.85,0.86,-2.5,0.8,41.7,0.2,0.05,-0.04,0.98
1697353345.34,0.23,0.68,0.67,1.3,0,40.7,0.2,0.05,-0.04,0.98
1697353345.35,0.31,0.55,0.75,4.9,-1.1,39.8,0.2,0.05,-0.04,0.98
1697353345.36,0.1,0.71,0.69,3.8,-2,39.5,0.2,0.05,-0.04,0.98
1697353345.37,0.27,0.47,0.44,2.5,-2.9,37.9,0.19,0.05,-0.04,0.98
1697353345.38,-0.06,0.62,1.09,2.5,-2.9,37.9,0.19,0.05,-0.04,0.98
1697353345.39,-0.21,1.15,1.23,-5.5,-4.9,36.5,0.19,0.05,-0.04,0.98
1697353345.4,-0.21,1.15,1.23,-5.5,-4.9,36.5,0.19,0.05,-0.04,0.98
1697353345.41,-0.17,0.7,1.09,-2.8,-3,36.8,0.18,0.05,-0.04,0.98
1697353345.42,-0.14,0.87,1.49,0.3,-0.6,38.1,0.18,0.05,-0.04,0.98
1697353345.43,-0.14,0.87,1.49,0.3,-0.6,38.1,0.17,0.05,-0.04,0.98
1697353345.44,-0.05,0.83,1.29,-1.3,1,38.5,0.17,0.05,-0.04,0.98
1697353345.45,-0.04,0.79,1.07,-0.5,2.3,38.3,0.17,0.05,-0.04,0.98
1697353345.46,-0.04,0.79,1.07,0,3.6,38.5,0.16,0.05,-0.04,0.98
1697353345.47,-0.1,0.92,1.26,1.5,4.6,39.1,0.16,0.05,-0.04,0.98
1697353345.48,-0.01,0.82,0.88,2.4,5.9,39.3,0.16,0.05,-0.04,0.99
1697353345.49,0.08,0.86,0.64,3.7,6.7,39.2,0.15,0.05,-0.04,0.99
1697353345.5,0.04,0.88,0.78,3,6.4,39.6,0.15,0.05,-0.04,0.99
1697353345.51,-0.02,0.84,0.97,1.2,5.1,40.4,0.15,0.05,-0.04,0.99
1697353345.52,0.1,0.9,0.83,-0.9,3.4,41.1,0.14,0.05,-0.04,0.99
1697353345.53,0.1,0.84,0.83,-3.5,1.2,41.1,0.14,0.05,-0.04,0.99
1697353345.54,0.06,0.92,1.03,-6.2,-0.6,41.5,0.14,0.05,-0.04,0.99
1697353345.55,0.08,1.01,0.64,-6.7,-1.8,41.9,0.13,0.05,-0.04,0.99
1697353345.56,-0.01,1.16,1.01,-3.8,-2.4,42.2,0.13,0.05,-0.04,0.99
1697353345.57,-0.09,1.13,1.17,0.4,-1.9,42.1,0.12,0.05,-0.04,0.99
1697353345.58,-0.26,1.11,1.09,3.2,-0.9,42.1,0.12,0.05,-0.04,0.99
1697353345.59,-0.31,0.93,1.28,3.5,0.5,41.7,0.12,0.05,-0.04,0.99
1697353345.6,-0.14,0.91,1.08,2.8,1.8,41.6,0.11,0.05,-0.04,0.99
1697353345.61,-0.11,1.01,0.88,2.5,2.9,41.6,0.11,0.05,-0.04,0.99
1697353345.62,-0.15,0.99,1.01,1.8,3.7,42.6,0.11,0.05,-0.04,0.99
1697353345.63,-0.31,1.07,1.18,1.8,3.7,42.6,0.11,0.05,-0.04,0.99
1697353345.64,-0.31,1.07,1.18,1.8,3.7,42.6,0.11,0.05,-0.04,0.99
1697353345.65,-0.31,1.07,1.18,1.8,3.7,42.6,0.11,0.05,-0.04,0.99
1697353345.66,-0.31,1.07,1.18,1.8,3.7,42.6,0.11,0.05,-0.04,0.99
1697353345.67,-0.31,1.07,1.18,1.8,3.7,42.6,0.11,0.05,-0.04,0.99
1697353345.68,-0.31,1.07,1.18,1.8,3.7,42.6,0.11,0.05,-0.04,0.99
1697353345.69,-0.31,1.07,1.18,1.8,3.7,42.6,0.11,0.05,-0.04,0.99
1697353345.7,-0.31,1.07,1.18,1.8,3.7,42.6,0.11,0.05,-0.04,0.99
1697353345.71,-0.31,1.07,1.18,1.8,3.7,42.6,0.11,0.05,-0.04,0.99
1697353345.72,-0.31,1.07,1.18,1.8,3.7,42.6,0.11,0.05,-0.04,0.99
1697353345.73,-0.31,1.07,1.18,1.8,3.7,42.6,0.11,0.05,-0.04,0.99
1697353345.74,-0.31,1.07,1.18,1.8,3.7,42.6,0.11,0.05,-0.04,0.99
1697353345.75,-0.31,1.07,1.18,1.8,3.7,42.6,0.11,0.05,-0.04,0.99
1697353345.76,-0.31,1.07,1.18,1.8,3.7,42.6,0.11,0.05,-0.04,0.99
1697353345.77,-0.1,1.29,0.42,2.4,-1.3,55.4,0.04,0.04,-0.05,1
1697353345.78,-0.41,1.12,1.43,3.8,-0.9,54.6,0.04,0.04,-0.05,1
1697353345.79,-0.23,1.06,0.97,3.3,0.6,53.2,0.03,0.04,-0.04,1
1697353345.8,-0.3,1.11,1.01,1.7,2.7,51.8,0.03,0.04,-0.04,1
1697353345.81,-0.34,1.09,0.95,-0.2,4.7,50.4,0.02,0.04,-0.05,1
1697353345.82,-0.25,1.15,0.76,-0.7,6.6,49.4,0.02,0.04,-0.05,1
1697353345.83,-0.17,1.19,0.94,-0.8,7.6,49.2,0.01,0.04,-0.05,1
1697353345.84,-0.12,1.25,1.13,-0.8,7.4,49.2,0.01,0.04,-0.05,1
1697353345.85,0.03,0.81,0.58,-1.7,8.7,48.5,0,0.04,-0.05,1
1697353345.86,-0.1,1.13,1.15,-1.7,10.5,47.7,0,-0.03,0.05,-1
1697353345.87,-0.48,1.06,1.04,0.4,10,48.7,0.01,-0.03,0.05,-1
1697353345.88,-0.31,1.29,1,0.4,8.2,50.1,0.01,-0.03,0.05,-1
1697353345.89,-0.16,0.96,0.76,1.2,6.1,50.1,0.01,-0.03,0.05,-1
1697353345.9,-0.15,0.96,1.07,-2.4,4,52.1,0.02,-0.03,0.05,-1
1697353345.91,-0.14,1.06,1.01,-3.8,1.5,52.9,0.02,-0.03,0.05,-1
1697353345.92,-0.17,1.08,1,-3.8,0,54.4,0.03,-0.03,0.05,-1
1697353345.93,-0.07,1.12,0.5,-3.8,0,54.4,0.03,-0.03,0.05,-1
1697353345.94,-0.1,1.22,0.67,1.3,-2,55.7,0.04,-0.03,0.05,-1
1697353345.95,-0.1,1.04,0.64,2.7,-1,55.2,0.04,-0.03,0.05,-1
1697353345.96,-0.19,1.02,0.51,3.1,0.8,54,0.05,-0.03,0.05,-1
1697353345.97,-0.17,0.97,0.58,3.9,3.2,51.7,0.05,-0.03,0.05,-1
1697353345.98,-0.3,0.93,0.84,3.9,3.2,51.7,0.05,-0.03,0.05,-1
1697353345.99,-0.12,0.84,0.96,-2.8,5.3,49.2,0.06,-0.03,0.05,-1
1697353346,-0.12,0.84,0.96,-2.8,5.3,49.2,0.06,-0.03,0.05,-1
1697353346.01,-0.17,1.41,0.97,-1.8,4.8,48.6,0.07,-0.03,0.05,-1
1697353346.02,-0.35,1.19,1.35,-0.5,5.2,49,0.07,-0.03,0.05,-1
1697353346.03,-0.25,1.15,1.27,-0.5,5.2,49,0.07,-0.03,0.05,-1
1697353346.04,-0.06,0.98,1.21,-1,4,48.1,0.08,-0.03,0.05,-1
1697353346.05,-0.13,0.89,0.93,-2.7,3.6,46.7,0.08,-0.02,0.05,-0.99
1697353346.06,-0.14,1.01,1.14,-2.7,3.6,46.7,0.09,-0.02,0.05,-0.99
1697353346.07,-0.18,1.1,1.22,-3.4,1.4,45.1,0.09,-0.02,0.05,-0.99
1697353346.08,-0.18,1.1,1.22,-3.4,1.4,45.1,0.1,-0.02,0.05,-0.99
1697353346.09,-0.08,0.93,1.05,0.8,-1.1,44.8,0.1,-0.02,0.05,-0.99
1697353346.1,0.1,0.66,1.06,2.9,-3.8,45.6,0.1,-0.02,0.05,-0.99
1697353346.11,0.1,0.66,1.06,1.8,-6.8,46.3,0.11,-0.02,0.05,-0.99
1697353346.12,-0.07,0.89,0.83,-3.1,-9.8,47.2,0.11,-0.02,0.05,-0.99
1697353346.13,-0.07,0.89,0.83,-5.4,-11.8,47.3,0.12,-0.02,0.05,-0.99
1697353346.14,-0.19,1.04,1.08,-4,-12.1,47.6,0.12,-0.03,0.05,-0.99
1697353346.15,-0.16,1.1,0.97,-0.1,-11.3,47.3,0.12,-0.03,0.05,-0.99
1697353346.16,-0.16,1.1,0.97,-0.1,-11.3,47.3,0.12,-0.03,0.05,-0.99
1697353346.17,-0.16,1.1,0.97,-0.1,-11.3,47.3,0.12,-0.03,0.05,-0.99
1697353346.18,-0.16,1.1,0.97,-0.1,-11.3,47.3,0.12,-0.03,0.05,-0.99
1697353346.19,-0.16,1.1,0.97,-0.1,-11.3,47.3,0.12,-0.03,0.05,-0.99
1697353346.2,-0.16,1.1,0.97,-0.1,-11.3,47.3,0.12,-0.03,0.05,-0.99
1697353346.21,-0.16,1.1,0.97,-0.1,-11.3,47.3,0.12,-0.03,0.05,-0.99
1697353346.22,-0.16,1.1,0.97,-0.1,-11.3,47.3,0.12,-0.03,0.05,-0.99
1697353346.23,-0.16,1.1,0.97,-0.1,-11.3,47.3,0.12,-0.03,0.05,-0.99
1697353346.24,-0.16,1.1,0.97,-0.1,-11.3,47.3,0.12,-0.03,0.05,-0.99
1697353346.25,-0.16,1.1,0.97,-0.1,-11.3,47.3,0.12,-0.03,0.05,-0.99
1697353346.26,-0.16,1.1,0.97,-0.1,-11.3,47.3,0.12,-0.03,0.05,-0.99
1697353346.27,-0.16,1.1,0.97,-0.1,-11.3,47.3,0.12,-0.03,0.05,-0.99
1697353346.28,-0.16,1.1,0.97,-2.8,8.6,41.1,0.17,-0.02,0.05,-0.98
1697353346.29,0.07,1.07,0.91,5.3,7.3,42.7,0.17,-0.02,0.05,-0.98
1697353346.3,0.26,0.59,0.75,5.5,6,42.6,0.18,-0.02,0.05,-0.98
1697353346.31,0.18,0.65,0.83,1.6,5.1,41.9,0.18,-0.02,0.05,-0.98
1697353346.32,0.22,0.64,0.63,-2,4.1,42.4,0.18,-0.02,0.05,-0.98
1697353346.33,0.16,0.98,1.03,-2,4.1,42.4,0.19,-0.02,0.05,-0.98
1697353346.34,0.2,1.05,0.79,0.1,3.1,41.4,0.19,-0.02,0.05,-0.98
1697353346.35,-0.08,0.86,1.17,2.8,2.9,41.3,0.19,-0.02,0.05,-0.98
1697353346.36,-0.14,0.77,0.74,5,3.9,41,0.2,-0.02,0.05,-0.98
1697353346.37,-0.26,0.83,0.81,3.7,6.6,40.6,0.2,-0.02,0.05,-0.98
1697353346.38,-0.17,1.01,1.03,0.1,8.1,41.1,0.2,-0.02,0.05,-0.98
1697353346.39,-0.07,1.01,0.79,-0.1,8,41.6,0.21,-0.01,0.05,-0.98
1697353346.4,-0.15,0.99,1.11,-0.7,6.7,42.5,0.21,-0.01,0.05,-0.98
1697353346.41,-0.09,1.09,1.49,-1.3,5.1,43.6,0.21,-0.01,0.05,-0.98
1697353346.42,0.05,0.98,1.23,-1.1,3.2,44.4,0.22,-0.01,0.05,-0.97
1697353346.43,0.05,0.98,1.23,-1.1,3.2,44.4,0.22,-0.01,0.06,-0.97
1697353346.44,0.18,0.79,0.85,-2,-0.1,44.9,0.23,-0.01,0.06,-0.97
1697353346.45,0.18,0.79,0.85,-2,-0.1,44.9,0.23,-0.01,0.06,-0.97
1697353346.46,0.09,0.96,1.15,-4.3,-2.4,44,0.23,-0.01,0.06,-0.97
1697353346.47,-0.11,0.97,1.02,-3.3,-3.1,43.6,0.24,-0.01,0.06,-0.97
1697353346.48,-0.11,0.97,1.02,-2.1,-3,43.9,0.24,-0.01,0.06,-0.97
1697353346.49,-0.07,0.96,1.04,-0.1,-2.9,43.5,0.25,-0.01,0.06,-0.97
1697353346.5,-0.18,0.95,1.23,-0.7,-2.9,43.4,0.25,-0.01,0.06,-0.97
1697353346.51,-0.18,0.96,0.91,-1.4,-2.9,43.4,0.25,-0.01,0.06,-0.97
1697353346.52,-0.05,0.99,1.06,-1.3,-2.6,43.2,0.26,-0.01,0.06,-0.96
1697353346.53,-0.17,1.03,0.84,0.2,-1.9,42.9,0.26,-0.01,0.06,-0.96
1697353346.54,0.04,1.02,0.38,1.3,-1.1,43.1,0.26,-0.01,0.06,-0.96
1697353346.55,-0.02,0.78,0.83,1.7,-0.1,42.6,0.27,-0.01,0.06,-0.96
1697353346.56,0,0.97,0.89,1.7,1.3,41.6,0.27,-0.01,0.06,-0.96
1697353346.57,-0.02,0.78,1.06,0.7,2.3,41.3,0.28,-0.01,0.06,-0.96
1697353346.58,0.03,0.95,0.85,-0.7,2.9,40.7,0.28,-0.01,0.06,-0.96
1697353346.59,-0.07,0.93,1.02,-2.8,3.8,41.1,0.28,-0.01,0.06,-0.96
1697353346.6,-0.04,1.04,0.7,-3.2,4.7,41.7,0.28,-0.01,0.06,-0.96
1697353346.61,-0.1,1.05,1.06,-3.1,5.4,42.6,0.29,-0.01,0.06,-0.96
1697353346.62,-0.13,0.97,1,-2.2,6,43.6,0.29,-0.01,0.06,-0.96
1697353346.63,-0.27,1,1.12,-1.6,6.4,44.5,0.29,-0.01,0.06,-0.95
1697353346.64,-0.14,0.93,0.85,-1.2,7.2,45.7,0.3,-0.01,0.06,-0.95
1697353346.65,-0.05,1.04,0.69,-0.3,6.9,46,0.3,-0.01,0.06,-0.95
1697353346.66,-0.05,1.03,0.84,1.6,5.8,46.7,0.3,-0.01,0.06,-0.95
1697353346.67,-0.05,1.03,0.84,1.6,5.8,46.7,0.3,-0.01,0.06,-0.95
1697353346.68,-0.05,1.03,0.84,1.6,5.8,46.7,0.3,-0.01,0.06,-0.95
1697353346.69,-0.05,1.03,0.84,1.6,5.8,46.7,0.3,-0.01,0.06,-0.95
