time,accel_x,accel_y,accel_z,gyro_x,gyro_y,gyro_z,quat_w,quat_x,quat_y,quat_z
1697353482.45,-0.18,0.46,0.92,-0.8,1,49.6,0.86,0.07,-0.01,-0.5
1697353482.46,-0.18,0.46,0.92,-0.8,1,49.6,0.86,0.07,-0.01,-0.5
1697353482.47,-0.18,0.46,0.92,-0.8,1,49.6,0.86,0.07,-0.01,-0.5
1697353482.48,-0.18,0.46,0.92,-0.8,1,49.6,0.86,0.07,-0.01,-0.5
1697353482.49,-0.18,0.46,0.92,-0.8,1,49.6,0.86,0.07,-0.01,-0.5
1697353482.5,-0.18,0.46,0.92,-0.8,1,49.6,0.86,0.07,-0.01,-0.5
1697353482.51,-0.18,0.46,0.92,-0.8,1,49.6,0.89,0.07,-0.01,-0.45
1697353482.52,-0.19,0.39,1.1,-0.1,0.4,54.3,0.89,0.07,-0.01,-0.45
1697353482.53,-0.14,0.42,0.86,-0.2,1,54.4,0.9,0.07,-0.01,-0.44
1697353482.54,-0.17,0.38,1.01,-0.3,1.2,54.4,0.9,0.07,-0.01,-0.43
1697353482.55,-0.21,0.36,1.07,-0.5,1.3,54.4,0.9,0.07,-0.01,-0.43
1697353482.56,-0.13,0.36,0.96,-0.9,1.3,54.1,0.9,0.07,-0.01,-0.43
1697353482.57,-0.11,0.39,1.06,-0.7,1.1,53.8,0.91,0.07,-0.01,-0.42
1697353482.58,-0.15,0.38,1.09,-0.7,0.5,53.5,0.91,0.07,-0.01,-0.42
1697353482.59,-0.12,0.36,1.11,-0.6,0,53.2,0.91,0.07,-0.01,-0.41
1697353482.6,-0.13,0.34,0.94,-0.6,-0.5,52.9,0.91,0.07,-0.01,-0.41
1697353482.61,-0.2,0.27,0.92,-1.3,-0.9,52.4,0.91,0.07,-0.01,-0.4
1697353482.62,-0.17,0.35,0.92,-2.7,-0.7,52.1,0.92,0.07,-0.01,-0.4
1697353482.63,-0.21,0.4,1.08,-2.7,-0.7,52.1,0.92,0.07,-0.01,-0.4
1697353482.64,-0.18,0.4,1.17,-3.5,0,51.9,0.92,0.06,-0.01,-0.39
1697353482.65,-0.13,0.41,0.98,-1.7,0.2,51.7,0.92,0.06,-0.01,-0.39
1697353482.66,-0.17,0.32,0.95,0.2,0.3,51.5,0.92,0.06,-0.01,-0.39
1697353482.67,-0.16,0.27,1.17,1.4,0.4,51.3,0.92,0.06,-0.01,-0.38
1697353482.68,-0.16,0.27,1.17,1.4,0.4,51.3,0.92,0.06,-0.01,-0.38
1697353482.69,-0.2,0.24,0.96,1.1,0.1,51,0.93,0.06,-0.01,-0.37
1697353482.7,-0.16,0.29,0.97,0.2,0,51,0.93,0.06,-0.01,-0.37
1697353482.71,-0.1,0.32,0.95,-0.4,0,51,0.93,0.06,-0.01,-0.36
1697353482.72,-0.15,0.32,1.03,-0.2,0,51,0.93,0.06,-0.01,-0.36
1697353482.73,-0.13,0.3,0.98,0.1,0,51,0.93,0.06,-0.02,-0.36
1697353482.74,-0.16,0.28,1.01,0.8,0,50.7,0.93,0.06,-0.02,-0.35
1697353482.75,-0.17,0.24,1.05,0.8,0,50.6,0.94,0.06,-0.02,-0.35
1697353482.76,-0.17,0.32,1.03,0,0.1,49.9,0.94,0.06,-0.02,-0.34
1697353482.77,-0.13,0.31,0.96,0.1,-0.3,49.6,0.94,0.06,-0.02,-0.34
1697353482.78,-0.12,0.32,0.94,0,-0.4,49.3,0.94,0.07,-0.02,-0.33
1697353482.79,-0.12,0.3,1,0.1,-0.4,48.9,0.94,0.07,-0.02,-0.33
1697353482.8,-0.11,0.32,1.01,0,-0.3,48.6,0.94,0.07,-0.02,-0.33
1697353482.81,-0.18,0.24,0.94,-0.5,-0.6,48.1,0.94,0.07,-0.02,-0.32
1697353482.82,-0.19,0.3,1.06,-1.1,-0.8,47.9,0.95,0.07,-0.02,-0.32
1697353482.83,-0.18,0.39,0.95,-0.6,-0.9,48,0.95,0.07,-0.02,-0.31
1697353482.84,-0.16,0.33,1.22,0.4,-0.9,47.8,0.95,0.07,-0.02,-0.31
1697353482.85,-0.14,0.36,0.91,1.8,-0.6,47.7,0.95,0.07,-0.02,-0.31
1697353482.86,-0.19,0.21,1.07,2.1,0,47.4,0.95,0.07,-0.02,-0.3
1697353482.87,-0.2,0.22,0.92,1,0.5,47.3,0.95,0.07,-0.02,-0.3
1697353482.88,-0.17,0.24,1.07,-0.1,0.7,47.5,0.95,0.07,-0.02,-0.29
1697353482.89,-0.21,0.21,1.04,-1,0.8,47.1,0.95,0.07,-0.02,-0.29
1697353482.9,-0.21,0.21,1.04,-1,0.8,47.1,0.95,0.07,-0.02,-0.29
1697353482.91,-0.21,0.21,1.04,-1,0.8,47.1,0.95,0.07,-0.02,-0.29
1697353482.92,-0.21,0.21,1.04,-1,0.8,47.1,0.95,0.07,-0.02,-0.29
1697353482.93,-0.21,0.21,1.04,-1,0.8,47.1,0.95,0.07,-0.02,-0.29
1697353482.94,-0.21,0.21,1.04,-1,0.8,47.1,0.95,0.07,-0.02,-0.29
1697353482.95,-0.21,0.21,1.04,-1,0.8,47.1,0.95,0.07,-0.02,-0.29
1697353482.96,-0.21,0.21,1.04,-1,0.8,47.1,0.95,0.07,-0.02,-0.29
1697353482.97,-0.21,0.21,1.04,-1,0.8,47.1,0.95,0.07,-0.02,-0.29
1697353482.98,-0.21,0.21,1.04,-1,0.8,47.1,0.95,0.07,-0.02,-0.29
1697353482.99,-0.21,0.21,1.04,-1,0.8,47.1,0.95,0.07,-0.02,-0.29
1697353483,-0.21,0.21,1.04,-1,0.8,47.1,0.95,0.07,-0.02,-0.29
1697353483.01,-0.21,0.21,1.04,-1,0.8,47.1,0.95,0.07,-0.02,-0.29
1697353483.02,-0.21,0.21,1.04,0.1,0.6,44.8,0.95,0.07,-0.02,-0.29
1697353483.03,-0.15,0.23,0.89,-0.3,0.6,44.7,0.97,0.07,-0.02,-0.24
1697353483.04,-0.13,0.21,1.13,-0.7,0.5,44.7,0.97,0.07,-0.02,-0.23
1697353483.05,-0.1,0.28,0.95,-0.3,0.3,44.7,0.97,0.07,-0.02,-0.23
1697353483.06,-0.13,0.28,0.99,0.3,0.7,44.9,0.97,0.07,-0.02,-0.23
1697353483.07,-0.15,0.22,1.01,0,0.9,44.7,0.97,0.07,-0.02,-0.22
1697353483.08,-0.15,0.22,1.12,-0.4,1.5,44.5,0.97,0.07,-0.02,-0.22
1697353483.09,-0.13,0.2,1.04,-0.5,2,44.2,0.97,0.07,-0.02,-0.21
1697353483.1,-0.13,0.22,0.95,-0.3,2.1,43.9,0.98,0.07,-0.02,-0.21
1697353483.11,-0.11,0.17,1.05,-0.7,2.2,43.5,0.98,0.07,-0.02,-0.21
1697353483.12,-0.1,0.23,0.94,-0.6,1.8,43,0.98,0.07,-0.02,-0.2
1697353483.13,-0.09,0.23,0.85,-0.2,1.4,42.7,0.98,0.07,-0.02,-0.2
1697353483.14,-0.12,0.21,0.98,-0.1,1.3,42.6,0.98,0.07,-0.02,-0.19
1697353483.15,-0.11,0.22,0.95,-0.2,0.9,42.2,0.98,0.07,-0.02,-0.19
1697353483.16,-0.15,0.22,1.04,-0.6,0.6,42,0.98,0.07,-0.02,-0.19
1697353483.17,-0.08,0.21,1.03,-0.9,0.5,41.9,0.98,0.07,-0.02,-0.19
1697353483.18,-0.12,0.23,1.03,-1.3,0.5,41.6,0.98,0.07,-0.02,-0.18
1697353483.19,-0.12,0.23,1.03,-1.3,0.5,41.6,0.98,0.07,-0.02,-0.18
1697353483.2,-0.13,0.2,0.95,-0.8,1.1,41.7,0.98,0.07,-0.02,-0.17
1697353483.21,-0.16,0.15,0.96,-0.2,1.6,41.8,0.98,0.07,-0.02,-0.17
1697353483.22,-0.16,0.18,0.99,-1.5,2.3,41.6,0.98,0.07,-0.01,-0.17
1697353483.23,-0.14,0.16,0.99,-1.5,2.3,41.6,0.98,0.07,-0.01,-0.17
1697353483.24,-0.08,0.19,0.98,-2,3.4,41.2,0.98,0.07,-0.01,-0.16
1697353483.25,-0.07,0.21,0.92,-2,4,41,0.99,0.07,-0.01,-0.15
1697353483.26,-0.08,0.22,0.97,-0.8,3.8,40.7,0.99,0.07,-0.01,-0.15
1697353483.27,-0.06,0.18,0.92,0.5,3.7,40.5,0.99,0.07,-0.01,-0.15
1697353483.28,-0.11,0.15,1.02,0.5,3.7,40.5,0.99,0.07,-0.01,-0.15
1697353483.29,-0.08,0.13,1,1.4,2.2,39.8,0.99,0.07,-0.01,-0.14
1697353483.3,-0.08,0.12,0.93,0.3,1.8,39.5,0.99,0.07,-0.01,-0.14
1697353483.31,-0.08,0.12,0.93,0.3,1.8,39.5,0.99,0.07,-0.01,-0.14
1697353483.32,-0.13,0.2,0.99,-0.8,1.5,39.2,0.99,0.07,-0.01,-0.13
1697353483.33,-0.15,0.23,1.02,-1.2,1.5,39,0.99,0.07,-0.01,-0.13
1697353483.34,-0.2,0.22,1.07,-0.6,1.5,38.8,0.99,0.07,-0.01,-0.13
1697353483.35,-0.19,0.22,1,0,1.8,38.5,0.99,0.08,-0.01,-0.13
1697353483.36,-0.18,0.18,0.99,0.4,2.3,38.4,0.99,0.08,-0.01,-0.12
1697353483.37,-0.18,0.12,1.13,-0.3,2.9,38,0.99,0.08,-0.01,-0.12
1697353483.38,-0.14,0.15,1.04,-1,3.4,37.8,0.99,0.08,-0,-0.11
1697353483.39,-0.15,0.14,1.04,-1.1,3.4,37.5,0.99,0.08,-0,-0.11
1697353483.4,-0.09,0.18,0.96,-1.1,3.4,37.3,0.99,0.08,-0,-0.11
1697353483.41,-0.06,0.16,0.97,-1,3.3,37.3,0.99,0.08,-0,-0.11
1697353483.42,-0.06,0.15,1,0.1,2.7,37.1,0.99,0.08,-0,-0.1
1697353483.43,-0.06,0.15,1,0.1,2.7,37.1,0.99,0.08,-0,-0.1
1697353483.44,-0.06,0.15,1,0.1,2.7,37.1,0.99,0.08,-0,-0.1
1697353483.45,-0.06,0.15,1,0.1,2.7,37.1,0.99,0.08,-0,-0.1
1697353483.46,-0.06,0.15,1,0.1,2.7,37.1,0.99,0.08,-0,-0.1
1697353483.47,-0.06,0.15,1,0.1,2.7,37.1,0.99,0.08,-0,-0.1
1697353483.48,-0.06,0.15,1,0.1,2.7,37.1,0.99,0.08,-0,-0.1
1697353483.49,-0.06,0.15,1,0.1,2.7,37.1,0.99,0.08,-0,-0.1
1697353483.5,-0.06,0.15,1,0.1,2.7,37.1,0.99,0.08,-0,-0.1
1697353483.51,-0.06,0.15,1,0.1,2.7,37.1,0.99,0.08,-0,-0.1
1697353483.52,-0.06,0.15,1,0.1,2.7,37.1,0.99,0.08,-0,-0.1
1697353483.53,-0.06,0.15,1,0.1,2.7,37.1,0.99,0.08,-0,-0.1
1697353483.54,-0.06,0.15,1,0.1,2.7,37.1,0.99,0.08,-0,-0.1
1697353483.55,-0.06,0.15,1,0.1,2.7,37.1,0.99,0.08,-0,-0.1
1697353483.56,-0.07,0.17,0.96,-0.9,2.8,34.8,1,0.08,0,-0.06
1697353483.57,-0.07,0.14,1.08,-0.7,2.7,34.7,1,0.08,0,-0.06
1697353483.58,-0.02,0.15,0.92,-0.4,2.4,34.7,1,0.08,0,-0.05
1697353483.59,-0.02,0.15,0.92,-0.4,2.4,34.7,1,0.08,0,-0.05
1697353483.6,0.33,0.08,1.21,-0.5,1.8,34.5,1,0.08,0,-0.05
1697353483.61,0.33,0.08,1.21,-1.1,0.9,34.2,1,0.07,0,-0.04
1697353483.62,0.4,0.17,1.03,-1.2,-0.9,33.4,1,0.07,0,-0.04
1697353483.63,0.4,0.17,1.03,-1.2,-0.9,33.4,1,0.07,0,-0.04
1697353483.64,0.19,0.27,0.65,0,-0.6,32.9,1,0.07,0,-0.03
1697353483.65,0.19,0.27,0.65,0,-0.6,32.9,1,0.07,0,-0.03
1697353483.66,-0.18,0.31,0.9,0.1,2.3,35.5,1,0.07,0,-0.03
1697353483.67,-0.18,0.31,0.9,0.1,2.3,35.5,1,0.07,0,-0.03
1697353483.68,-0.2,0.2,0.76,-0.2,4.1,37.4,1,0.07,0,-0.02
1697353483.69,-0.24,0.23,0.95,0,5.2,38.6,1,0.07,0,-0.02
1697353483.7,-0.08,0.16,0.78,-0.3,5.7,39.6,1,0.07,0,-0.01
1697353483.71,-0.14,0.1,1.09,-0.3,5.9,39.5,1,0.07,0,-0.01
1697353483.72,0.04,0.11,1,-0.2,5.4,39.1,1,0.07,0,-0.01
1697353483.73,0.21,0.09,0.97,-0.3,4.2,37.6,1,0.07,0,-0
1697353483.74,0.25,0.15,1.14,0.4,2.4,35.8,1,0.07,0,-0
1697353483.75,0.27,0.09,1.11,0.5,0.8,34,1,0.07,0,0
1697353483.76,0.3,0.13,1.02,1.1,0,32.1,1,0.07,0,0.01
1697353483.77,0.13,0.32,0.87,0.8,-0.2,31.6,1,0.07,0,0.01
1697353483.78,-0.07,0.13,0.98,0.7,0.6,32.4,1,0.07,-0,0.01
1697353483.79,-0.21,0.32,0.9,-0.6,2.2,34.4,1,0.08,0,0.01
1697353483.8,-0.3,0.24,1.2,-1.5,3.7,36.6,1,0.08,0,0.02
1697353483.81,-0.17,0.25,0.89,-1.9,5,38.6,1,0.07,0,0.02
1697353483.82,-0.14,0.23,1.02,-2,5.6,40.1,1,0.07,0,0.02
1697353483.83,-0.09,0.14,0.99,-1.3,5.6,40.9,1,0.07,0,0.03
1697353483.84,0.01,0.1,1.06,-0.6,4.6,40.6,1,0.07,0,0.03
1697353483.85,0.22,0.09,0.9,0.1,2.9,38.8,1,0.07,0,0.04
1697353483.86,0.31,-0.01,1,0.9,1,36.7,1,0.07,0,0.04
1697353483.87,0.32,0.08,0.99,1.2,-0.6,34.7,1,0.07,0,0.04
1697353483.88,0.2,0.14,1.05,1.7,-1.1,33.5,1,0.07,0,0.05
1697353483.89,0.07,0.25,1,2.2,-1.1,33.4,1,0.08,0,0.05
1697353483.9,-0.06,0.25,0.89,2.1,-0.1,34.4,1,0.08,0,0.05
1697353483.91,-0.18,0.26,1.01,1.4,1.1,36,1,0.08,-0,0.05
1697353483.92,-0.17,0.24,0.78,0,2.5,37.9,1,0.08,-0,0.05
1697353483.93,-0.18,0.2,1.08,-1.2,3.5,39.4,1,0.08,0,0.06
1697353483.94,-0.07,0.21,0.85,-1.9,3.8,40.5,0.99,0.08,0,0.06
1697353483.95,-0.07,0.21,0.85,-1.9,3.8,40.5,0.99,0.08,0,0.06
1697353483.96,-0.07,0.21,0.85,-1.9,3.8,40.5,0.99,0.08,0,0.06
1697353483.97,-0.07,0.21,0.85,-1.9,3.8,40.5,0.99,0.08,0,0.06
1697353483.98,-0.07,0.21,0.85,-1.9,3.8,40.5,0.99,0.08,0,0.06
1697353483.99,-0.07,0.21,0.85,-1.9,3.8,40.5,0.99,0.08,0,0.06
1697353484,-0.07,0.21,0.85,-1.9,3.8,40.5,0.99,0.08,0,0.06
1697353484.01,-0.07,0.21,0.85,-1.9,3.8,40.5,0.99,0.08,0,0.06
1697353484.02,-0.07,0.21,0.85,-1.9,3.8,40.5,0.99,0.08,0,0.06
1697353484.03,-0.07,0.21,0.85,-1.9,3.8,40.5,0.99,0.08,0,0.06
1697353484.04,-0.07,0.21,0.85,-1.9,3.8,40.5,0.99,0.08,0,0.06
1697353484.05,-0.07,0.21,0.85,-1.9,3.8,40.5,0.99,0.08,0,0.06
1697353484.06,-0.07,0.21,0.85,-1.9,3.8,40.5,0.99,0.08,0,0.06
1697353484.07,-0.07,0.21,0.85,-1.9,3.8,40.5,0.99,0.08,0,0.06
1697353484.08,-0.07,0.21,0.85,-1.9,3.8,40.5,0.99,0.08,0,0.06
1697353484.09,-0.07,0.21,0.85,-1.9,3.8,40.5,0.99,0.08,0,0.06
1697353484.1,-0.07,0.21,0.85,-1.9,3.8,40.5,0.99,0.08,0,0.06
1697353484.11,-0.07,0.21,0.85,-1.9,3.8,40.5,0.99,0.08,0,0.06
1697353484.12,-0.07,0.21,0.85,-1.9,3.8,40.5,0.99,0.08,0,0.06
1697353484.13,-0.07,0.21,0.85,-1.9,3.8,40.5,0.99,0.08,0,0.06
1697353484.14,-0.07,0.21,0.85,-1.9,3.8,40.5,0.99,0.08,0,0.06
1697353484.15,-0.07,0.21,0.85,-1.9,3.8,40.5,0.99,0.08,0,0.06
1697353484.16,-0.07,0.21,0.85,-1.9,3.8,40.5,0.99,0.08,0,0.06
1697353484.17,-0.07,0.21,0.85,-1.9,3.8,40.5,0.99,0.08,0,0.06
1697353484.18,-0.07,0.21,0.85,-1.9,3.8,40.5,0.99,0.08,0,0.06
1697353484.19,-0.07,0.21,0.85,-1.9,3.8,40.5,0.99,0.08,0,0.06
1697353484.2,-0.07,0.21,0.85,-1.9,3.8,40.5,0.99,0.08,0,0.06
1697353484.21,-0.07,0.21,0.85,-1.9,3.8,40.5,0.99,0.08,0,0.06
1697353484.22,-0.07,0.21,0.85,-1.9,3.8,40.5,0.99,0.08,0,0.06
1697353484.23,-0.07,0.21,0.85,-1.9,3.8,40.5,0.99,0.08,0,0.06
1697353484.24,-0.07,0.21,0.85,-1.9,3.8,40.5,0.99,0.08,0,0.06
1697353484.25,-0.09,0.21,0.91,1.4,-1.7,37.2,0.98,0.08,-0.01,0.16
1697353484.26,-0.09,0.21,0.91,1.3,-1.6,37.8,0.98,0.08,-0.01,0.17
1697353484.27,-0.12,0.21,1.03,0.4,-0.3,39.9,0.98,0.08,-0.01,0.17
1697353484.28,-0.12,0.21,1.03,0.4,-0.3,39.9,0.98,0.08,-0.01,0.17
1697353484.29,-0.01,0.18,1.01,-0.2,0.6,41.3,0.98,0.08,-0.01,0.18
1697353484.3,0.06,0.17,0.97,-0.2,0.6,41.3,0.98,0.08,-0.01,0.18
1697353484.31,0.07,0.13,1.18,0.3,0.3,41,0.98,0.08,-0.01,0.19
1697353484.32,0.18,0.14,0.91,0.5,0,40,0.98,0.08,-0.01,0.19
1697353484.33,0.18,0.14,0.91,0.5,0,40,0.98,0.08,-0.01,0.19
1697353484.34,0.02,0.21,1.05,0.6,-0.4,39,0.98,0.08,-0.01,0.19
1697353484.35,0.02,0.21,1.05,0.6,-0.8,38.3,0.98,0.08,-0.01,0.2
1697353484.36,-0.04,0.24,1.12,0.8,-0.9,38.1,0.98,0.08,-0.01,0.2
1697353484.37,-0.09,0.22,0.94,0.8,-0.9,38.3,0.98,0.08,-0.01,0.2
1697353484.38,-0.09,0.22,0.94,0,-0.1,39.8,0.97,0.08,-0.01,0.21
1697353484.39,-0.07,0.21,0.96,-0.7,0.3,40.7,0.97,0.08,-0.01,0.21
1697353484.4,-0.08,0.17,1.13,-1.1,0.2,41.2,0.97,0.08,-0.01,0.22
1697353484.41,0.02,0.17,0.94,-1.3,0,41.2,0.97,0.08,-0.01,0.22
1697353484.42,0.06,0.16,1.02,-1.3,-0.2,40.9,0.97,0.08,-0.01,0.22
1697353484.43,0.11,0.15,0.97,-0.7,-0.9,40.2,0.97,0.08,-0.01,0.23
1697353484.44,0.12,0.17,1.15,-0.2,-1.4,39.4,0.97,0.08,-0.01,0.23
1697353484.45,0.07,0.19,1.04,0.4,-1.8,39,0.97,0.08,-0.01,0.23
1697353484.46,0.07,0.2,0.94,1,-1.5,38.9,0.97,0.08,-0.01,0.24
1697353484.47,-0.06,0.23,1.03,1.1,-1.1,39.1,0.97,0.08,-0.01,0.24
1697353484.48,-0.03,0.2,0.87,1,-0.3,39.5,0.97,0.08,-0.01,0.24
1697353484.49,-0.08,0.2,1.08,0.3,0.3,40.1,0.97,0.08,-0.01,0.25
1697353484.5,-0.05,0.17,0.84,-0.1,0.8,40.6,0.97,0.08,-0.01,0.25
1697353484.51,-0.06,0.17,1.2,-0.1,0.9,40.7,0.96,0.08,-0.01,0.25
1697353484.52,0.09,0.21,0.83,-0.5,0.6,41.1,0.96,0.08,-0.01,0.26
1697353484.53,0.08,0.2,1.1,-0.4,-0.2,40.9,0.96,0.08,-0.01,0.26
1697353484.54,0.07,0.18,1.03,0.1,-1,40.6,0.96,0.08,-0.01,0.26
1697353484.55,0.07,0.18,1.03,0.1,-1,40.6,0.96,0.08,-0.01,0.26
1697353484.56,0.03,0.2,1.13,0.5,-1.7,40.2,0.96,0.08,-0.01,0.27
1697353484.57,0.04,0.18,0.91,0.1,-1.8,40.1,0.96,0.08,-0.01,0.27
1697353484.58,-0.01,0.2,0.98,-0.3,-1.3,40.3,0.96,0.08,-0.01,0.27
1697353484.59,-0.04,0.17,1.08,-1,-0.4,40.7,0.96,0.08,-0.01,0.28
1697353484.6,-0.02,0.21,0.96,-1,-0.4,40.7,0.96,0.08,-0.01,0.28
1697353484.61,-0.06,0.18,1.09,-1.3,0,41.1,0.95,0.08,-0.01,0.29
1697353484.62,-0.04,0.19,1.06,-1.5,0.6,41.4,0.95,0.08,-0.01,0.29
1697353484.63,0.03,0.18,1.02,-1.5,0.6,41.4,0.95,0.08,-0.01,0.29
1697353484.64,0.03,0.18,1.02,-1.7,0.7,41.5,0.95,0.08,-0.01,0.3
1697353484.65,0.03,0.18,1.02,-1.7,0.7,41.5,0.95,0.08,-0.01,0.3
1697353484.66,0.03,0.18,1.02,-1.7,0.7,41.5,0.95,0.08,-0.01,0.3
1697353484.67,0.03,0.18,1.02,-1.7,0.7,41.5,0.95,0.08,-0.01,0.3
1697353484.68,0.03,0.18,1.02,-1.7,0.7,41.5,0.95,0.08,-0.01,0.3
1697353484.69,0.03,0.18,1.02,-1.7,0.7,41.5,0.95,0.08,-0.01,0.3
1697353484.7,0.03,0.18,1.02,-1.7,0.7,41.5,0.95,0.08,-0.01,0.3
1697353484.71,0.03,0.18,1.02,-1.7,0.7,41.5,0.95,0.08,-0.01,0.3
1697353484.72,0.03,0.18,1.02,-1.7,0.7,41.5,0.95,0.08,-0.01,0.3
1697353484.73,0.03,0.18,1.02,-1.7,0.7,41.5,0.95,0.08,-0.01,0.3
1697353484.74,0.03,0.18,1.02,-1.7,0.7,41.5,0.95,0.08,-0.01,0.3
1697353484.75,0.03,0.18,1.02,-1.7,0.7,41.5,0.95,0.08,-0.01,0.3
1697353484.76,0.03,0.18,1.02,-1.7,0.7,41.5,0.95,0.08,-0.01,0.3
1697353484.77,0.14,0.21,1.07,-0.9,0.9,41.3,0.94,0.08,-0.02,0.34
1697353484.78,0.05,0.22,1.03,-1.1,0.4,41.1,0.94,0.08,-0.02,0.35
1697353484.79,0.04,0.23,1.03,-0.4,0.1,41.1,0.93,0.08,-0.02,0.35
1697353484.8,0,0.21,1.09,0.1,0,41.2,0.93,0.08,-0.02,0.35
1697353484.81,-0.03,0.21,1.09,0.4,0,41.3,0.93,0.08,-0.02,0.36
1697353484.82,0.02,0.18,0.95,0.3,0.2,41.5,0.93,0.08,-0.02,0.36
1697353484.83,-0.05,0.18,1.09,0.3,0.2,41.5,0.93,0.08,-0.02,0.36
1697353484.84,0.02,0.17,1.07,-0.6,0.6,41.9,0.93,0.08,-0.02,0.37
1697353484.85,0.02,0.17,1.07,-0.6,0.6,41.9,0.93,0.08,-0.02,0.37
1697353484.86,0.07,0.15,0.99,-0.4,0.6,42.2,0.92,0.08,-0.02,0.37
1697353484.87,0.07,0.15,0.99,-0.4,0.6,42.2,0.92,0.08,-0.02,0.37
1697353484.88,0.06,0.18,0.97,0.7,-0.3,41.8,0.92,0.08,-0.02,0.38
1697353484.89,0.07,0.19,0.98,1,-0.7,41.5,0.92,0.08,-0.02,0.38
1697353484.9,0.04,0.22,1.03,1.2,-0.7,41.3,0.92,0.08,-0.02,0.39
1697353484.91,-0.04,0.2,0.96,1.3,-0.8,41.5,0.92,0.08,-0.02,0.39
1697353484.92,-0.03,0.24,0.94,0.5,-0.5,41.7,0.92,0.08,-0.02,0.39
1697353484.93,-0.08,0.25,1.12,-0.1,0,41.9,0.91,0.08,-0.02,0.4
1697353484.94,-0.06,0.28,1.15,-0.4,0.5,42.4,0.91,0.08,-0.02,0.4
1697353484.95,-0.02,0.27,1.18,-0.6,1.4,42.8,0.91,0.08,-0.02,0.4
1697353484.96,-0.01,0.25,1.12,-0.4,1.6,43,0.91,0.08,-0.02,0.41
1697353484.97,0.02,0.18,1,-0.4,1.6,43,0.91,0.08,-0.02,0.41
1697353484.98,0.05,0.2,1.17,-0.8,1.6,43,0.91,0.08,-0.02,0.41
1697353484.99,0.05,0.18,0.98,-1,1.5,42.9,0.91,0.08,-0.02,0.41
1697353485,0.07,0.19,0.87,-1.3,1.1,42.7,0.9,0.08,-0.02,0.42
1697353485.01,-0.01,0.25,1.22,-1.4,1,42.4,0.9,0.08,-0.02,0.42
1697353485.02,-0,0.22,1,-1.4,1,42.4,0.9,0.08,-0.02,0.42
1697353485.03,-0,0.22,1,-0.9,0.6,42.4,0.9,0.08,-0.02,0.43
1697353485.04,-0.02,0.18,0.94,-0.2,0.5,42.5,0.9,0.08,-0.02,0.43
1697353485.05,-0.02,0.2,1.07,0,0.4,42.6,0.9,0.08,-0.02,0.44
1697353485.06,0.02,0.12,0.83,0,0.1,42.8,0.9,0.08,-0.02,0.44
1697353485.07,-0.07,0.14,1.15,-0.1,-0.1,42.7,0.9,0.08,-0.02,0.44
1697353485.08,-0.02,0.14,0.87,-0.8,-0.4,42.7,0.89,0.07,-0.02,0.44
1697353485.09,0.01,0.23,0.84,-2.1,0.5,42.9,0.89,0.07,-0.02,0.45
1697353485.1,-0.04,0.23,1,-1.5,0.8,42.7,0.89,0.07,-0.02,0.45
1697353485.11,-0,0.24,1.05,-0.1,1.3,42.6,0.89,0.07,-0.02,0.46
1697353485.12,-0.01,0.27,0.86,1.2,1.3,42.7,0.89,0.07,-0.02,0.46
1697353485.13,-0.04,0.21,1.06,1.7,1.3,42.6,0.88,0.07,-0.02,0.46
1697353485.14,-0.03,0.2,1.04,1.3,1.3,42.9,0.88,0.07,-0.02,0.47
1697353485.15,-0.09,0.18,0.99,0.4,1.3,43,0.88,0.07,-0.02,0.47
1697353485.16,-0.06,0.2,1.02,0.4,1.3,43,0.88,0.07,-0.02,0.47
1697353485.17,-0.06,0.2,1.02,0.4,1.3,43,0.88,0.07,-0.02,0.47
1697353485.18,-0.06,0.2,1.02,0.4,1.3,43,0.88,0.07,-0.02,0.47
1697353485.19,-0.06,0.2,1.02,0.4,1.3,43,0.88,0.07,-0.02,0.47
1697353485.2,-0.06,0.2,1.02,0.4,1.3,43,0.88,0.07,-0.02,0.47
1697353485.21,-0.06,0.2,1.02,0.4,1.3,43,0.88,0.07,-0.02,0.47
1697353485.22,-0.06,0.2,1.02,0.4,1.3,43,0.88,0.07,-0.02,0.47
1697353485.23,-0.06,0.2,1.02,0.4,1.3,43,0.88,0.07,-0.02,0.47
1697353485.24,-0.06,0.2,1.02,0.4,1.3,43,0.88,0.07,-0.02,0.47
1697353485.25,-0.06,0.2,1.02,0.4,1.3,43,0.88,0.07,-0.02,0.47
1697353485.26,-0.06,0.2,1.02,0.4,1.3,43,0.88,0.07,-0.02,0.47
1697353485.27,-0.06,0.2,1.02,0.4,1.3,43,0.88,0.07,-0.02,0.47
1697353485.28,-0.06,0.2,1.02,0.4,1.3,43,0.88,0.07,-0.02,0.47
1697353485.29,-0.11,0.18,0.96,0.5,0.3,41.6,0.85,0.07,-0.02,0.52
1697353485.3,-0.09,0.17,0.91,0.1,0.2,41.4,0.85,0.07,-0.02,0.52
1697353485.31,-0.1,0.2,1.01,0.1,0.2,41.4,0.85,0.07,-0.02,0.52
1697353485.32,-0.1,0.2,0.95,-0.4,-0.2,41.3,0.85,0.07,-0.02,0.53
1697353485.33,-0.1,0.2,0.95,-0.4,-0.2,41.3,0.85,0.07,-0.02,0.53
1697353485.34,-0.32,0.11,0.88,0.1,0.2,41.3,0.84,0.07,-0.02,0.53
1697353485.35,-0.36,0.14,0.67,0.1,0.2,41.3,0.84,0.07,-0.02,0.53
1697353485.36,-0.43,0.07,1.07,0.5,1.9,40,0.84,0.07,-0.02,0.54
1697353485.37,-0.33,0.08,0.87,0.2,2.7,39.1,0.84,0.07,-0.02,0.54
1697353485.38,-0.33,0.08,0.87,0.2,2.7,39.1,0.84,0.07,-0.02,0.54
1697353485.39,-0.09,0.14,1.1,-0.7,2.9,38,0.84,0.07,-0.02,0.55
1697353485.4,0,0.17,1.05,-1.6,2.2,38.4,0.84,0.07,-0.02,0.55
1697353485.41,-0.08,0.16,1.12,-1.7,1,39,0.83,0.07,-0.02,0.55
1697353485.42,-0.08,0.16,1.12,-1.7,1,39,0.83,0.07,-0.02,0.55
1697353485.43,-0.09,0.2,1.18,-1.4,-0.3,39.6,0.83,0.07,-0.02,0.55
1697353485.44,0.01,0.1,0.99,-1.5,-2,40.3,0.83,0.07,-0.02,0.56
1697353485.45,0.06,0.18,0.91,-1.6,-3.1,40.5,0.83,0.07,-0.02,0.56
1697353485.46,0.21,0.13,1.59,-1.1,-4.3,39.9,0.82,0.07,-0.02,0.56
1697353485.47,0.39,0.22,1.12,-0.4,-4.4,38.9,0.82,0.07,-0.02,0.57
1697353485.48,0.36,0.09,1.22,0.7,-4.4,37.5,0.82,0.07,-0.02,0.57
1697353485.49,0.31,-0.09,1.02,0.9,-3.3,35.5,0.82,0.07,-0.02,0.57
1697353485.5,-0.06,0.19,0.87,1.3,-0.6,36.2,0.82,0.07,-0.02,0.57
1697353485.51,-0.3,0.1,1.09,3.4,1.4,36.8,0.81,0.07,-0.02,0.58
1697353485.52,-0.25,0.32,1.04,2.6,3,39.3,0.81,0.07,-0.02,0.58
1697353485.53,-0.25,0.25,1.13,1.9,4.4,41.3,0.81,0.07,-0.02,0.58
1697353485.54,-0.19,0.23,1,0,4.2,43,0.81,0.07,-0.02,0.59
1697353485.55,-0.16,0.32,0.96,-0.6,3.9,44.3,0.8,0.07,-0.02,0.59
1697353485.56,0.03,0.24,0.92,-0.3,2.4,44.6,0.8,0.07,-0.02,0.59
1697353485.57,0.14,0.13,0.92,-0.4,0.4,44.2,0.8,0.07,-0.02,0.6
1697353485.58,0.4,0.16,1.05,0.1,-1.9,42,0.8,0.07,-0.02,0.6
1697353485.59,0.41,0.05,1.01,-0.3,-4.7,39,0.8,0.07,-0.02,0.6
1697353485.6,0.42,0.2,0.92,-0.3,-4.7,39,0.8,0.07,-0.02,0.6
1697353485.61,0.19,0.22,1.04,1.7,-5.3,34.9,0.79,0.07,-0.02,0.61
1697353485.62,-0.14,0.26,0.93,2.1,-4,35.2,0.79,0.07,-0.02,0.61
1697353485.63,-0.19,0.25,1.19,2.8,-1.3,36.2,0.79,0.07,-0.02,0.61
1697353485.64,-0.25,0.26,1,1.2,1.1,38.9,0.79,0.07,-0.02,0.61
1697353485.65,-0.2,0.02,0.98,-0.8,3.1,40.6,0.78,0.07,-0.02,0.62
1697353485.66,-0.11,0.18,1.16,-3.3,3.7,42.7,0.78,0.07,-0.02,0.62
1697353485.67,-0.04,0.2,1.03,-3,3.3,44,0.78,0.07,-0.02,0.62
1697353485.68,0.2,0.12,0.95,-1.3,1.8,43.7,0.78,0.07,-0.02,0.63
1697353485.69,0.2,0.12,0.95,-1.3,1.8,43.7,0.78,0.07,-0.02,0.63
1697353485.7,0.2,0.12,0.95,-1.3,1.8,43.7,0.78,0.07,-0.02,0.63
1697353485.71,0.2,0.12,0.95,-1.3,1.8,43.7,0.78,0.07,-0.02,0.63
1697353485.72,0.2,0.12,0.95,-1.3,1.8,43.7,0.78,0.07,-0.02,0.63
1697353485.73,0.2,0.12,0.95,-1.3,1.8,43.7,0.78,0.07,-0.02,0.63
1697353485.74,0.2,0.12,0.95,-1.3,1.8,43.7,0.78,0.07,-0.02,0.63
1697353485.75,0.2,0.12,0.95,-1.3,1.8,43.7,0.78,0.07,-0.02,0.63
1697353485.76,0.2,0.12,0.95,-1.3,1.8,43.7,0.78,0.07,-0.02,0.63
1697353485.77,0.2,0.12,0.95,-1.3,1.8,43.7,0.78,0.07,-0.02,0.63
1697353485.78,0.2,0.12,0.95,-1.3,1.8,43.7,0.78,0.07,-0.02,0.63
1697353485.79,0.2,0.12,0.95,-1.3,1.8,43.7,0.78,0.07,-0.02,0.63
1697353485.8,0.2,0.12,0.95,-1.3,1.8,43.7,0.78,0.07,-0.02,0.63
1697353485.81,0.2,0.12,0.95,-1.3,1.8,43.7,0.78,0.07,-0.02,0.63
1697353485.82,0.36,0.17,0.97,0.3,0.2,40.5,0.75,0.07,-0.03,0.66
1697353485.83,0.29,0.18,1.26,1.1,-1.1,39,0.74,0.07,-0.03,0.66
1697353485.84,0.24,0.23,0.97,1.5,-1.6,38.1,0.74,0.07,-0.03,0.67
1697353485.85,0.06,0.24,0.97,1.5,-1.8,38.3,0.74,0.07,-0.03,0.67
1697353485.86,-0.05,0.23,1,1.5,-1.8,38.3,0.74,0.07,-0.03,0.67
1697353485.87,-0.1,0.23,0.95,1.3,-1,39.2,0.73,0.07,-0.03,0.68
1697353485.88,-0.08,0.17,1.06,0.1,0.1,40.7,0.73,0.07,-0.03,0.68
1697353485.89,0,0.12,1.11,-1.5,1.1,42,0.73,0.07,-0.03,0.68
1697353485.9,0.02,0.11,1.07,-2,1.6,41.7,0.73,0.07,-0.03,0.68
1697353485.91,0.28,0.13,0.7,-1.7,0.8,40.9,0.72,0.07,-0.03,0.69
1697353485.92,0.3,0.14,1.02,-0.2,-0.2,39.5,0.72,0.07,-0.03,0.69
1697353485.93,0.31,0.14,1.03,1.6,-1.3,37.7,0.72,0.07,-0.03,0.69
1697353485.94,0.24,0.16,0.87,2.9,-2.4,36.6,0.72,0.07,-0.03,0.69
1697353485.95,0.11,0.13,1.15,2.9,-2.4,36.6,0.72,0.07,-0.03,0.69
1697353485.96,0.09,0.13,0.68,1.4,-2.9,36.2,0.71,0.07,-0.03,0.7
1697353485.97,-0.05,0.2,0.94,0.1,-2.2,36.9,0.71,0.07,-0.03,0.7
1697353485.98,-0.04,0.23,0.94,-0.8,-1.3,38.1,0.71,0.07,-0.03,0.7
1697353485.99,-0.09,0.21,0.96,-0.8,-0.5,38.8,0.7,0.07,-0.03,0.71
1697353486,0.04,0.16,1.11,-0.8,-0.5,38.8,0.7,0.07,-0.03,0.71
1697353486.01,0.15,0.07,0.89,-1.7,0.8,38.4,0.7,0.07,-0.03,0.71
1697353486.02,0.18,0.09,0.98,-2.1,0.9,38.1,0.7,0.07,-0.03,0.71
1697353486.03,0.23,0.14,1.05,-3,0.9,35.9,0.7,0.07,-0.03,0.71
1697353486.04,0.27,0.21,0.88,-1.8,0.8,34.7,0.69,0.07,-0.03,0.72
1697353486.05,0.15,0.25,1.19,0.6,0.6,33.7,0.69,0.07,-0.03,0.72
1697353486.06,0.11,0.19,0.85,1.9,0.4,33.4,0.69,0.07,-0.03,0.72
1697353486.07,0.04,0.14,1,1.6,0.4,33.7,0.69,0.07,-0.03,0.72
1697353486.08,0.09,0.1,0.67,0,0.5,34.2,0.69,0.07,-0.03,0.72
1697353486.09,-0.01,0.14,1.02,-2,0.8,34.8,0.68,0.07,-0.03,0.73
1697353486.1,0.07,0.11,0.72,-2,0.8,34.8,0.68,0.07,-0.03,0.73
1697353486.11,0.13,0.17,1.02,-3,0.7,35.3,0.68,0.07,-0.03,0.73
1697353486.12,0.13,0.17,1.02,-2.7,0.6,35.3,0.68,0.07,-0.03,0.73
1697353486.13,0.23,0.13,0.97,-1.8,0.3,34.8,0.68,0.07,-0.03,0.73
1697353486.14,0.28,0.05,1.04,-0.6,0.2,33.8,0.67,0.06,-0.04,0.74
1697353486.15,0.2,0.02,0.99,-0.2,0,32.3,0.67,0.06,-0.04,0.74
1697353486.16,0.24,0.06,0.9,-0.6,0.3,30.8,0.67,0.06,-0.04,0.74
1697353486.17,0.19,0.08,0.86,-0.8,0.6,29.6,0.67,0.06,-0.04,0.74
1697353486.18,0.09,0.1,1.01,-1.2,1.1,28.8,0.66,0.06,-0.04,0.74
1697353486.19,0.09,0.17,0.94,-1,1.7,28.5,0.66,0.06,-0.04,0.75
1697353486.2,0.03,0.12,1.22,-0.1,2.1,28.6,0.66,0.06,-0.04,0.75
1697353486.21,0.1,0.09,1.01,-0.1,2.1,28.6,0.66,0.06,-0.04,0.75
1697353486.22,0.1,0.09,1.01,-0.1,2.1,28.6,0.66,0.06,-0.04,0.75
1697353486.23,0.1,0.09,1.01,-0.1,2.1,28.6,0.66,0.06,-0.04,0.75
1697353486.24,0.1,0.09,1.01,-0.1,2.1,28.6,0.66,0.06,-0.04,0.75
1697353486.25,0.1,0.09,1.01,-0.1,2.1,28.6,0.66,0.06,-0.04,0.75
1697353486.26,0.1,0.09,1.01,-0.1,2.1,28.6,0.66,0.06,-0.04,0.75
1697353486.27,0.1,0.09,1.01,-0.1,2.1,28.6,0.66,0.06,-0.04,0.75
1697353486.28,0.1,0.09,1.01,-0.1,2.1,28.6,0.66,0.06,-0.04,0.75
1697353486.29,0.1,0.09,1.01,-0.1,2.1,28.6,0.66,0.06,-0.04,0.75
1697353486.3,0.1,0.09,1.01,-0.1,2.1,28.6,0.66,0.06,-0.04,0.75
1697353486.31,0.1,0.09,1.01,-0.1,2.1,28.6,0.66,0.06,-0.04,0.75
1697353486.32,0.1,0.09,1.01,-0.1,2.1,28.6,0.66,0.06,-0.04,0.75
1697353486.33,0.1,0.09,1.01,-0.1,2.1,28.6,0.66,0.06,-0.04,0.75
1697353486.34,0.22,-0.17,1.08,-2.8,-0.3,10.1,0.64,0.06,-0.04,0.76
1697353486.35,0.21,-0.28,1.02,-1.8,-0.5,8,0.64,0.06,-0.04,0.76
1697353486.36,0.22,-0.33,1.03,-1.5,-0.6,5.8,0.64,0.06,-0.04,0.76
1697353486.37,0.25,-0.34,0.93,-2,-0.7,3.7,0.64,0.06,-0.04,0.76
1697353486.38,0.18,-0.29,1.05,-2.3,-0.8,1.4,0.64,0.06,-0.04,0.76
1697353486.39,0.17,-0.28,0.84,-2.6,-0.4,-0.3,0.64,0.06,-0.04,0.77
1697353486.4,0.15,-0.33,0.97,-2.6,-0.4,-0.3,0.64,0.06,-0.04,0.76
1697353486.41,0.21,-0.21,0.77,-0.3,0.2,-3.2,0.64,0.06,-0.04,0.76
1697353486.42,0.12,-0.3,0.99,0.4,0.5,-3.9,0.64,0.06,-0.04,0.76
1697353486.43,0.12,-0.34,1.07,1.5,0.8,-4.6,0.64,0.06,-0.04,0.76
1697353486.44,0.15,-0.25,1.12,2,1.2,-5.7,0.64,0.06,-0.04,0.76
1697353486.45,0.2,-0.39,1.25,1.9,1.5,-6.5,0.64,0.06,-0.04,0.76
1697353486.46,0.25,-0.3,0.9,0.5,1.2,-7.5,0.64,0.06,-0.04,0.76
1697353486.47,0.11,-0.18,1.13,-1.2,0.6,-8.6,0.64,0.06,-0.04,0.76
1697353486.48,0.21,-0.12,0.96,-1.1,-0.1,-9.4,0.64,0.06,-0.04,0.76
1697353486.49,0.18,-0.07,0.89,0.3,-0.6,-10.2,0.64,0.06,-0.04,0.76
1697353486.5,0.08,-0.24,1.03,2.2,-0.9,-10.5,0.64,0.06,-0.04,0.76
1697353486.51,0.16,-0.22,0.89,2,-0.9,-11.1,0.64,0.06,-0.04,0.76
1697353486.52,0.04,-0.35,1.28,1,-0.5,-12,0.65,0.06,-0.04,0.76
1697353486.53,0.04,-0.35,1.28,1,-0.5,-12,0.65,0.06,-0.04,0.76
1697353486.54,0.17,-0.24,0.86,-1.1,0,-12.8,0.65,0.06,-0.04,0.76
1697353486.55,0.21,-0.15,0.92,-3,0.3,-13.6,0.65,0.06,-0.04,0.76
1697353486.56,0.1,-0.17,1.21,-2.4,0.4,-14.2,0.65,0.06,-0.04,0.76
1697353486.57,0.23,-0.17,1.01,-0.7,0,-14.8,0.65,0.06,-0.04,0.76
1697353486.58,0.21,-0.24,0.98,0.8,-0.1,-15.3,0.65,0.06,-0.04,0.76
1697353486.59,0.15,-0.51,1.05,1.1,-0.5,-16,0.65,0.06,-0.04,0.75
1697353486.6,0.09,-0.18,1.03,0.2,-0.6,-17.7,0.65,0.06,-0.04,0.75
1697353486.61,0.15,-0.55,0.89,-1.5,-0.8,-18.4,0.65,0.06,-0.04,0.75
1697353486.62,0.1,-0.15,1.21,-1.7,-0.7,-20.2,0.66,0.06,-0.04,0.75
1697353486.63,0.2,-0.34,0.89,-2.3,-1,-21.4,0.66,0.06,-0.04,0.75
1697353486.64,0.08,-0.16,1.11,-1.9,-1.3,-22.1,0.66,0.06,-0.04,0.75
1697353486.65,0.06,-0.16,1,0.2,-1,-22.9,0.66,0.06,-0.04,0.75
1697353486.66,0.12,-0.26,1.03,2.6,-0.2,-22.7,0.66,0.06,-0.04,0.75
1697353486.67,0.18,-0.49,1.06,4.1,0.3,-23,0.66,0.06,-0.04,0.74
1697353486.68,-0.04,-0.64,1.54,2.2,0.3,-24,0.67,0.06,-0.04,0.74
1697353486.69,0.22,-0.33,0.55,-2.9,0.8,-24.2,0.67,0.06,-0.04,0.74
1697353486.7,0.14,-0.12,1.14,-6.6,2,-24.5,0.67,0.06,-0.04,0.74
1697353486.71,0.14,-0.12,1.01,-3.7,2.2,-24.7,0.67,0.06,-0.04,0.74
1697353486.72,0.14,-0.12,1.01,-3.7,2.2,-24.7,0.67,0.06,-0.04,0.74
1697353486.73,0.14,-0.12,1.01,-3.7,2.2,-24.7,0.67,0.06,-0.04,0.74
1697353486.74,0.14,-0.12,1.01,-3.7,2.2,-24.7,0.67,0.06,-0.04,0.74
1697353486.75,0.14,-0.12,1.01,-3.7,2.2,-24.7,0.67,0.06,-0.04,0.74
1697353486.76,0.14,-0.12,1.01,-3.7,2.2,-24.7,0.67,0.06,-0.04,0.74
1697353486.77,0.14,-0.12,1.01,-3.7,2.2,-24.7,0.67,0.06,-0.04,0.74
1697353486.78,0.14,-0.12,1.01,-3.7,2.2,-24.7,0.67,0.06,-0.04,0.74
1697353486.79,0.14,-0.12,1.01,-3.7,2.2,-24.7,0.67,0.06,-0.04,0.74
1697353486.8,0.14,-0.12,1.01,-3.7,2.2,-24.7,0.67,0.06,-0.04,0.74
1697353486.81,0.14,-0.12,1.01,-3.7,2.2,-24.7,0.67,0.06,-0.04,0.74
1697353486.82,0.14,-0.12,1.01,-3.7,2.2,-24.7,0.67,0.06,-0.04,0.74
1697353486.83,0.14,-0.12,1.01,-3.7,2.2,-24.7,0.67,0.06,-0.04,0.74
1697353486.84,0.14,-0.12,1.01,-3.7,2.2,-24.7,0.67,0.06,-0.04,0.74
1697353486.85,0.14,-0.12,1.01,-3.7,2.2,-24.7,0.67,0.06,-0.04,0.74
1697353486.86,0.14,-0.12,1.01,-3.7,2.2,-24.7,0.67,0.06,-0.04,0.74
1697353486.87,0.14,-0.12,1.01,-3.7,2.2,-24.7,0.67,0.06,-0.04,0.74
1697353486.88,0.14,-0.12,1.01,-3.7,2.2,-24.7,0.67,0.06,-0.04,0.74
1697353486.89,0.14,-0.12,1.01,-3.7,2.2,-24.7,0.67,0.06,-0.04,0.74
1697353486.9,0.14,-0.12,1.01,-3.7,2.2,-24.7,0.67,0.06,-0.04,0.74
1697353486.91,0.14,-0.12,1.01,-3.7,2.2,-24.7,0.67,0.06,-0.04,0.74
1697353486.92,0.14,-0.12,1.01,-3.7,2.2,-24.7,0.67,0.06,-0.04,0.74
1697353486.93,0.14,-0.12,1.01,-3.7,2.2,-24.7,0.67,0.06,-0.04,0.74
1697353486.94,0.14,-0.12,1.01,-3.7,2.2,-24.7,0.67,0.06,-0.04,0.74
1697353486.95,0.14,-0.12,1.01,-3.7,2.2,-24.7,0.67,0.06,-0.04,0.74
1697353486.96,0.14,-0.12,1.01,-3.7,2.2,-24.7,0.67,0.06,-0.04,0.74
1697353486.97,0.14,-0.12,1.01,-3.7,2.2,-24.7,0.67,0.06,-0.04,0.74
1697353486.98,0.14,-0.12,1.01,-3.7,2.2,-24.7,0.67,0.06,-0.04,0.74
1697353486.99,0.14,-0.12,1.01,-3.7,2.2,-24.7,0.67,0.06,-0.04,0.74
1697353487,0.14,-0.12,1.01,-3.7,2.2,-24.7,0.67,0.06,-0.04,0.74
1697353487.01,0.14,-0.12,1.01,-3.7,2.2,-24.7,0.67,0.06,-0.04,0.74
1697353487.02,0.14,-0.12,1.01,-3.7,2.2,-24.7,0.67,0.06,-0.04,0.74
1697353487.03,0.14,-0.12,1.01,-3.7,2.2,-24.7,0.67,0.06,-0.04,0.74
1697353487.04,0.14,-0.12,1.01,-3.7,2.2,-24.7,0.67,0.06,-0.04,0.74
1697353487.05,0.14,-0.12,1.01,-3.7,2.2,-24.7,0.67,0.06,-0.04,0.74
1697353487.06,0.14,-0.12,1.01,-3.7,2.2,-24.7,0.67,0.06,-0.04,0.74
1697353487.07,0.14,-0.12,1.01,-3.7,2.2,-24.7,0.67,0.06,-0.04,0.74
1697353487.08,0.14,-0.12,1.01,-3.7,2.2,-24.7,0.67,0.06,-0.04,0.74
1697353487.09,0.14,-0.12,1.01,-3.7,2.2,-24.7,0.67,0.06,-0.04,0.74
1697353487.1,0.14,-0.12,1.01,-3.7,2.2,-24.7,0.67,0.06,-0.04,0.74
1697353487.11,0.14,-0.12,1.01,-3.7,2.2,-24.7,0.67,0.06,-0.04,0.74
1697353487.12,0.14,-0.12,1.01,-3.7,2.2,-24.7,0.67,0.06,-0.04,0.74
1697353487.13,0.14,-0.12,1.01,-3.7,2.2,-24.7,0.67,0.06,-0.04,0.74
1697353487.14,0.14,-0.12,1.01,-3.7,2.2,-24.7,0.67,0.06,-0.04,0.74
1697353487.15,0.14,-0.12,1.01,-3.7,2.2,-24.7,0.67,0.06,-0.04,0.74
1697353487.16,0.14,-0.12,1.01,-3.7,2.2,-24.7,0.67,0.06,-0.04,0.74
1697353487.17,0.14,-0.12,1.01,-3.7,2.2,-24.7,0.67,0.06,-0.04,0.74
1697353487.18,-0.01,-0.38,0.89,-2.4,0,-39,0.76,0.06,-0.04,0.65
1697353487.19,0.09,-0.43,1.03,-4.9,0.2,-38.6,0.76,0.06,-0.04,0.65
1697353487.2,0.04,-0.16,1.21,-4.9,0.2,-38.6,0.76,0.06,-0.04,0.64
1697353487.21,0.11,-0.11,0.91,-0.9,0.7,-38.3,0.76,0.06,-0.04,0.64
1697353487.22,0.05,-0.42,0.69,3.2,0.9,-38.3,0.77,0.06,-0.04,0.64
1697353487.23,0.01,-0.52,0.83,3.7,1.7,-38.8,0.77,0.06,-0.04,0.64
1697353487.24,0.09,-0.65,0.86,0.5,1.8,-39.2,0.77,0.06,-0.04,0.63
1697353487.25,0.06,-0.57,1.16,-2.9,1.1,-39.8,0.77,0.06,-0.04,0.63
1697353487.26,0.12,-0.39,1.17,-3.8,1.1,-40.6,0.77,0.06,-0.04,0.63
1697353487.27,0.1,-0.26,1.19,-2.8,0.7,-40.8,0.78,0.06,-0.03,0.63
1697353487.28,0.1,-0.3,0.96,-0.4,0.5,-40.9,0.78,0.06,-0.03,0.62
1697353487.29,0.07,-0.32,1.01,1.6,0.2,-41.1,0.78,0.06,-0.03,0.62
1697353487.3,0.08,-0.46,0.88,2.2,0.4,-41,0.78,0.06,-0.03,0.62
1697353487.31,0.08,-0.53,1.02,1.4,0,-40.9,0.79,0.06,-0.03,0.61
1697353487.32,0.02,-0.51,1.19,-0.4,0,-40.9,0.79,0.06,-0.03,0.61
1697353487.33,0.01,-0.45,1.32,-1.8,-0.2,-40.8,0.79,0.06,-0.03,0.61
1697353487.34,0.15,-0.36,1.23,-1.8,-0.6,-40.7,0.79,0.06,-0.03,0.6
1697353487.35,0.15,-0.36,1.23,-1.8,-0.6,-40.7,0.8,0.06,-0.03,0.6
1697353487.36,0.07,-0.4,0.91,-0.7,-0.8,-40.7,0.8,0.06,-0.03,0.6
1697353487.37,0.07,-0.4,0.91,0.4,-0.9,-40.6,0.8,0.06,-0.03,0.6
1697353487.38,0.02,-0.45,0.91,1,-0.9,-40.8,0.8,0.06,-0.03,0.59
1697353487.39,-0.07,-0.48,1.25,1,-0.7,-40.8,0.8,0.06,-0.03,0.59
1697353487.4,0.03,-0.44,1.22,1.5,-0.6,-41.2,0.81,0.06,-0.03,0.59
1697353487.41,-0,-0.47,1.33,1.8,-0.4,-41.4,0.81,0.06,-0.03,0.58
1697353487.42,0.11,-0.46,1.18,1.6,0,-41.7,0.81,0.06,-0.03,0.58
1697353487.43,-0.02,-0.41,0.92,1.1,0.7,-41.8,0.81,0.06,-0.03,0.58
1697353487.44,0.17,-0.51,0.77,1,1.5,-41.8,0.81,0.06,-0.03,0.58
1697353487.45,0.1,-0.45,1,-0.5,2,-42,0.82,0.06,-0.03,0.57
1697353487.46,0.09,-0.42,0.97,-2.6,1.9,-41.9,0.82,0.06,-0.03,0.57
1697353487.47,0.04,-0.23,0.81,-3.5,1.6,-41.9,0.82,0.06,-0.03,0.57
1697353487.48,-0.01,-0.3,0.75,-1.8,1.5,-41.7,0.82,0.06,-0.03,0.57
1697353487.49,0.09,-0.4,0.45,0.4,1.4,-41.2,0.82,0.06,-0.03,0.56
1697353487.5,0.07,-0.47,0.85,1.6,1.3,-41,0.83,0.06,-0.03,0.56
1697353487.51,0.02,-0.53,1.07,1.3,1.1,-41,0.83,0.06,-0.03,0.56
1697353487.52,0.06,-0.53,1.21,-0.7,1.4,-41,0.83,0.06,-0.03,0.55
1697353487.53,0.11,-0.36,1.2,-2.2,1.4,-41.1,0.83,0.06,-0.03,0.55
1697353487.54,0.13,-0.35,1.04,-2.2,1.2,-40.6,0.83,0.06,-0.03,0.55
1697353487.55,0.12,-0.34,1,-0.5,0.7,-40.1,0.84,0.06,-0.03,0.54
1697353487.56,0.15,-0.36,1.02,1.6,0.2,-39.6,0.84,0.06,-0.03,0.54
1697353487.57,0.15,-0.4,1.09,1.6,0.2,-39.6,0.84,0.06,-0.03,0.54
1697353487.58,0.15,-0.4,1.09,1.6,0.2,-39.6,0.84,0.06,-0.03,0.54
1697353487.59,0.15,-0.4,1.09,1.6,0.2,-39.6,0.84,0.06,-0.03,0.54
1697353487.6,0.15,-0.4,1.09,1.6,0.2,-39.6,0.84,0.06,-0.03,0.54
1697353487.61,0.15,-0.4,1.09,1.6,0.2,-39.6,0.84,0.06,-0.03,0.54
1697353487.62,0.15,-0.4,1.09,1.6,0.2,-39.6,0.84,0.06,-0.03,0.54
1697353487.63,0.15,-0.4,1.09,1.6,0.2,-39.6,0.84,0.06,-0.03,0.54
1697353487.64,0.15,-0.4,1.09,1.6,0.2,-39.6,0.84,0.06,-0.03,0.54
1697353487.65,0.15,-0.4,1.09,1.6,0.2,-39.6,0.84,0.06,-0.03,0.54
1697353487.66,0.15,-0.4,1.09,1.6,0.2,-39.6,0.84,0.06,-0.03,0.54
1697353487.67,0.15,-0.4,1.09,1.6,0.2,-39.6,0.84,0.06,-0.03,0.54
1697353487.68,0.15,-0.4,1.09,1.6,0.2,-39.6,0.84,0.06,-0.03,0.54
1697353487.69,0.15,-0.4,1.09,1.6,0.2,-39.6,0.84,0.06,-0.03,0.54
1697353487.7,0.15,-0.4,1.09,1.6,0.2,-39.6,0.84,0.06,-0.03,0.54
1697353487.71,0.12,-0.49,0.93,0.9,0,-38,0.87,0.07,-0.02,0.49
1697353487.72,0.07,-0.42,0.96,-1.9,-1.1,-38.5,0.87,0.07,-0.02,0.49
1697353487.73,0.09,-0.4,1.16,-1.9,-1.1,-38.5,0.87,0.07,-0.02,0.49
1697353487.74,0.09,-0.4,1.16,-2,-0.7,-38.4,0.87,0.07,-0.02,0.49
1697353487.75,0.04,-0.24,0.67,-1.1,0,-37.8,0.87,0.07,-0.02,0.48
1697353487.76,0.09,-0.37,0.8,-0.3,0.7,-37.3,0.87,0.07,-0.02,0.48
1697353487.77,0.12,-0.37,0.95,-0.4,0.8,-37.1,0.87,0.07,-0.02,0.48
1697353487.78,0.11,-0.39,1.02,-0.9,0.4,-36.6,0.88,0.07,-0.02,0.48
1697353487.79,0.02,-0.44,0.95,-1.3,0.1,-36.5,0.88,0.07,-0.02,0.47
1697353487.8,0.16,-0.33,0.95,-1.1,-0.1,-36.1,0.88,0.07,-0.02,0.47
1697353487.81,0.11,-0.37,1.19,-0.9,-0.1,-35.8,0.88,0.07,-0.02,0.47
1697353487.82,0.03,-0.33,1.2,-0.2,0.5,-35.5,0.88,0.07,-0.02,0.46
1697353487.83,0,-0.3,0.91,1.1,1.1,-35.3,0.88,0.07,-0.02,0.46
1697353487.84,0.06,-0.36,0.88,2.2,1.7,-35.1,0.89,0.07,-0.02,0.46
1697353487.85,0.06,-0.45,0.93,1.8,2.5,-35.2,0.89,0.07,-0.02,0.46
1697353487.86,0.04,-0.38,0.97,1.5,2.5,-35.2,0.89,0.07,-0.02,0.45
1697353487.87,0.11,-0.31,1.03,0.2,3.1,-35.2,0.89,0.07,-0.02,0.45
1697353487.88,0.09,-0.31,1.12,0,3.1,-35,0.89,0.07,-0.02,0.45
1697353487.89,0.11,-0.29,1.21,0.7,2.5,-34.6,0.89,0.07,-0.02,0.44
1697353487.9,0.05,-0.48,1.13,2.1,1.8,-34.3,0.89,0.07,-0.02,0.44
1697353487.91,0.13,-0.54,0.83,4.4,1,-34,0.9,0.07,-0.02,0.44
1697353487.92,0.08,-0.54,1.19,4.6,0,-33.9,0.9,0.07,-0.02,0.44
1697353487.93,0.1,-0.35,1.08,2.2,-1,-34,0.9,0.07,-0.02,0.43
1697353487.94,-0.02,-0.35,1.14,-0.2,-1.8,-34.2,0.9,0.07,-0.02,0.43
1697353487.95,0,-0.3,0.96,-0.9,-2.3,-34.4,0.9,0.07,-0.02,0.43
1697353487.96,0.02,-0.29,0.99,-0.9,-2.1,-34.5,0.9,0.07,-0.02,0.43
1697353487.97,0.01,-0.3,0.93,-1.2,-1.6,-35,0.9,0.07,-0.02,0.42
1697353487.98,0.04,-0.27,1.26,-2.2,-1.1,-35.2,0.9,0.07,-0.02,0.42
1697353487.99,0.04,-0.23,1.24,-1.9,-0.4,-35,0.91,0.07,-0.02,0.42
1697353488,0.04,-0.23,1.24,-1.9,-0.4,-35,0.91,0.07,-0.02,0.42
1697353488.01,-0,-0.36,1.14,-0.4,-0.2,-35.3,0.91,0.07,-0.02,0.41
1697353488.02,0.14,-0.57,0.98,3.2,-1.1,-35.3,0.91,0.07,-0.02,0.41
1697353488.03,0.08,-0.6,1.1,3.6,-2.1,-35.8,0.91,0.07,-0.02,0.41
1697353488.04,0.08,-0.55,0.93,2,-2.9,-36.4,0.91,0.07,-0.01,0.41
1697353488.05,0.08,-0.55,0.93,2,-2.9,-36.4,0.91,0.07,-0.01,0.4
1697353488.06,0,-0.32,0.88,-4.8,-1.7,-36.4,0.91,0.07,-0.02,0.4
1697353488.07,0.04,-0.18,0.91,-4.8,-1.7,-36.4,0.92,0.07,-0.02,0.4
1697353488.08,0.04,-0.18,0.91,-3.9,-0.1,-35.8,0.92,0.07,-0.01,0.39
1697353488.09,0.08,-0.23,0.69,1.3,1.3,-34.9,0.92,0.07,-0.01,0.39
1697353488.1,0.07,-0.36,0.87,2.4,2.1,-34.7,0.92,0.07,-0.01,0.39
1697353488.11,0.07,-0.36,0.87,2.4,2.1,-34.7,0.92,0.07,-0.01,0.39
1697353488.12,0.07,-0.36,0.87,2.4,2.1,-34.7,0.92,0.07,-0.01,0.39
1697353488.13,0.07,-0.36,0.87,2.4,2.1,-34.7,0.92,0.07,-0.01,0.39
1697353488.14,0.07,-0.36,0.87,2.4,2.1,-34.7,0.92,0.07,-0.01,0.39
1697353488.15,0.07,-0.36,0.87,2.4,2.1,-34.7,0.92,0.07,-0.01,0.39
1697353488.16,0.07,-0.36,0.87,2.4,2.1,-34.7,0.92,0.07,-0.01,0.39
1697353488.17,0.07,-0.36,0.87,2.4,2.1,-34.7,0.92,0.07,-0.01,0.39
1697353488.18,0.07,-0.36,0.87,2.4,2.1,-34.7,0.92,0.07,-0.01,0.39
1697353488.19,0.07,-0.36,0.87,2.4,2.1,-34.7,0.92,0.07,-0.01,0.39
1697353488.2,0.07,-0.36,0.87,2.4,2.1,-34.7,0.92,0.07,-0.01,0.39
1697353488.21,0.07,-0.36,0.87,2.4,2.1,-34.7,0.92,0.07,-0.01,0.39
1697353488.22,0.07,-0.36,0.87,2.4,2.1,-34.7,0.92,0.07,-0.01,0.39
1697353488.23,0.07,-0.36,0.87,2.4,2.1,-34.7,0.92,0.07,-0.01,0.39
1697353488.24,0.02,-0.34,1.15,3.6,5.4,-35,0.94,0.07,-0.01,0.35
1697353488.25,0.02,-0.34,1.15,3.6,5.4,-35,0.94,0.07,-0.01,0.35
1697353488.26,0.04,-0.46,0.81,5.1,7.3,-34,0.94,0.07,-0.01,0.34
1697353488.27,0.04,-0.46,0.81,5.1,7.3,-34,0.94,0.07,-0.01,0.34
1697353488.28,0.06,-0.42,0.98,1,6.4,-33.4,0.94,0.07,-0,0.34
1697353488.29,0.16,-0.39,0.95,1,6.4,-33.4,0.94,0.07,-0,0.34
1697353488.3,0.27,-0.28,0.83,-0.8,3.4,-32.7,0.94,0.07,-0,0.33
1697353488.31,0.23,-0.31,0.78,-1.1,0.9,-31.8,0.94,0.07,-0,0.33
1697353488.32,0.26,-0.23,0.85,1.1,-2.9,-31,0.94,0.07,-0,0.33
1697353488.33,0.32,-0.23,0.83,2.2,-4.1,-30.5,0.94,0.07,-0,0.32
1697353488.34,0.15,-0.3,0.78,3.1,-4.6,-30.3,0.94,0.07,-0,0.32
1697353488.35,0.14,-0.36,0.92,2.8,-4.5,-30.2,0.94,0.07,-0,0.32
1697353488.36,0.04,-0.37,0.88,2.4,-4.3,-30.3,0.95,0.07,-0,0.32
1697353488.37,0.12,-0.3,0.98,1.2,-3.2,-30.3,0.95,0.07,-0,0.31
1697353488.38,0.1,-0.22,1.1,0.7,-1.9,-30.3,0.95,0.07,-0,0.31
1697353488.39,0.09,-0.18,0.89,0.6,-0.6,-30,0.95,0.07,-0,0.31
1697353488.4,0.07,-0.31,1.09,1.2,0.5,-29.6,0.95,0.07,-0,0.31
1697353488.41,0.14,-0.22,1.13,1.2,0.5,-29.6,0.95,0.07,-0,0.3
1697353488.42,0.17,-0.24,0.83,1.2,1.5,-29.3,0.95,0.07,-0,0.3
1697353488.43,0.17,-0.24,0.83,0.5,2.4,-29.1,0.95,0.07,-0,0.3
1697353488.44,0.29,-0.21,1.34,0.1,2.4,-28.4,0.95,0.07,-0,0.3
1697353488.45,0.18,-0.18,1.02,0.3,1.6,-27.5,0.95,0.07,-0,0.29
1697353488.46,0.18,-0.28,0.81,0.6,0.8,-27.1,0.95,0.07,-0,0.29
1697353488.47,0.2,-0.26,1.1,0,-0.3,-26.5,0.95,0.07,-0,0.29
1697353488.48,0.29,-0.22,0.99,-0.2,-0.7,-26.3,0.96,0.07,-0,0.29
1697353488.49,0.18,-0.22,0.83,-0.5,-1.6,-26.2,0.96,0.07,-0,0.28
1697353488.5,0.23,-0.2,0.91,-0.2,-2.4,-25.5,0.96,0.07,-0,0.28
1697353488.51,0.28,-0.21,1.11,0.7,-2.7,-25,0.96,0.07,-0,0.28
1697353488.52,0.17,-0.38,0.89,1,-3,-24.5,0.96,0.07,-0,0.28
1697353488.53,0.17,-0.32,0.8,0.5,-2.6,-24,0.96,0.07,-0,0.28
1697353488.54,0.09,-0.27,1.16,-0.4,-2.2,-23.7,0.96,0.07,-0,0.27
1697353488.55,0.18,-0.22,1.02,-0.7,-1.2,-23.6,0.96,0.07,-0,0.27
1697353488.56,0.25,-0.37,0.94,-0.4,-0.2,-23.6,0.96,0.07,-0,0.27
1697353488.57,0.21,-0.24,1.19,0.2,0.6,-23.9,0.96,0.07,-0,0.27
1697353488.58,0.1,-0.32,1.15,0.9,1.5,-24.3,0.96,0.07,0,0.27
1697353488.59,0.15,-0.46,0.91,0.7,1.9,-24.8,0.96,0.07,0,0.26
1697353488.6,0.29,-0.26,1.15,0.2,2.4,-25.3,0.96,0.07,0,0.26
1697353488.61,0.29,-0.26,1.15,0.2,2.4,-25.3,0.96,0.07,0,0.26
1697353488.62,0.29,-0.26,1.15,0.2,2.4,-25.3,0.96,0.07,0,0.26
1697353488.63,0.29,-0.26,1.15,0.2,2.4,-25.3,0.96,0.07,0,0.26
1697353488.64,0.29,-0.26,1.15,0.2,2.4,-25.3,0.96,0.07,0,0.26
1697353488.65,0.29,-0.26,1.15,0.2,2.4,-25.3,0.96,0.07,0,0.26
1697353488.66,0.29,-0.26,1.15,0.2,2.4,-25.3,0.96,0.07,0,0.26
1697353488.67,0.29,-0.26,1.15,0.2,2.4,-25.3,0.96,0.07,0,0.26
1697353488.68,0.29,-0.26,1.15,0.2,2.4,-25.3,0.96,0.07,0,0.26
1697353488.69,0.29,-0.26,1.15,0.2,2.4,-25.3,0.96,0.07,0,0.26
1697353488.7,0.29,-0.26,1.15,0.2,2.4,-25.3,0.96,0.07,0,0.26
1697353488.71,0.29,-0.26,1.15,0.2,2.4,-25.3,0.96,0.07,0,0.26
1697353488.72,0.29,-0.26,1.15,0.2,2.4,-25.3,0.96,0.07,0,0.26
1697353488.73,0.29,-0.26,1.15,0.2,2.4,-25.3,0.96,0.07,0,0.26
1697353488.74,0.29,-0.26,1.15,0.2,2.4,-25.3,0.96,0.07,0,0.26
1697353488.75,0.16,-0.4,1.07,2.3,3.3,-24.5,0.97,0.07,0.01,0.23
1697353488.76,0.24,-0.48,0.83,1.2,2,-25.1,0.97,0.07,0.01,0.23
1697353488.77,0.24,-0.48,0.83,1.2,2,-25.1,0.97,0.07,0.01,0.23
1697353488.78,0.3,-0.29,1.23,-0.3,1.6,-25,0.97,0.07,0.01,0.23
1697353488.79,0.31,-0.11,0.45,0.9,0.5,-24.2,0.97,0.07,0.01,0.22
1697353488.8,0.11,-0.22,1.29,3.6,0.4,-23.9,0.97,0.07,0.01,0.22
1697353488.81,0.08,-0.3,0.87,3.7,0.6,-23.8,0.97,0.07,0.01,0.22
1697353488.82,0.15,-0.39,0.78,3.5,0.8,-23.7,0.97,0.07,0.01,0.22
1697353488.83,0.19,-0.33,0.82,-1.4,1.1,-23,0.97,0.07,0.01,0.21
1697353488.84,0.23,-0.16,1.05,-1.8,1.8,-22.9,0.97,0.07,0.01,0.21
1697353488.85,0.26,-0.22,0.92,-0.5,2.4,-22.4,0.97,0.07,0.01,0.21
1697353488.86,0.12,-0.08,1.09,2.3,2.7,-22.1,0.98,0.07,0.01,0.21
1697353488.87,0.19,-0.22,0.91,4.1,2.3,-22.3,0.98,0.07,0.01,0.21
1697353488.88,0,-0.33,1.12,3,2.4,-22.7,0.98,0.07,0.01,0.21
1697353488.89,0.08,-0.39,1.02,2.3,2.6,-22.8,0.98,0.07,0.01,0.2
1697353488.9,0.35,-0.37,0.65,2.3,2.6,-22.8,0.98,0.07,0.01,0.2
1697353488.91,0.14,-0.23,1.26,-3.4,2.5,-22.8,0.98,0.07,0.01,0.2
1697353488.92,0.19,-0.08,0.94,-3.5,2,-23.1,0.98,0.07,0.01,0.2
1697353488.93,0.41,-0.04,0.83,-2,1.3,-22.3,0.98,0.07,0.01,0.2
1697353488.94,0.22,-0.15,1,0.4,1.3,-21.8,0.98,0.07,0.01,0.2
1697353488.95,0.17,-0.32,1.11,1.5,1.1,-21,0.98,0.07,0.01,0.19
1697353488.96,0.19,-0.32,1.04,0.4,1.2,-20.6,0.98,0.07,0.01,0.19
1697353488.97,0.15,-0.24,1.06,-1.7,1.5,-20.4,0.98,0.07,0.01,0.19
1697353488.98,0.15,-0.21,1.01,-2.9,1.2,-20.2,0.98,0.07,0.01,0.19
1697353488.99,0.11,-0.15,1.17,-2.2,1.2,-20,0.98,0.07,0.01,0.19
1697353489,0.1,-0.09,1.05,-0.8,1.7,-19.9,0.98,0.07,0.01,0.18
1697353489.01,0.16,-0.24,1.02,1.8,1.8,-19.6,0.98,0.07,0.01,0.18
1697353489.02,0.29,-0.19,1.15,5.1,1.5,-19.4,0.98,0.07,0.01,0.18
1697353489.03,0.19,-0.29,1.02,3.8,1.1,-18.5,0.98,0.07,0.01,0.18
1697353489.04,0.21,-0.07,1.13,2.8,0.3,-17.7,0.98,0.07,0.01,0.18
1697353489.05,0.23,-0.08,0.91,2.8,0.3,-17.7,0.98,0.07,0.01,0.18
1697353489.06,0.24,0.04,0.75,2.1,-0.4,-15,0.98,0.07,0.01,0.18
1697353489.07,0.24,0.04,0.75,2.1,-0.4,-15,0.98,0.07,0.01,0.17
1697353489.08,0.19,-0.08,0.62,4.4,-1,-11.6,0.98,0.07,0.01,0.17
1697353489.09,0.12,-0.16,0.99,2.7,-1,-10.3,0.98,0.07,0.01,0.17
1697353489.1,0.31,-0.04,0.69,2.7,-1,-10.3,0.98,0.07,0.01,0.17
1697353489.11,0.2,-0.1,0.83,1.6,-1.3,-10.1,0.98,0.07,0.01,0.17
1697353489.12,0.15,0.06,0.97,-0.8,-1.6,-9.1,0.98,0.07,0.01,0.17
1697353489.13,0.15,0.06,0.97,-1.4,-2.4,-8.8,0.98,0.07,0.01,0.17
1697353489.14,0.15,0.06,0.97,-1.4,-2.4,-8.8,0.98,0.07,0.01,0.17
1697353489.15,0.15,0.06,0.97,-1.4,-2.4,-8.8,0.98,0.07,0.01,0.17
1697353489.16,0.15,0.06,0.97,-1.4,-2.4,-8.8,0.98,0.07,0.01,0.17
1697353489.17,0.15,0.06,0.97,-1.4,-2.4,-8.8,0.98,0.07,0.01,0.17
1697353489.18,0.15,0.06,0.97,-1.4,-2.4,-8.8,0.98,0.07,0.01,0.17
1697353489.19,0.15,0.06,0.97,-1.4,-2.4,-8.8,0.98,0.07,0.01,0.17
1697353489.2,0.15,0.06,0.97,-1.4,-2.4,-8.8,0.98,0.07,0.01,0.17
1697353489.21,0.15,0.06,0.97,-1.4,-2.4,-8.8,0.98,0.07,0.01,0.17
1697353489.22,0.15,0.06,0.97,-1.4,-2.4,-8.8,0.98,0.07,0.01,0.17
1697353489.23,0.15,0.06,0.97,-1.4,-2.4,-8.8,0.98,0.07,0.01,0.17
1697353489.24,0.15,0.06,0.97,-1.4,-2.4,-8.8,0.98,0.07,0.01,0.17
1697353489.25,0.15,0.06,0.97,-1.4,-2.4,-8.8,0.98,0.07,0.01,0.17
1697353489.26,0.15,0.06,0.97,-1.4,-2.4,-8.8,0.98,0.07,0.01,0.17
1697353489.27,0.15,0.06,0.97,-1.4,-2.4,-8.8,0.98,0.07,0.01,0.17
1697353489.28,0.26,-0.01,0.85,-2.3,-0.7,-7.8,0.99,0.07,0.01,0.16
1697353489.29,0.22,0.09,1.04,-2,-1.7,-6.7,0.99,0.07,0.01,0.16
1697353489.3,0.21,0.09,1.05,-2,-1.7,-6.7,0.99,0.07,0.01,0.16
1697353489.31,0.13,0.02,0.92,0.1,-2.7,-5.8,0.99,0.07,0.01,0.15
1697353489.32,0.12,0.08,1.15,0.6,-3.2,-4.6,0.99,0.07,0.01,0.15
1697353489.33,0.18,0.06,1.11,1.6,-3.2,-3.7,0.99,0.07,0.01,0.15
1697353489.34,0.11,-0.08,1.01,1.8,-2.8,-2.6,0.99,0.07,0.01,0.15
1697353489.35,0.13,0.01,1.1,0.9,-1.8,-2.1,0.99,0.07,0.01,0.15
1697353489.36,0.18,-0.01,0.91,1.1,-1.2,-1.9,0.99,0.07,0.01,0.15
1697353489.37,0.17,-0.02,0.91,1.3,-0.7,-1.6,0.99,0.07,0.01,0.15
1697353489.38,0.13,0.03,1.19,1.9,-0.5,-1.6,0.99,0.07,0.01,0.15
1697353489.39,0.2,-0.04,0.86,2.2,-0.3,-1.6,0.99,0.07,0.01,0.15
1697353489.4,0.24,0.06,0.85,1.8,-0.2,-1.6,0.99,0.07,0.01,0.15
1697353489.41,0.12,0.07,1.18,2.4,-0.6,-1.5,0.99,0.07,0.01,0.15
1697353489.42,0.14,-0,1.01,2.4,-1.2,-1.1,0.99,0.07,0.01,0.15
1697353489.43,0.26,0.09,0.7,1.6,-1.8,-0.9,0.99,0.07,0.01,0.15
1697353489.44,0.19,0.05,1.22,0.2,-2.1,-0.5,0.99,0.07,0.01,0.15
1697353489.45,0.17,0.1,1.05,0.2,-2.1,-0.5,0.99,0.07,0.01,0.15
1697353489.46,0.13,0.2,0.79,-3.5,-1.3,0.8,0.99,0.07,0.01,0.15
1697353489.47,0.16,0.22,0.85,-2.2,0,1.6,0.99,0.07,0.01,0.15
1697353489.48,0.16,0.22,0.85,-2.2,0,1.6,0.99,0.07,0.01,0.15
1697353489.49,0.09,0.25,0.82,0,0.9,2.1,0.99,0.07,0.01,0.15
1697353489.5,0.21,0.07,1.19,0.3,1.1,2,0.99,0.07,0.01,0.15
1697353489.51,0.09,0,1.01,-1,1.9,1.8,0.99,0.07,0.01,0.15
1697353489.52,0.11,-0.06,1.11,-3.2,2.1,1.6,0.99,0.07,0.01,0.15
1697353489.53,0.19,0.04,1.04,-3.6,2,1.7,0.99,0.07,0.01,0.15
1697353489.54,0.15,0.11,1.02,-2.2,1.7,2.1,0.99,0.07,0.01,0.15
1697353489.55,0.17,0.08,1.25,-1.8,1.8,2.2,0.99,0.07,0.01,0.15
1697353489.56,0.18,0.16,0.82,0,0.9,2.4,0.99,0.07,0.01,0.15
1697353489.57,0.05,0.05,1.11,2.1,0.5,3,0.99,0.07,0.01,0.15
1697353489.58,0.23,-0.13,0.83,3.7,0.2,3.7,0.99,0.07,0.01,0.15
1697353489.59,0.25,-0.11,0.95,3.8,0.5,3.3,0.99,0.07,0.01,0.15
1697353489.6,0.2,-0.07,1.19,1,0.2,3.3,0.99,0.07,0.01,0.15
1697353489.61,0.19,0.13,1.09,-0.9,-0.2,3.5,0.99,0.07,0.01,0.16
1697353489.62,0.08,0.11,1.14,0.2,-1,3.8,0.99,0.07,0.01,0.16
1697353489.63,0.13,0.15,1.09,0.7,-0.1,4.6,0.99,0.07,0.01,0.16
1697353489.64,0.09,0.24,0.84,0.1,0.2,5.6,0.99,0.07,0.01,0.16
1697353489.65,0.12,0.13,1.22,1,0.5,5.5,0.99,0.07,0.01,0.16
1697353489.66,0.11,0.13,1.15,1,0.6,5.6,0.98,0.07,0.01,0.16
1697353489.67,0.11,0.13,1.15,1,0.6,5.6,0.98,0.07,0.01,0.16
1697353489.68,0.11,0.13,1.15,1,0.6,5.6,0.98,0.07,0.01,0.16
1697353489.69,0.11,0.13,1.15,1,0.6,5.6,0.98,0.07,0.01,0.16
1697353489.7,0.11,0.13,1.15,1,0.6,5.6,0.98,0.07,0.01,0.16
1697353489.71,0.11,0.13,1.15,1,0.6,5.6,0.98,0.07,0.01,0.16
1697353489.72,0.11,0.13,1.15,1,0.6,5.6,0.98,0.07,0.01,0.16
1697353489.73,0.11,0.13,1.15,1,0.6,5.6,0.98,0.07,0.01,0.16
1697353489.74,0.11,0.13,1.15,1,0.6,5.6,0.98,0.07,0.01,0.16
1697353489.75,0.11,0.13,1.15,1,0.6,5.6,0.98,0.07,0.01,0.16
1697353489.76,0.11,0.13,1.15,1,0.6,5.6,0.98,0.07,0.01,0.16
1697353489.77,0.11,0.13,1.15,1,0.6,5.6,0.98,0.07,0.01,0.16
1697353489.78,0.11,0.13,1.15,1,0.6,5.6,0.98,0.07,0.01,0.16
1697353489.79,0.11,0.13,1.15,1,0.6,5.6,0.98,0.07,0.01,0.16
1697353489.8,0.11,0.13,1.15,1,0.6,5.6,0.98,0.07,0.01,0.16
1697353489.81,0.02,0.04,1.28,-1.6,0.9,6.6,0.98,0.07,0.01,0.17
1697353489.82,-0.04,0.07,0.4,-3.5,1.6,6.4,0.98,0.07,0.01,0.17
1697353489.83,-0.16,0.25,1.53,-1.8,1.6,6.7,0.98,0.07,0.01,0.17
1697353489.84,-0.12,0.18,1.24,-0.6,1.7,6.8,0.98,0.07,0.01,0.17
1697353489.85,0.06,0.19,0.73,0.2,0.7,6.8,0.98,0.07,0.01,0.17
1697353489.86,-0.32,0.15,1.3,0.6,0,6.7,0.98,0.07,0.01,0.17
1697353489.87,-0.47,-0.02,1.3,0.2,-0.2,6.8,0.98,0.07,0.01,0.17
1697353489.88,-0.5,0.07,0.74,0.2,-0.1,6.7,0.98,0.07,0.01,0.17
1697353489.89,-0.59,-0.02,1.1,-1.6,-0.1,6.4,0.98,0.07,0.01,0.17
1697353489.9,-0.13,0.14,0.66,-1.5,-0.7,6.5,0.98,0.07,0.01,0.17
1697353489.91,-0.05,0.05,1.02,-0.9,-2,6.5,0.98,0.07,0.01,0.17
1697353489.92,0.01,0.2,1.12,0,-3.8,7.3,0.98,0.07,0.01,0.17
1697353489.93,0.14,0.13,1.26,2.2,-5.5,7.9,0.98,0.07,0.01,0.17
1697353489.94,0.06,0.14,1.12,3.1,-7.7,8.1,0.98,0.07,0.01,0.17
1697353489.95,0.07,0.11,0.92,3.7,-9.1,8.3,0.98,0.07,0.01,0.17
1697353489.96,-0.12,-0.06,1.11,2.2,-9.7,8.3,0.98,0.07,0.01,0.17
1697353489.97,-0.08,0.09,1.15,1.5,-9.6,8.2,0.98,0.07,0,0.18
1697353489.98,-0.17,0.18,0.84,-0.3,-7.2,8.1,0.98,0.07,0,0.18
1697353489.99,-0.12,0.29,1.43,0,-5.5,8.5,0.98,0.07,0,0.18
1697353490,-0.08,0.27,0.84,-0.5,-3.5,8.8,0.98,0.07,0,0.18
1697353490.01,-0.1,0.36,1.04,-1,-1.8,9.6,0.98,0.07,0,0.18
1697353490.02,-0.14,0.36,1.35,-1.1,-0.1,10.9,0.98,0.07,0,0.18
1697353490.03,-0.08,0.41,0.59,-0.8,1.4,12.2,0.98,0.07,0,0.18
1697353490.04,-0.17,0.49,1.41,0.1,2.7,13.7,0.98,0.07,0,0.18
1697353490.05,-0.05,0.51,1.05,1.9,3.4,15.2,0.98,0.07,0,0.18
1697353490.06,-0.14,0.32,0.93,2.8,3.7,16.8,0.98,0.07,0,0.18
1697353490.07,-0.04,0.32,1.01,1.5,2.8,18.6,0.98,0.07,0,0.18
1697353490.08,-0.16,0.36,1.02,0,1.6,19.4,0.98,0.07,0,0.19
1697353490.09,-0.1,0.37,0.85,-1,0.6,20,0.98,0.07,0,0.19
1697353490.1,-0.2,0.4,0.89,-1,0.6,20,0.98,0.07,0,0.19
1697353490.11,-0.1,0.58,0.88,-1.3,-0.2,20,0.98,0.07,0,0.19
1697353490.12,-0.07,0.37,0.98,-0.4,-0.8,20.1,0.98,0.07,0,0.19
1697353490.13,-0.07,0.37,0.98,0.9,-0.6,20.4,0.98,0.07,0,0.19
1697353490.14,-0.15,0.39,1.27,1.7,-0.6,20.4,0.98,0.07,0,0.2
1697353490.15,-0.12,0.42,0.88,1.6,-0.3,21,0.98,0.07,0,0.2
1697353490.16,-0.07,0.25,1.09,1,0,22.1,0.98,0.07,0,0.2
1697353490.17,-0.05,0.33,0.97,0.4,0.1,22.6,0.98,0.07,0,0.2
1697353490.18,-0.05,0.41,1.19,-1.3,0.4,23.5,0.98,0.07,0,0.2
1697353490.19,-0.1,0.31,1.04,-1.3,0.4,23.5,0.98,0.07,0,0.2
1697353490.2,-0.1,0.31,1.04,-1.3,0.4,23.5,0.98,0.07,0,0.2
1697353490.21,-0.1,0.31,1.04,-1.3,0.4,23.5,0.98,0.07,0,0.2
1697353490.22,-0.1,0.31,1.04,-1.3,0.4,23.5,0.98,0.07,0,0.2
1697353490.23,-0.1,0.31,1.04,-1.3,0.4,23.5,0.98,0.07,0,0.2
1697353490.24,-0.1,0.31,1.04,-1.3,0.4,23.5,0.98,0.07,0,0.2
1697353490.25,-0.1,0.31,1.04,-1.3,0.4,23.5,0.98,0.07,0,0.2
1697353490.26,-0.1,0.31,1.04,-1.3,0.4,23.5,0.98,0.07,0,0.2
1697353490.27,-0.1,0.31,1.04,-1.3,0.4,23.5,0.98,0.07,0,0.2
1697353490.28,-0.1,0.31,1.04,-1.3,0.4,23.5,0.98,0.07,0,0.2
1697353490.29,-0.1,0.31,1.04,-1.3,0.4,23.5,0.98,0.07,0,0.2
1697353490.3,-0.1,0.31,1.04,-1.3,0.4,23.5,0.98,0.07,0,0.2
1697353490.31,-0.1,0.31,1.04,-1.3,0.4,23.5,0.98,0.07,0,0.2
1697353490.32,-0.1,0.31,1.04,-1.3,0.4,23.5,0.98,0.07,0,0.2
1697353490.33,-0.1,0.31,1.04,-1.3,0.4,23.5,0.98,0.07,0,0.2
1697353490.34,-0.1,0.31,1.04,-1.3,0.4,23.5,0.98,0.07,0,0.2
1697353490.35,-0.1,0.31,1.04,-1.3,0.4,23.5,0.98,0.07,0,0.2
1697353490.36,-0.13,0.72,1.39,-2.1,2.6,32.8,0.97,0.07,-0,0.25
1697353490.37,-0.13,0.72,1.39,-2.1,2.6,32.8,0.97,0.07,-0,0.25
1697353490.38,-0.11,0.69,1.01,1.5,2.5,36.4,0.96,0.07,-0,0.25
1697353490.39,-0,0.45,0.76,3.6,1.7,37.6,0.96,0.07,-0,0.26
1697353490.4,0.11,0.43,0.92,2.1,1,37.8,0.96,0.07,-0,0.26
1697353490.41,-0.13,0.42,1.39,-1.1,1.2,38.2,0.96,0.07,-0,0.26
1697353490.42,-0.09,0.53,0.67,-1.1,1.2,38.2,0.96,0.07,-0,0.26
1697353490.43,-0.1,0.56,0.98,-3.2,1.8,37.6,0.96,0.07,-0,0.27
1697353490.44,-0.1,0.53,0.97,-2.1,1.8,37.2,0.96,0.07,-0,0.27
1697353490.45,-0.14,0.54,1.07,-2.1,1.8,37.2,0.96,0.07,-0,0.27
1697353490.46,-0.1,0.55,0.8,-1.6,2.6,36.6,0.96,0.07,-0,0.28
1697353490.47,-0.18,0.6,0.98,-1.6,3.5,36,0.96,0.07,-0,0.28
1697353490.48,-0.17,0.58,1.4,-0.3,3.9,36,0.96,0.07,-0,0.29
1697353490.49,-0.03,0.51,0.86,-0.3,3.9,36,0.96,0.07,-0,0.29
1697353490.5,-0.09,0.47,0.86,1.9,3.7,35.8,0.95,0.07,-0,0.29
1697353490.51,-0.09,0.47,0.86,2.6,2.9,35.7,0.95,0.07,-0,0.29
1697353490.52,-0.28,0.26,1.17,2.4,3,35.7,0.95,0.07,-0,0.3
1697353490.53,-0.11,0.3,0.69,-0.5,2.8,33.2,0.95,0.07,-0,0.3
1697353490.54,-0.24,0.26,1.2,-1.9,3,32.5,0.95,0.07,-0,0.3
1697353490.55,-0.13,0.24,0.79,-2.5,3.1,31.2,0.95,0.07,-0,0.3
1697353490.56,-0.09,0.37,1.24,-2.2,2.1,30.5,0.95,0.07,-0,0.31
1697353490.57,-0.06,0.36,1.32,-2.2,2.1,30.5,0.95,0.07,-0,0.31
1697353490.58,-0.08,0.33,0.93,-0.6,1.2,29.6,0.95,0.07,-0,0.31
1697353490.59,0,0.33,1.29,0.9,0,29.3,0.95,0.07,-0,0.31
1697353490.6,-0.06,0.25,1.33,2,-0.8,29,0.95,0.07,-0,0.32
1697353490.61,-0.11,0.27,1.17,2.3,-0.1,28.6,0.95,0.07,-0,0.32
1697353490.62,-0.08,0.25,0.92,0.8,0.1,28.7,0.94,0.07,-0,0.32
1697353490.63,-0.03,0.37,0.93,-0.6,0.6,28.7,0.94,0.07,-0,0.32
1697353490.64,-0.05,0.51,0.76,-0.6,1.3,29,0.94,0.07,-0,0.33
1697353490.65,-0.12,0.63,0.95,0.5,1.6,29.9,0.94,0.07,-0,0.33
1697353490.66,-0.18,0.56,1.26,2.7,1.9,30.9,0.94,0.07,-0,0.33
1697353490.67,-0.05,0.55,0.62,4.1,2,32.1,0.94,0.07,-0,0.33
1697353490.68,-0.1,0.54,0.93,4.2,2.4,33.5,0.94,0.07,-0,0.34
1697353490.69,-0.13,0.58,0.95,2.9,2.2,35.7,0.94,0.07,-0,0.34
1697353490.7,-0.14,0.66,0.98,2.1,2,37.1,0.94,0.07,-0,0.34
1697353490.71,-0.19,0.63,1.19,2,1.7,38.4,0.94,0.07,-0,0.35
1697353490.72,-0.09,0.76,0.87,2.3,1,39.7,0.93,0.07,-0,0.35
1697353490.73,-0.18,0.68,0.98,2.3,0.1,40.9,0.93,0.07,-0,0.35
1697353490.74,-0.17,0.6,0.98,0.7,-0.4,41.8,0.93,0.07,-0,0.36
1697353490.75,-0.17,0.59,1.2,-1.7,-0.4,42.3,0.93,0.07,-0,0.36
1697353490.76,-0.1,0.66,1.01,-1.7,-0.4,42.3,0.93,0.07,-0,0.36
1697353490.77,-0.1,0.66,1.01,-1.7,-0.4,42.3,0.93,0.07,-0,0.36
1697353490.78,-0.1,0.66,1.01,-1.7,-0.4,42.3,0.93,0.07,-0,0.36
1697353490.79,-0.1,0.66,1.01,-1.7,-0.4,42.3,0.93,0.07,-0,0.36
1697353490.8,-0.1,0.66,1.01,-1.7,-0.4,42.3,0.93,0.07,-0,0.36
1697353490.81,-0.1,0.66,1.01,-1.7,-0.4,42.3,0.93,0.07,-0,0.36
1697353490.82,-0.1,0.66,1.01,-1.7,-0.4,42.3,0.93,0.07,-0,0.36
1697353490.83,-0.1,0.66,1.01,-1.7,-0.4,42.3,0.93,0.07,-0,0.36
1697353490.84,-0.1,0.66,1.01,-1.7,-0.4,42.3,0.93,0.07,-0,0.36
1697353490.85,-0.1,0.66,1.01,-1.7,-0.4,42.3,0.93,0.07,-0,0.36
1697353490.86,-0.1,0.66,1.01,-1.7,-0.4,42.3,0.93,0.07,-0,0.36
1697353490.87,-0.1,0.66,1.01,-1.7,-0.4,42.3,0.93,0.07,-0,0.36
1697353490.88,-0.1,0.66,1.01,-1.7,-0.4,42.3,0.93,0.07,-0,0.36
1697353490.89,-0.1,0.66,1.01,-1.7,-0.4,42.3,0.93,0.07,-0,0.36
1697353490.9,-0.1,0.66,1.01,-1.7,-0.4,42.3,0.93,0.07,-0,0.36
1697353490.91,-0.04,0.38,0.73,-1.5,-0.3,38.4,0.91,0.07,-0.01,0.41
1697353490.92,-0.02,0.64,0.82,-2.1,-0.4,38.3,0.91,0.07,-0.01,0.41
1697353490.93,-0.18,0.7,1.36,0.9,0.1,38.9,0.91,0.07,-0.01,0.42
1697353490.94,-0.09,0.58,1.06,3.8,0.3,39.1,0.9,0.07,-0.01,0.42
1697353490.95,-0.14,0.47,1.03,4.6,0.8,39.1,0.9,0.07,-0.01,0.42
1697353490.96,-0.13,0.48,0.96,2.9,1.1,39.6,0.9,0.07,-0.01,0.43
1697353490.97,-0.27,0.52,1.21,0.3,1.4,40.2,0.9,0.07,-0.01,0.43
1697353490.98,-0.06,0.68,1.05,-1,1.5,41.1,0.9,0.07,-0.01,0.43
1697353490.99,-0.01,0.8,1,-1.1,1.5,41.6,0.9,0.07,-0.01,0.44
1697353491,-0.01,0.8,1,-1.1,1.5,41.6,0.9,0.07,-0.01,0.44
1697353491.01,-0.23,0.83,1.07,3.9,1.3,45.7,0.89,0.07,-0.01,0.44
1697353491.02,-0.12,0.75,0.88,4.8,0.6,46.7,0.89,0.07,-0.01,0.45
1697353491.03,-0.18,0.68,1.1,3.8,0.2,47.6,0.89,0.07,-0.01,0.45
1697353491.04,-0.01,0.71,0.78,3.8,0.2,47.6,0.89,0.07,-0.01,0.45
1697353491.05,-0.16,0.74,1.04,0,-1.1,49.5,0.89,0.07,-0.01,0.45
1697353491.06,-0.15,0.92,0.83,0.6,-1.7,50.5,0.89,0.07,-0.01,0.46
1697353491.07,-0.22,0.91,1,2.9,-2,51.6,0.88,0.07,-0.01,0.46
1697353491.08,-0.21,0.76,1.1,4.5,-1.8,52.3,0.88,0.07,-0.01,0.47
1697353491.09,-0.17,0.68,1.07,4.5,-1.7,53.1,0.88,0.07,-0.01,0.47
1697353491.1,-0.18,0.71,0.88,3.1,-1.2,53.8,0.88,0.07,-0.01,0.47
1697353491.11,-0.27,0.67,1.23,1.6,-0.7,54,0.87,0.07,-0.01,0.48
1697353491.12,-0.19,0.73,1.24,-0.8,0,54.2,0.87,0.07,-0.01,0.48
1697353491.13,-0.16,0.81,1.1,-0.9,0.5,54.6,0.87,0.07,-0.01,0.49
1697353491.14,-0.17,0.76,0.85,-0.6,1.2,54.9,0.87,0.07,-0.01,0.49
1697353491.15,-0.17,0.76,0.85,-0.6,1.2,54.9,0.86,0.07,-0.01,0.5
1697353491.16,-0.07,0.78,1.26,-0.4,1.4,54.9,0.86,0.07,-0.01,0.5
1697353491.17,-0.07,0.78,1.26,-1.4,1.5,54.8,0.86,0.07,-0.01,0.5
1697353491.18,-0.1,0.8,1.08,-2.4,1.3,54.8,0.86,0.07,-0.01,0.51
1697353491.19,-0.1,0.8,1.08,-1.6,0.9,54.8,0.85,0.07,-0.01,0.51
1697353491.2,-0.16,0.76,1.02,-0.7,0.5,54.9,0.85,0.07,-0.01,0.52
1697353491.21,-0.14,0.77,1.02,-0.1,0.2,55,0.85,0.07,-0.01,0.52
1697353491.22,-0.16,0.72,1.29,-0.2,0,55.3,0.85,0.07,-0.01,0.53
1697353491.23,-0.09,0.71,0.88,-0.6,-0.2,55.5,0.84,0.07,-0.01,0.53
1697353491.24,-0.16,0.8,0.88,-0.7,0,55.8,0.84,0.07,-0.01,0.54
1697353491.25,-0.25,0.74,1.47,-0.2,0.3,56.2,0.84,0.07,-0.01,0.54
1697353491.26,-0.11,0.73,0.75,0.7,0.3,56.7,0.84,0.07,-0.01,0.54
1697353491.27,-0.08,0.68,0.81,1.7,0.2,57.3,0.84,0.07,-0.01,0.54
1697353491.28,-0.21,0.75,0.86,1.4,0,58.1,0.83,0.07,-0.02,0.55
1697353491.29,-0.22,0.79,0.98,0.9,0,58.7,0.83,0.07,-0.02,0.56
1697353491.3,-0.22,0.79,0.98,0.9,0,58.7,0.83,0.07,-0.02,0.56
1697353491.31,-0.22,0.79,0.98,0.9,0,58.7,0.83,0.07,-0.02,0.56
1697353491.32,-0.22,0.79,0.98,0.9,0,58.7,0.83,0.07,-0.02,0.56
1697353491.33,-0.22,0.79,0.98,0.9,0,58.7,0.83,0.07,-0.02,0.56
1697353491.34,-0.22,0.79,0.98,0.9,0,58.7,0.83,0.07,-0.02,0.56
1697353491.35,-0.22,0.79,0.98,0.9,0,58.7,0.83,0.07,-0.02,0.56
1697353491.36,-0.22,0.79,0.98,0.9,0,58.7,0.83,0.07,-0.02,0.56
1697353491.37,-0.22,0.79,0.98,0.9,0,58.7,0.83,0.07,-0.02,0.56
1697353491.38,-0.22,0.79,0.98,0.9,0,58.7,0.83,0.07,-0.02,0.56
1697353491.39,-0.22,0.79,0.98,0.9,0,58.7,0.83,0.07,-0.02,0.56
1697353491.4,-0.22,0.79,0.98,0.9,0,58.7,0.83,0.07,-0.02,0.56
1697353491.41,-0.22,0.79,0.98,0.9,0,58.7,0.83,0.07,-0.02,0.56
1697353491.42,-0.22,0.79,0.98,0.9,0,58.7,0.83,0.07,-0.02,0.56
1697353491.43,0.11,0.77,0.84,-1.8,2.4,60.5,0.79,0.07,-0.02,0.61
1697353491.44,0.09,0.76,1.1,-1.1,1.7,60.2,0.78,0.07,-0.02,0.62
1697353491.45,0.08,0.72,0.86,-0.1,0.8,60,0.78,0.07,-0.02,0.62
1697353491.46,0.09,0.73,0.92,-0.1,0.8,60,0.78,0.07,-0.02,0.62
1697353491.47,0.07,0.66,0.96,-0.5,-1,59.6,0.77,0.07,-0.02,0.63
1697353491.48,0.14,0.76,0.7,-0.5,-1,59.6,0.77,0.07,-0.02,0.63
1697353491.49,-0.1,0.9,0.93,-1.2,-0.7,58.9,0.77,0.07,-0.02,0.64
1697353491.5,-0.02,0.78,1.25,-0.2,0.2,60,0.76,0.07,-0.02,0.64
1697353491.51,0.03,0.88,0.94,1.8,1,59.7,0.76,0.07,-0.02,0.64
1697353491.52,0.04,0.82,0.8,1.5,1.1,60.5,0.76,0.07,-0.02,0.65
1697353491.53,0.04,0.71,1.21,1.4,1.2,60.9,0.75,0.07,-0.02,0.65
1697353491.54,0.09,0.76,0.83,1.3,1.3,61,0.75,0.07,-0.02,0.66
1697353491.55,-0.11,0.8,1.41,1.3,1.3,61,0.75,0.07,-0.02,0.66
1697353491.56,-0.11,0.8,1.41,0.6,1.5,61.4,0.74,0.07,-0.02,0.67
1697353491.57,-0.04,0.85,1.02,0.6,1.7,61.6,0.74,0.07,-0.02,0.67
1697353491.58,-0.05,0.84,1.05,0.5,1.8,61.9,0.74,0.07,-0.02,0.67
1697353491.59,-0.01,0.87,1.05,0.7,1.6,61.9,0.73,0.07,-0.03,0.68
1697353491.6,-0.01,0.84,1.14,0.4,1.1,62,0.73,0.07,-0.03,0.68
1697353491.61,0.03,0.78,0.72,0.1,0.6,61.9,0.73,0.07,-0.03,0.68
1697353491.62,-0.03,0.83,1.02,0.4,0.6,61.7,0.72,0.07,-0.03,0.69
1697353491.63,-0.08,0.82,1.17,1.2,0.6,61.4,0.72,0.07,-0.03,0.69
1697353491.64,0.06,0.77,0.83,1.9,0.9,61,0.72,0.07,-0.03,0.69
1697353491.65,-0,0.75,0.84,1.3,1.2,60.5,0.71,0.07,-0.03,0.7
1697353491.66,0.01,0.73,0.9,1.3,1.2,60.5,0.71,0.07,-0.03,0.7
1697353491.67,0.01,0.8,0.74,0.4,0.9,60.2,0.71,0.07,-0.03,0.7
1697353491.68,-0.07,0.86,1.27,-0.2,1.2,60.2,0.7,0.07,-0.03,0.71
1697353491.69,0.04,0.85,0.71,-0.1,0.9,60.3,0.69,0.07,-0.03,0.72
1697353491.7,-0.09,0.86,1.02,0.5,1.4,60.4,0.69,0.07,-0.03,0.72
1697353491.71,0,0.81,0.76,1,1.5,60.7,0.69,0.07,-0.03,0.72
1697353491.72,-0.06,0.81,1.05,1.1,1.7,60.9,0.68,0.07,-0.03,0.73
1697353491.73,-0.06,0.83,1.17,0.1,1.9,61,0.68,0.07,-0.03,0.73
1697353491.74,0.15,0.9,0.93,-0.7,2.1,61.4,0.67,0.07,-0.03,0.73
1697353491.75,-0.08,0.84,0.96,-0.3,2.2,61.8,0.67,0.07,-0.03,0.74
1697353491.76,-0.03,0.91,1.47,0.5,2,62.1,0.67,0.07,-0.03,0.74
1697353491.77,-0.04,0.78,0.95,0.5,1.9,63,0.66,0.07,-0.03,0.75
1697353491.78,0.07,0.88,1.04,0.5,2,63.2,0.66,0.07,-0.03,0.75
1697353491.79,-0.12,0.86,0.99,0.7,2.3,63.3,0.65,0.06,-0.03,0.75
1697353491.8,-0.12,0.86,0.99,0.7,2.3,63.3,0.65,0.06,-0.03,0.75
1697353491.81,-0.12,0.86,0.99,0.7,2.3,63.3,0.65,0.06,-0.03,0.75
1697353491.82,-0.12,0.86,0.99,0.7,2.3,63.3,0.65,0.06,-0.03,0.75
1697353491.83,-0.12,0.86,0.99,0.7,2.3,63.3,0.65,0.06,-0.03,0.75
1697353491.84,-0.12,0.86,0.99,0.7,2.3,63.3,0.65,0.06,-0.03,0.75
1697353491.85,-0.12,0.86,0.99,0.7,2.3,63.3,0.65,0.06,-0.03,0.75
1697353491.86,-0.12,0.86,0.99,0.7,2.3,63.3,0.65,0.06,-0.03,0.75
1697353491.87,-0.12,0.86,0.99,0.7,2.3,63.3,0.65,0.06,-0.03,0.75
1697353491.88,-0.12,0.86,0.99,0.7,2.3,63.3,0.65,0.06,-0.03,0.75
1697353491.89,-0.12,0.86,0.99,0.7,2.3,63.3,0.65,0.06,-0.03,0.75
1697353491.9,-0.12,0.86,0.99,0.7,2.3,63.3,0.65,0.06,-0.03,0.75
1697353491.91,-0.12,0.86,0.99,0.7,2.3,63.3,0.65,0.06,-0.03,0.75
1697353491.92,-0.12,0.86,0.99,0.7,2.3,63.3,0.65,0.06,-0.03,0.75
1697353491.93,0.07,0.81,0.97,-1.8,1.4,61.2,0.6,0.06,-0.03,0.8
1697353491.94,0,0.72,0.84,-1.3,1.5,60.6,0.59,0.06,-0.03,0.8
1697353491.95,0.09,0.77,0.96,-1.2,1,59.6,0.59,0.06,-0.03,0.81
1697353491.96,-0.05,0.67,1.42,-1.6,1,58.2,0.58,0.06,-0.03,0.81
1697353491.97,0.12,0.52,0.74,-2.4,1.2,56.3,0.58,0.06,-0.03,0.81
1697353491.98,0.03,0.5,1.23,-3.4,0.7,54,0.57,0.06,-0.04,0.82
1697353491.99,0.03,0.44,1.23,-4.2,0.5,51.7,0.57,0.06,-0.04,0.82
1697353492,0.12,0.43,0.66,-4.3,0.6,48.8,0.57,0.06,-0.04,0.82
1697353492.01,0.12,0.45,0.95,-2.9,0.7,46.2,0.56,0.06,-0.04,0.82
1697353492.02,0.06,0.4,1.27,-1.7,0.8,43.6,0.56,0.06,-0.04,0.83
1697353492.03,0.14,0.36,0.8,-0.7,1.3,41,0.56,0.06,-0.04,0.83
1697353492.04,0.05,0.28,0.82,-0.9,1.5,38.9,0.55,0.06,-0.04,0.83
1697353492.05,0.09,0.29,0.94,-1.4,1.7,37.3,0.55,0.06,-0.04,0.83
1697353492.06,0.08,0.33,1.19,-2.1,1.7,36.1,0.55,0.06,-0.04,0.83
1697353492.07,0.15,0.27,0.57,-2.2,1.7,35,0.55,0.06,-0.04,0.83
1697353492.08,0.1,0.35,1.11,-1.8,1.2,34.5,0.54,0.06,-0.04,0.84
1697353492.09,0.2,0.31,0.84,-1.8,0.3,34,0.54,0.06,-0.04,0.84
1697353492.1,0.14,0.3,0.94,-1.5,-0.9,33.2,0.54,0.06,-0.04,0.84
1697353492.11,0.18,0.38,0.64,-0.3,-1.5,32.6,0.54,0.06,-0.04,0.84
1697353492.12,0.05,0.29,1.19,0.2,-1.7,31.5,0.53,0.06,-0.04,0.84
1697353492.13,0.11,0.23,1,0,-2,30.6,0.53,0.06,-0.04,0.84
1697353492.14,0.05,0.19,0.79,-1.3,-1.8,29.6,0.53,0.06,-0.04,0.85
1697353492.15,0.01,0.3,1.45,-2.2,-1.2,28.9,0.53,0.06,-0.04,0.85
1697353492.16,0.06,0.34,0.78,-1.7,-0.2,27.8,0.52,0.06,-0.04,0.85
1697353492.17,-0.09,0.36,1.07,-1,1.1,27.5,0.52,0.06,-0.04,0.85
1697353492.18,0.1,0.3,1.3,-0.4,2,26.7,0.52,0.06,-0.04,0.85
1697353492.19,0.01,0.22,0.92,-0.4,2,26.7,0.52,0.06,-0.04,0.85
1697353492.2,0.01,0.22,0.92,-0.4,2.7,25.8,0.52,0.05,-0.04,0.85
1697353492.21,0.04,0.17,0.85,-1.1,3,24.8,0.52,0.05,-0.04,0.85
1697353492.22,0.1,0.18,0.8,-1.3,2.9,24.5,0.51,0.05,-0.04,0.86
1697353492.23,0.14,0.26,0.73,-3,2,22.2,0.51,0.05,-0.04,0.86
1697353492.24,0.06,0.28,1.43,-1.9,1.3,21.1,0.51,0.05,-0.04,0.86
1697353492.25,0.18,0.19,0.94,-1.1,0.7,20.2,0.51,0.05,-0.04,0.86
1697353492.26,0.13,0.09,0.77,-1.5,0,19.2,0.51,0.05,-0.04,0.86
1697353492.27,0.01,0.19,1.01,-2.5,-0.6,18.4,0.51,0.05,-0.04,0.86
1697353492.28,0.12,0.1,1.12,-2.9,-0.9,17.2,0.51,0.05,-0.04,0.86
1697353492.29,0.09,0.03,0.79,-2.7,-1.4,15.8,0.5,0.05,-0.04,0.86
1697353492.3,0.07,0.11,1.14,-2.7,-1.4,14.8,0.5,0.05,-0.04,0.86
1697353492.31,0.14,-0.02,0.91,-2.4,-1.1,13.4,0.5,0.05,-0.04,0.86
1697353492.32,0.06,-0.2,0.78,-2.4,-1.1,13.4,0.5,0.05,-0.04,0.86
1697353492.33,0.06,-0.2,0.78,-2.4,-1.1,13.4,0.5,0.05,-0.04,0.86
1697353492.34,0.06,-0.2,0.78,-2.4,-1.1,13.4,0.5,0.05,-0.04,0.86
1697353492.35,0.06,-0.2,0.78,-2.4,-1.1,13.4,0.5,0.05,-0.04,0.86
1697353492.36,0.06,-0.2,0.78,-2.4,-1.1,13.4,0.5,0.05,-0.04,0.86
1697353492.37,0.06,-0.2,0.78,-2.4,-1.1,13.4,0.5,0.05,-0.04,0.86
1697353492.38,0.06,-0.2,0.78,-2.4,-1.1,13.4,0.5,0.05,-0.04,0.86
1697353492.39,0.06,-0.2,0.78,-2.4,-1.1,13.4,0.5,0.05,-0.04,0.86
1697353492.4,0.06,-0.2,0.78,-2.4,-1.1,13.4,0.5,0.05,-0.04,0.86
1697353492.41,0.06,-0.2,0.78,-2.4,-1.1,13.4,0.5,0.05,-0.04,0.86
1697353492.42,0.06,-0.2,0.78,-2.4,-1.1,13.4,0.5,0.05,-0.04,0.86
1697353492.43,0.06,-0.2,0.78,-2.4,-1.1,13.4,0.5,0.05,-0.04,0.86
1697353492.44,0.06,-0.2,0.78,-2.4,-1.1,13.4,0.5,0.05,-0.04,0.86
1697353492.45,0.06,-0.2,0.78,-2.4,-1.1,13.4,0.5,0.05,-0.04,0.86
1697353492.46,0.06,-0.2,0.78,-2.4,-1.1,13.4,0.5,0.05,-0.04,0.86
1697353492.47,0.06,-0.2,0.78,-2.4,-1.1,13.4,0.5,0.05,-0.04,0.86
1697353492.48,0.06,-0.2,0.78,-2.4,-1.1,13.4,0.5,0.05,-0.04,0.86
1697353492.49,0.06,-0.2,0.78,-2.4,-1.1,13.4,0.5,0.05,-0.04,0.86
1697353492.5,0.06,-0.2,0.78,-2.4,-1.1,13.4,0.5,0.05,-0.04,0.86
1697353492.51,-0.04,-0.66,0.66,1.2,1.1,-38.8,0.53,0.05,-0.05,0.85
1697353492.52,0.03,-0.68,1.16,0.9,1.3,-39.6,0.53,0.05,-0.05,0.85
1697353492.53,0.03,-0.68,1.16,0.9,1.3,-39.6,0.53,0.05,-0.05,0.84
1697353492.54,0.02,-0.57,0.78,-2.1,1.8,-40.3,0.54,0.05,-0.05,0.84
1697353492.55,0.02,-0.57,0.78,-2.1,1.8,-40.3,0.54,0.05,-0.05,0.84
1697353492.56,-0.03,-0.52,1.25,-1,2.1,-40.6,0.54,0.05,-0.05,0.84
1697353492.57,-0.03,-0.52,1.25,0.5,1.2,-40.5,0.54,0.05,-0.05,0.84
1697353492.58,0,-0.93,0.93,-0.6,0.6,-42.1,0.55,0.05,-0.05,0.83
1697353492.59,-0.07,-0.72,1.04,-4.1,0.6,-42.7,0.55,0.05,-0.05,0.83
1697353492.6,0.03,-0.66,0.72,-4.1,0.5,-42.9,0.55,0.05,-0.05,0.83
1697353492.61,-0.07,-0.48,1.07,-0.4,0.7,-43.3,0.56,0.05,-0.05,0.83
1697353492.62,0.01,-0.54,1.05,3.9,0.7,-43.9,0.56,0.05,-0.05,0.83
1697353492.63,-0.11,-0.8,0.94,4.5,1.2,-44.7,0.56,0.05,-0.05,0.82
1697353492.64,-0.01,-0.9,1.03,1,1.2,-45.3,0.57,0.05,-0.05,0.82
1697353492.65,0.05,-0.84,1.38,-2.5,1.1,-45.8,0.57,0.05,-0.05,0.82
1697353492.66,0.07,-0.69,0.9,-3,1.1,-46,0.57,0.05,-0.05,0.82
1697353492.67,-0.04,-0.63,1.2,-3.3,1.2,-46.4,0.57,0.05,-0.05,0.82
1697353492.68,-0.02,-0.55,0.74,-1.7,0.6,-46.4,0.58,0.05,-0.05,0.81
1697353492.69,0.07,-0.67,0.89,-0.4,0,-46.2,0.58,0.05,-0.05,0.81
1697353492.7,0.07,-0.62,1.04,0.3,-0.5,-46,0.59,0.05,-0.05,0.81
1697353492.71,0.07,-0.75,0.75,0.5,-0.9,-45.8,0.59,0.05,-0.05,0.8
1697353492.72,0.05,-0.85,1.06,-0.9,-0.8,-46.1,0.59,0.05,-0.05,0.8
1697353492.73,-0.12,-0.67,1.02,-3.8,-0.6,-46.2,0.6,0.05,-0.05,0.8
1697353492.74,-0.04,-0.49,0.89,-3.8,-0.6,-46.2,0.6,0.05,-0.05,0.8
1697353492.75,0.09,-0.55,0.7,-1.3,0.4,-45.7,0.6,0.05,-0.05,0.79
1697353492.76,-0.13,-0.8,1.12,3.5,1.1,-45.5,0.61,0.05,-0.05,0.79
1697353492.77,0.18,-0.95,0.97,2.2,0.6,-45.3,0.61,0.05,-0.05,0.79
1697353492.78,-0.02,-0.83,1.09,-0.8,0.7,-46.1,0.61,0.05,-0.05,0.79
1697353492.79,-0.09,-0.69,0.89,-3.5,0.7,-46.3,0.62,0.05,-0.05,0.78
1697353492.8,0.08,-0.55,1.2,-4,0.6,-46.5,0.62,0.05,-0.05,0.78
1697353492.81,-0.06,-0.57,1.23,-1.2,0.7,-46.4,0.62,0.05,-0.05,0.78
1697353492.82,0.01,-0.55,0.85,1.1,0.7,-46.3,0.63,0.05,-0.04,0.78
1697353492.83,0.04,-0.79,1.17,2.6,1,-46,0.63,0.05,-0.04,0.77
1697353492.84,-0.05,-0.79,0.88,1.8,1.1,-46.4,0.63,0.05,-0.04,0.77
1697353492.85,0.08,-0.59,1.01,0,0.8,-46.7,0.64,0.05,-0.04,0.77
1697353492.86,-0.03,-0.66,0.92,-0.3,0.1,-46.7,0.64,0.05,-0.04,0.77
1697353492.87,-0.06,-0.69,0.94,0,-0.3,-47.1,0.64,0.05,-0.04,0.76
1697353492.88,0.14,-0.71,0.84,-1.9,0.5,-46.1,0.65,0.05,-0.04,0.76
1697353492.89,0.09,-0.64,0.77,-2.5,1,-45.7,0.65,0.05,-0.04,0.76
1697353492.9,0.09,-0.64,0.77,-2.5,1,-45.7,0.65,0.05,-0.04,0.76
1697353492.91,0.09,-0.64,0.77,-2.5,1,-45.7,0.65,0.05,-0.04,0.76
1697353492.92,0.09,-0.64,0.77,-2.5,1,-45.7,0.65,0.05,-0.04,0.76
1697353492.93,0.09,-0.64,0.77,-2.5,1,-45.7,0.65,0.05,-0.04,0.76
1697353492.94,0.09,-0.64,0.77,-2.5,1,-45.7,0.65,0.05,-0.04,0.76
1697353492.95,0.09,-0.64,0.77,-2.5,1,-45.7,0.65,0.05,-0.04,0.76
1697353492.96,0.09,-0.64,0.77,-2.5,1,-45.7,0.65,0.05,-0.04,0.76
1697353492.97,0.09,-0.64,0.77,-2.5,1,-45.7,0.65,0.05,-0.04,0.76
1697353492.98,0.09,-0.64,0.77,-2.5,1,-45.7,0.65,0.05,-0.04,0.76
1697353492.99,0.09,-0.64,0.77,-2.5,1,-45.7,0.65,0.05,-0.04,0.76
1697353493,0.09,-0.64,0.77,-2.5,1,-45.7,0.65,0.05,-0.04,0.76
1697353493.01,0.09,-0.64,0.77,-2.5,1,-45.7,0.65,0.05,-0.04,0.76
1697353493.02,0.09,-0.64,0.77,-2.5,1,-45.7,0.65,0.05,-0.04,0.76
1697353493.03,0.04,-0.69,0.94,1.1,0.1,-46.6,0.69,0.06,-0.04,0.72
1697353493.04,0.18,-0.89,0.97,2,1.2,-46.6,0.69,0.06,-0.04,0.72
1697353493.05,0.11,-0.84,0.89,0.7,2.1,-47.1,0.7,0.06,-0.04,0.71
1697353493.06,0.01,-0.87,1.05,-4,2,-47,0.7,0.06,-0.04,0.71
1697353493.07,0.3,-0.54,0.83,-4.4,2.1,-47.8,0.7,0.06,-0.04,0.71
1697353493.08,0.16,-0.66,0.81,-2.3,1.7,-47.8,0.7,0.06,-0.04,0.71
1697353493.09,0.04,-0.66,0.98,0.2,0.6,-47.6,0.71,0.06,-0.04,0.7
1697353493.1,0.04,-0.66,0.98,0.2,0.6,-47.6,0.71,0.06,-0.04,0.7
1697353493.11,0.08,-0.91,1.01,2.7,-0.5,-47.7,0.71,0.06,-0.04,0.7
1697353493.12,0.08,-0.91,1.01,2.7,-0.5,-47.7,0.71,0.06,-0.04,0.7
1697353493.13,0.03,-0.78,0.9,-2,-0.5,-48.2,0.72,0.06,-0.04,0.69
1697353493.14,0.08,-0.77,1.22,-2.1,-0.5,-48.2,0.72,0.06,-0.04,0.69
1697353493.15,-0.09,-0.74,0.98,-0.7,-1.3,-48.1,0.73,0.06,-0.04,0.68
1697353493.16,0.09,-0.74,0.84,0.6,-0.2,-48.6,0.73,0.06,-0.04,0.68
1697353493.17,-0.11,-0.71,1.06,0.3,0.9,-47.9,0.73,0.06,-0.04,0.68
1697353493.18,0.02,-0.76,1.04,-0.7,1.8,-47.5,0.73,0.06,-0.04,0.68
1697353493.19,0.01,-0.71,1,0.3,2.4,-47.7,0.74,0.06,-0.04,0.67
1697353493.2,0.01,-0.71,1,0.3,2.4,-47.7,0.74,0.06,-0.04,0.67
1697353493.21,0.1,-0.9,0.9,-0.9,1.9,-48.5,0.74,0.06,-0.04,0.67
1697353493.22,0.07,-0.82,0.98,-2,1.7,-48.9,0.75,0.06,-0.04,0.66
1697353493.23,0.07,-0.71,0.89,-1.5,1.5,-49.1,0.75,0.06,-0.03,0.66
1697353493.24,0.01,-0.69,1.08,-1.5,1.5,-49.1,0.75,0.06,-0.03,0.66
1697353493.25,0.01,-0.69,1.08,-0.1,1.2,-49,0.75,0.06,-0.03,0.66
1697353493.26,0.16,-0.64,0.86,1.3,0.8,-48.3,0.75,0.06,-0.03,0.65
1697353493.27,0.14,-0.79,1.04,3,0.7,-47.6,0.76,0.06,-0.03,0.65
1697353493.28,0.04,-0.92,1.03,3,0.7,-47.6,0.76,0.06,-0.03,0.65
1697353493.29,0.09,-0.88,0.9,0.8,0.8,-47.8,0.76,0.06,-0.03,0.64
1697353493.3,0.09,-0.88,0.9,-0.4,1.1,-48,0.77,0.06,-0.03,0.64
1697353493.31,0.08,-0.69,1.26,1,1.8,-47.9,0.77,0.06,-0.03,0.64
1697353493.32,0.14,-0.9,0.7,1.7,1.9,-48.1,0.77,0.06,-0.03,0.63
1697353493.33,0.01,-0.96,1.04,-1.2,1,-48.4,0.77,0.06,-0.03,0.63
1697353493.34,0.04,-0.81,0.95,-1.5,0.3,-49.9,0.78,0.06,-0.03,0.63
1697353493.35,0.18,-0.65,0.86,-1.9,-0.2,-49.6,0.78,0.06,-0.03,0.62
1697353493.36,0.04,-0.7,1.07,-1.7,-0.3,-49.6,0.78,0.06,-0.03,0.62
1697353493.37,0.01,-0.63,0.94,4.3,-0.3,-49.6,0.79,0.06,-0.03,0.61
1697353493.38,0.08,-0.85,1.04,3,-0.1,-49.5,0.79,0.06,-0.03,0.61
1697353493.39,0.06,-0.93,0.98,0.7,-0.4,-49.7,0.79,0.06,-0.03,0.61
1697353493.4,0.11,-0.81,0.82,-2.3,-0.2,-49.6,0.79,0.06,-0.03,0.6
1697353493.41,0.13,-0.78,0.97,-2.5,0.4,-49.6,0.8,0.06,-0.03,0.6
1697353493.42,0.13,-0.78,0.97,-2.5,0.4,-49.6,0.8,0.06,-0.03,0.6
1697353493.43,0.13,-0.78,0.97,-2.5,0.4,-49.6,0.8,0.06,-0.03,0.6
1697353493.44,0.13,-0.78,0.97,-2.5,0.4,-49.6,0.8,0.06,-0.03,0.6
1697353493.45,0.13,-0.78,0.97,-2.5,0.4,-49.6,0.8,0.06,-0.03,0.6
1697353493.46,0.13,-0.78,0.97,-2.5,0.4,-49.6,0.8,0.06,-0.03,0.6
1697353493.47,0.13,-0.78,0.97,-2.5,0.4,-49.6,0.8,0.06,-0.03,0.6
1697353493.48,0.13,-0.78,0.97,-2.5,0.4,-49.6,0.8,0.06,-0.03,0.6
1697353493.49,0.13,-0.78,0.97,-2.5,0.4,-49.6,0.8,0.06,-0.03,0.6
1697353493.5,0.13,-0.78,0.97,-2.5,0.4,-49.6,0.8,0.06,-0.03,0.6
1697353493.51,0.13,-0.78,0.97,-2.5,0.4,-49.6,0.8,0.06,-0.03,0.6
1697353493.52,0.13,-0.78,0.97,-2.5,0.4,-49.6,0.8,0.06,-0.03,0.6
1697353493.53,0.13,-0.78,0.97,7.9,-0.7,-43.8,0.8,0.06,-0.03,0.6
1697353493.54,0.23,-0.24,0.74,1.2,1.3,-37.2,0.83,0.06,-0.02,0.56
1697353493.55,0.06,-0.2,1.06,0.3,2.3,-34,0.83,0.06,-0.02,0.56
1697353493.56,0.06,-0.2,1.06,0.3,2.3,-34,0.83,0.06,-0.02,0.55
1697353493.57,0.11,-0.12,0.87,2.8,3.5,-27.1,0.83,0.06,-0.02,0.55
1697353493.58,0.05,-0.13,1.13,2.8,3.5,-27.1,0.83,0.06,-0.02,0.55
1697353493.59,0.21,-0.1,0.81,5,3.9,-22.5,0.83,0.06,-0.02,0.55
1697353493.6,0.21,-0.1,0.81,5,3.9,-22.5,0.83,0.06,-0.02,0.55
1697353493.61,0.16,0.45,0.89,2.2,2.4,-16.6,0.83,0.06,-0.02,0.55
1697353493.62,0.12,0.49,0.64,2.2,2.4,-16.6,0.84,0.06,-0.02,0.55
1697353493.63,0.16,0.43,0.46,8.3,1,-6.7,0.84,0.06,-0.02,0.54
1697353493.64,0.14,0.51,1.51,9.3,1.2,-2.4,0.84,0.07,-0.02,0.54
1697353493.65,0.07,0.37,0.77,9.3,1.2,-2.4,0.84,0.07,-0.02,0.54
1697353493.66,0.29,0.53,1.05,6.4,1.5,6.3,0.84,0.07,-0.02,0.54
1697353493.67,0.29,0.53,1.05,6.4,1.5,6.3,0.84,0.07,-0.02,0.54
1697353493.68,0.1,0.5,1.12,5.3,1.3,9.5,0.84,0.07,-0.02,0.55
1697353493.69,0.1,0.5,1.12,4.8,0.6,12.5,0.83,0.07,-0.02,0.55
1697353493.7,0.24,0.46,0.87,4.4,0,14.5,0.83,0.07,-0.02,0.55
1697353493.71,0.14,0.39,1.09,3.1,-0.1,15.3,0.83,0.07,-0.02,0.55
1697353493.72,0.24,0.38,0.86,0.7,-0.5,15.3,0.83,0.07,-0.02,0.55
1697353493.73,0.21,0.51,1.18,-1.8,-0.7,14.7,0.83,0.07,-0.02,0.55
1697353493.74,0.28,0.52,0.91,-1.4,-0.9,13.4,0.83,0.07,-0.02,0.55
1697353493.75,0.29,0.47,1.05,0.5,-0.4,12.7,0.83,0.07,-0.02,0.55
1697353493.76,0.19,0.37,0.81,0.8,-0.3,12.6,0.83,0.07,-0.02,0.55
1697353493.77,0.14,0.28,1.11,0.8,0,12.2,0.83,0.07,-0.02,0.55
1697353493.78,0.32,0.25,0.93,-0.4,0.3,11.6,0.83,0.07,-0.02,0.56
1697353493.79,0.18,0.25,1.07,-2.2,0.5,11.3,0.83,0.07,-0.02,0.56
1697353493.8,0.13,0.25,0.96,-2.9,0.6,11.5,0.83,0.07,-0.02,0.56
1697353493.81,0.21,0.22,1.01,-2,0.3,11.7,0.83,0.07,-0.02,0.56
1697353493.82,0.3,0.22,0.88,-1.3,0.5,12.1,0.83,0.07,-0.02,0.56
1697353493.83,0.21,0.23,0.97,-0.1,0,12.8,0.83,0.07,-0.02,0.56
1697353493.84,0.21,0.03,1.17,0.5,-0.5,13.8,0.82,0.07,-0.02,0.56
1697353493.85,0.24,0.21,0.98,1.1,-0.8,14.5,0.82,0.07,-0.02,0.56
1697353493.86,0.19,-0.02,1.01,0.1,-0.9,15.1,0.82,0.07,-0.02,0.56
1697353493.87,0.31,0.2,0.74,-1.8,-1.1,15.6,0.82,0.07,-0.02,0.56
1697353493.88,0.29,0.27,1.06,-2.2,-1.2,15.4,0.82,0.07,-0.02,0.57
1697353493.89,0.25,0.26,1.01,-2.7,-1.1,15.6,0.82,0.07,-0.02,0.57
1697353493.9,0.24,0.31,0.85,-1,-0.9,15.4,0.82,0.07,-0.02,0.57
1697353493.91,0.2,0.31,1,0.2,-0.5,15.2,0.82,0.07,-0.02,0.57
1697353493.92,0.2,0.31,1,0.2,-0.5,15.2,0.82,0.07,-0.02,0.57
1697353493.93,0.2,0.31,1,0.2,-0.5,15.2,0.82,0.07,-0.02,0.57
1697353493.94,0.2,0.31,1,0.2,-0.5,15.2,0.82,0.07,-0.02,0.57
1697353493.95,0.2,0.31,1,0.2,-0.5,15.2,0.82,0.07,-0.02,0.57
1697353493.96,0.2,0.31,1,0.2,-0.5,15.2,0.82,0.07,-0.02,0.57
1697353493.97,0.2,0.31,1,0.2,-0.5,15.2,0.82,0.07,-0.02,0.57
1697353493.98,0.2,0.31,1,0.2,-0.5,15.2,0.82,0.07,-0.02,0.57
1697353493.99,0.2,0.31,1,0.2,-0.5,15.2,0.82,0.07,-0.02,0.57
1697353494,0.2,0.31,1,0.2,-0.5,15.2,0.82,0.07,-0.02,0.57
1697353494.01,0.2,0.31,1,0.2,-0.5,15.2,0.82,0.07,-0.02,0.57
1697353494.02,0.2,0.31,1,0.2,-0.5,15.2,0.82,0.07,-0.02,0.57
1697353494.03,0.2,0.31,1,0.2,-0.5,15.2,0.82,0.07,-0.02,0.57
1697353494.04,0.2,0.31,1,0.2,-0.5,15.2,0.82,0.07,-0.02,0.57
1697353494.05,0.26,0.35,0.92,0.2,-0.5,15.2,0.82,0.07,-0.02,0.57
1697353494.06,0.28,0.42,0.98,-0.4,-1.2,15.1,0.81,0.07,-0.02,0.58
1697353494.07,0.26,0.3,0.7,0.2,-0.7,15,0.81,0.07,-0.02,0.59
1697353494.08,0.17,0.33,1.09,0.6,0.1,15.1,0.81,0.07,-0.02,0.59
1697353494.09,0.21,0.3,1.05,0.5,0.9,14.9,0.81,0.07,-0.02,0.59
1697353494.1,0.29,0.22,0.82,0.4,1.3,14.7,0.81,0.07,-0.02,0.59
1697353494.11,0.23,0.24,1.05,-0.8,1.1,15.2,0.8,0.07,-0.02,0.59
1697353494.12,0.33,0.24,0.8,-0.1,1.3,15.1,0.8,0.07,-0.02,0.59
1697353494.13,0.15,0.4,1.07,1.2,1.2,15.6,0.8,0.07,-0.02,0.59
1697353494.14,0.25,0.21,1.08,2.9,1.3,15.5,0.8,0.07,-0.02,0.59
1697353494.15,0.42,0.35,0.74,2.6,0.8,15.9,0.8,0.07,-0.02,0.59
1697353494.16,0.2,0.1,1.23,1,0.6,15.8,0.8,0.07,-0.02,0.6
1697353494.17,0.25,0.04,1.06,-1.9,0.1,15.2,0.8,0.07,-0.02,0.6
1697353494.18,0.27,0.23,0.92,-3.9,0.3,15.1,0.8,0.07,-0.02,0.6
1697353494.19,0.2,0.41,1.2,-1.5,0,14.9,0.8,0.07,-0.02,0.6
1697353494.2,0.17,0.36,1.04,0.1,0.2,14.4,0.8,0.07,-0.02,0.6
1697353494.21,0.3,0.36,0.92,1.6,0.6,14.1,0.8,0.07,-0.02,0.6
1697353494.22,0.2,0.26,0.83,2.9,0.7,13.6,0.8,0.07,-0.02,0.6
1697353494.23,0.27,0.24,0.84,3.1,0.5,13.1,0.79,0.07,-0.02,0.6
1697353494.24,0.31,0.18,0.87,2.2,0.1,12.5,0.79,0.07,-0.02,0.6
1697353494.25,0.27,0.1,0.86,1.7,0,12.3,0.79,0.07,-0.02,0.6
1697353494.26,0.2,0.2,1.01,-0.2,-0.7,11.7,0.79,0.07,-0.02,0.61
1697353494.27,0.24,0.23,1.03,-2.4,-1.2,11.7,0.79,0.07,-0.02,0.61
1697353494.28,0.19,0.35,1.08,-2.2,-1.9,11.4,0.79,0.07,-0.02,0.61
1697353494.29,0.28,0.28,0.93,-0.5,-2.6,11.4,0.79,0.07,-0.02,0.61
1697353494.3,0.25,0.23,1.04,-0.5,-2.6,11.4,0.79,0.07,-0.02,0.61
1697353494.31,0.19,0.09,1.25,2.2,-3,12.5,0.79,0.07,-0.02,0.61
1697353494.32,0.19,0.09,1.25,2.2,-3,12.5,0.79,0.07,-0.02,0.61
1697353494.33,0.15,0.22,1.19,-1,-2.1,12.8,0.79,0.07,-0.02,0.61
1697353494.34,0.17,0.24,1.17,-2.4,-1.1,13.2,0.79,0.07,-0.02,0.61
1697353494.35,0.17,0.24,1.17,-2.4,-1.1,13.2,0.79,0.07,-0.02,0.61
1697353494.36,0.16,0.29,0.94,-1.1,0.4,13.8,0.79,0.07,-0.02,0.61
1697353494.37,0.16,0.24,0.83,0,1.3,14,0.79,0.07,-0.02,0.61
1697353494.38,0.15,0.17,1.06,1.3,2.1,13.9,0.79,0.07,-0.02,0.62
1697353494.39,0.14,0.17,0.76,1.4,2.4,13.3,0.78,0.07,-0.02,0.62
1697353494.4,0.32,0.28,0.91,0.3,2.6,13.1,0.78,0.07,-0.02,0.62
1697353494.41,0.28,0.3,1.06,-0.4,2.2,12.9,0.78,0.07,-0.02,0.62
1697353494.42,0.23,0.3,1,1,0.2,12.6,0.78,0.07,-0.02,0.62
1697353494.43,0.17,0.18,1.04,2.8,-1.7,11.2,0.78,0.07,-0.02,0.62
1697353494.44,0.2,0.09,0.84,2.8,-1.7,11.2,0.78,0.07,-0.02,0.62
1697353494.45,0.2,0.09,0.84,2.8,-1.7,11.2,0.78,0.07,-0.02,0.62
1697353494.46,0.2,0.09,0.84,2.8,-1.7,11.2,0.78,0.07,-0.02,0.62
1697353494.47,0.2,0.09,0.84,2.8,-1.7,11.2,0.78,0.07,-0.02,0.62
1697353494.48,0.2,0.09,0.84,2.8,-1.7,11.2,0.78,0.07,-0.02,0.62
1697353494.49,0.2,0.09,0.84,2.8,-1.7,11.2,0.78,0.07,-0.02,0.62
1697353494.5,0.2,0.09,0.84,2.8,-1.7,11.2,0.78,0.07,-0.02,0.62
1697353494.51,0.2,0.09,0.84,2.8,-1.7,11.2,0.78,0.07,-0.02,0.62
1697353494.52,0.2,0.09,0.84,2.8,-1.7,11.2,0.78,0.07,-0.02,0.62
1697353494.53,0.2,0.09,0.84,2.8,-1.7,11.2,0.78,0.07,-0.02,0.62
1697353494.54,0.2,0.09,0.84,2.8,-1.7,11.2,0.78,0.07,-0.02,0.62
1697353494.55,0.2,0.09,0.84,2.8,-1.7,11.2,0.78,0.07,-0.02,0.62
1697353494.56,0.2,0.09,0.84,2.8,-1.7,11.2,0.78,0.07,-0.02,0.62
1697353494.57,0.2,0.09,0.84,2.8,-1.7,11.2,0.78,0.07,-0.02,0.62
1697353494.58,0.2,0.09,0.84,2.8,-1.7,11.2,0.78,0.07,-0.02,0.62
1697353494.59,0.2,0.09,0.84,2.8,-1.7,11.2,0.78,0.07,-0.02,0.62
1697353494.6,0.2,0.09,0.84,2.8,-1.7,11.2,0.78,0.07,-0.02,0.62
1697353494.61,0.2,0.09,0.84,2.8,-1.7,11.2,0.78,0.07,-0.02,0.62
1697353494.62,0.2,0.09,0.84,2.8,-1.7,11.2,0.78,0.07,-0.02,0.62
1697353494.63,0.2,0.09,0.84,2.8,-1.7,11.2,0.78,0.07,-0.02,0.62
1697353494.64,0.2,0.09,0.84,2.8,-1.7,11.2,0.78,0.07,-0.02,0.62
1697353494.65,0.2,0.09,0.84,2.8,-1.7,11.2,0.78,0.07,-0.02,0.62
1697353494.66,0.2,0.09,0.84,2.8,-1.7,11.2,0.78,0.07,-0.02,0.62
1697353494.67,0.2,0.09,0.84,2.8,-1.7,11.2,0.78,0.07,-0.02,0.62
1697353494.68,0.17,0.36,0.85,0.5,0.6,7.7,0.77,0.07,-0.03,0.63
1697353494.69,0.15,0.19,0.83,1.7,2.1,7.2,0.77,0.07,-0.03,0.63
1697353494.7,0.15,0.19,0.83,1.7,2.1,7.2,0.77,0.07,-0.03,0.63
1697353494.71,0.25,0.15,1.15,2.7,2.7,6.7,0.77,0.07,-0.03,0.63
1697353494.72,0.25,0.15,1.15,2.5,2.4,6.7,0.77,0.07,-0.03,0.63
1697353494.73,0.21,0.03,0.91,0.9,2,6.9,0.77,0.07,-0.03,0.64
1697353494.74,0.18,0.16,1.07,-1.5,1.6,7.8,0.77,0.07,-0.03,0.64
1697353494.75,0.18,0.16,1.14,-3.2,0.8,8.1,0.77,0.07,-0.03,0.64
1697353494.76,0.25,0.23,0.97,-4.1,0,8.8,0.77,0.07,-0.03,0.64
1697353494.77,0.24,0.23,0.94,-2.9,-0.9,8.9,0.77,0.07,-0.03,0.64
1697353494.78,0.23,0.38,0.68,-2,-1.5,9.3,0.77,0.07,-0.03,0.64
1697353494.79,0.22,0.3,0.98,0.4,-1.1,8.9,0.77,0.07,-0.03,0.64
1697353494.8,0.15,0.03,1.15,-0.7,-0.6,8.3,0.77,0.07,-0.03,0.64
1697353494.81,0.27,0.1,0.77,-2.5,0,7.8,0.77,0.07,-0.03,0.64
1697353494.82,0.23,0.17,0.75,-3,0.3,7.5,0.77,0.07,-0.03,0.64
1697353494.83,0.23,0.2,0.9,-2.4,0.3,7.6,0.76,0.07,-0.03,0.64
1697353494.84,0.19,0.35,0.96,2.5,0.6,7.8,0.76,0.07,-0.03,0.64
1697353494.85,0.21,0.29,0.97,6.6,1,8.3,0.76,0.07,-0.03,0.64
1697353494.86,0.13,0.06,1.24,5.2,0.8,8.6,0.76,0.07,-0.03,0.64
1697353494.87,0.12,-0.16,1.19,0,1.1,8.5,0.76,0.07,-0.03,0.64
1697353494.88,0.23,-0.03,0.98,-4.5,1,8.9,0.76,0.07,-0.03,0.64
1697353494.89,0.14,0.18,1.22,-5.1,0.6,9.2,0.76,0.07,-0.03,0.64
1697353494.9,0.21,0.31,1.09,-3.3,0,9.8,0.76,0.07,-0.03,0.64
1697353494.91,0.22,0.38,1.23,-0.3,-0.8,9.8,0.76,0.07,-0.03,0.65
1697353494.92,0.2,0.17,0.91,1,-1,9.1,0.76,0.07,-0.03,0.65
1697353494.93,0.32,0.1,0.84,-0.1,-0.8,8.4,0.76,0.07,-0.03,0.65
1697353494.94,0.27,0.11,0.84,-0.1,-0.8,8.4,0.76,0.07,-0.03,0.65
1697353494.95,0.17,0.16,1.03,-1.3,-1.3,7.5,0.76,0.07,-0.03,0.65
1697353494.96,0.19,0.15,1,-0.2,-1.7,6.6,0.76,0.07,-0.03,0.65
1697353494.97,0.12,0.07,1.07,0.8,-1.6,5.9,0.76,0.07,-0.03,0.65
1697353494.98,0.23,0.03,0.98,2,-1,5.6,0.76,0.07,-0.03,0.65
1697353494.99,0.25,0.02,1.01,3,-0.3,5.8,0.76,0.07,-0.03,0.65
1697353495,0.25,0.02,1.01,1.9,-0.2,6.1,0.76,0.07,-0.03,0.65
1697353495.01,0.12,0.13,1.24,0.6,-0.4,6.2,0.76,0.07,-0.03,0.65
1697353495.02,0.15,0.07,0.92,-0.8,-0.7,6.4,0.76,0.07,-0.03,0.65
1697353495.03,0.27,0.14,0.85,-1.4,-0.4,6.5,0.76,0.07,-0.03,0.65
1697353495.04,0.27,0.14,0.85,-1.4,-0.4,6.5,0.76,0.07,-0.03,0.65
1697353495.05,0.24,0.25,1.13,-2.9,0.2,6.7,0.76,0.07,-0.03,0.65
1697353495.06,0.26,0.33,0.97,-4.8,0.8,6.9,0.75,0.07,-0.03,0.65
1697353495.07,0.26,0.33,0.97,-4.3,0.7,6.9,0.75,0.07,-0.03,0.65
1697353495.08,0.26,0.33,0.97,-4.3,0.7,6.9,0.75,0.07,-0.03,0.65
1697353495.09,0.26,0.33,0.97,-4.3,0.7,6.9,0.75,0.07,-0.03,0.65
1697353495.1,0.26,0.33,0.97,-4.3,0.7,6.9,0.75,0.07,-0.03,0.65
1697353495.11,0.26,0.33,0.97,-4.3,0.7,6.9,0.75,0.07,-0.03,0.65
1697353495.12,0.26,0.33,0.97,-4.3,0.7,6.9,0.75,0.07,-0.03,0.65
1697353495.13,0.26,0.33,0.97,-4.3,0.7,6.9,0.75,0.07,-0.03,0.65
1697353495.14,0.26,0.33,0.97,-4.3,0.7,6.9,0.75,0.07,-0.03,0.65
1697353495.15,0.26,0.33,0.97,-4.3,0.7,6.9,0.75,0.07,-0.03,0.65
1697353495.16,0.26,0.33,0.97,-4.3,0.7,6.9,0.75,0.07,-0.03,0.65
1697353495.17,0.26,0.33,0.97,-4.3,0.7,6.9,0.75,0.07,-0.03,0.65
1697353495.18,0.26,0.33,0.97,-4.3,0.7,6.9,0.75,0.07,-0.03,0.65
1697353495.19,0.12,0.29,0.95,-0.9,-3.6,9.2,0.75,0.07,-0.03,0.66
1697353495.2,0.12,0.44,1.03,1.2,-2.1,9.5,0.75,0.07,-0.03,0.66
1697353495.21,0.12,0.17,0.97,1.6,-1.3,9.9,0.75,0.07,-0.03,0.66
1697353495.22,0.12,0.17,0.97,1.6,-1.3,9.9,0.75,0.07,-0.03,0.66
1697353495.23,0.19,0.21,1.02,0.5,-0.1,9.1,0.75,0.07,-0.03,0.66
1697353495.24,0.19,0.21,1.02,0.5,-0.1,9.1,0.75,0.07,-0.03,0.66
1697353495.25,0.1,0.24,1.28,-0.1,0.3,8.5,0.75,0.07,-0.03,0.66
1697353495.26,0.1,0.24,1.28,-0.8,0.7,8.5,0.74,0.07,-0.03,0.66
1697353495.27,0.16,0.32,1.07,0.3,1.4,8.7,0.74,0.07,-0.03,0.66
1697353495.28,0.18,0.19,1.11,0.6,1.4,8.9,0.74,0.07,-0.03,0.66
1697353495.29,0.18,0.29,1.29,0,0.8,9.3,0.74,0.07,-0.03,0.66
1697353495.3,0.18,0.29,1.29,0,0.8,9.3,0.74,0.07,-0.03,0.67
1697353495.31,0.12,0.26,1.16,2.4,0.1,10.1,0.74,0.07,-0.03,0.67
1697353495.32,0.12,0.26,1.16,2.4,0.1,10.1,0.74,0.07,-0.03,0.67
1697353495.33,0.12,0.14,0.88,1,0.4,9.7,0.74,0.07,-0.03,0.67
1697353495.34,0.12,0.14,0.88,-0.7,0.5,9.8,0.74,0.07,-0.03,0.67
1697353495.35,0.1,0.23,0.94,-0.7,0.5,9.8,0.74,0.07,-0.03,0.67
1697353495.36,0.18,0.22,1.04,-1.1,0.4,9.7,0.74,0.07,-0.03,0.67
1697353495.37,0.2,0.33,1.04,2.3,-2.2,9.3,0.74,0.07,-0.03,0.67
1697353495.38,0.23,0.25,0.96,2.9,-3.4,9.6,0.74,0.07,-0.03,0.67
1697353495.39,0.31,0.09,0.95,2.4,-4.6,8.9,0.74,0.07,-0.03,0.67
1697353495.4,0.2,0.19,1.04,0.8,-4.9,8.2,0.74,0.07,-0.03,0.67
1697353495.41,0.24,0.06,1.01,-1.6,-4.5,8.1,0.74,0.07,-0.03,0.67
1697353495.42,0.13,0.12,1.11,-3.6,-2.9,7.5,0.74,0.07,-0.03,0.67
1697353495.43,0.18,0.33,0.76,-2.2,-0.6,7.8,0.74,0.07,-0.03,0.67
1697353495.44,0.03,0.27,0.91,0.9,1.8,7.7,0.74,0.07,-0.03,0.67
1697353495.45,0.14,0.13,0.86,1.5,3.8,7.8,0.73,0.07,-0.03,0.67
1697353495.46,0.16,-0.03,0.77,1.6,4.1,7.6,0.73,0.07,-0.03,0.67
1697353495.47,0.18,0.08,0.92,0.4,5.2,6.9,0.73,0.07,-0.03,0.67
1697353495.48,0.21,0.1,1.2,-1.4,5.1,6.7,0.73,0.07,-0.03,0.68
1697353495.49,0.24,0.21,1.09,-1.3,5.3,6.2,0.73,0.07,-0.03,0.68
1697353495.5,0.23,0.24,1.17,0.2,4.3,5.8,0.73,0.07,-0.03,0.68
1697353495.51,0.27,0.14,1.17,2.3,3.1,5.9,0.73,0.07,-0.03,0.68
1697353495.52,0.24,0.07,0.97,3.7,1.3,6,0.73,0.07,-0.03,0.68
1697353495.53,0.28,-0.07,1.02,3.7,0,5.6,0.73,0.07,-0.03,0.68
1697353495.54,0.24,-0.05,0.98,0.5,-0.6,5.2,0.73,0.07,-0.03,0.68
1697353495.55,0.19,0.35,0.97,0.5,-0.6,5.2,0.73,0.07,-0.03,0.68
1697353495.56,0.13,0.28,0.86,-1.4,-2.5,4.8,0.73,0.07,-0.03,0.68
1697353495.57,0.13,0.28,0.86,-1.4,-2.5,4.8,0.73,0.07,-0.03,0.68
1697353495.58,0.13,0.28,0.86,-1.4,-2.5,4.8,0.73,0.07,-0.03,0.68
1697353495.59,0.13,0.28,0.86,-1.4,-2.5,4.8,0.73,0.07,-0.03,0.68
1697353495.6,0.13,0.28,0.86,-1.4,-2.5,4.8,0.73,0.07,-0.03,0.68
1697353495.61,0.13,0.28,0.86,-1.4,-2.5,4.8,0.73,0.07,-0.03,0.68
1697353495.62,0.13,0.28,0.86,-1.4,-2.5,4.8,0.73,0.07,-0.03,0.68
1697353495.63,0.13,0.28,0.86,-1.4,-2.5,4.8,0.73,0.07,-0.03,0.68
1697353495.64,0.13,0.28,0.86,-1.4,-2.5,4.8,0.73,0.07,-0.03,0.68
1697353495.65,0.13,0.28,0.86,-1.4,-2.5,4.8,0.73,0.07,-0.03,0.68
1697353495.66,0.13,0.28,0.86,-1.4,-2.5,4.8,0.73,0.07,-0.03,0.68
1697353495.67,0.13,0.28,0.86,-1.4,-2.5,4.8,0.73,0.07,-0.03,0.68
1697353495.68,0.13,0.28,0.86,-1.4,-2.5,4.8,0.73,0.07,-0.03,0.68
1697353495.69,0.13,0.28,0.86,-1.4,-2.5,4.8,0.73,0.07,-0.03,0.68
1697353495.7,0.15,0.04,0.83,-0.4,0.8,4.3,0.73,0.07,-0.03,0.68
1697353495.71,0.16,0.05,1.09,0.4,1.3,4.2,0.73,0.07,-0.03,0.68
1697353495.72,0.2,-0.01,0.92,1.1,1.6,3.8,0.73,0.07,-0.03,0.68
1697353495.73,0.27,0.05,0.77,0.7,1.3,3.4,0.73,0.07,-0.03,0.68
1697353495.74,0.32,0.04,1,0.9,0.8,2.8,0.73,0.07,-0.03,0.68
1697353495.75,0.35,0.02,0.85,1.1,-0.2,2.5,0.73,0.07,-0.03,0.68
1697353495.76,0.18,0.16,1.1,0.2,-1.6,2.2,0.73,0.07,-0.03,0.68
1697353495.77,-0.06,0.08,1.33,0.5,-2.7,2.1,0.73,0.07,-0.03,0.68
1697353495.78,0.08,-0,1.13,1,-2.3,2.2,0.73,0.07,-0.03,0.68
1697353495.79,0.18,0.07,0.72,-0.6,-1.6,2.3,0.73,0.07,-0.03,0.68
1697353495.8,0.01,-0.03,1.1,-1.9,-1,1.8,0.73,0.07,-0.03,0.68
1697353495.81,0.14,0.18,0.88,-3.1,-0.1,1.4,0.73,0.07,-0.03,0.68
1697353495.82,0.05,0.14,1.15,-3.5,0.4,2,0.73,0.07,-0.03,0.68
1697353495.83,0.1,0.13,1.13,-1.3,0.2,2.2,0.73,0.07,-0.03,0.68
1697353495.84,0.16,-0.09,1.01,1.9,0.2,1.6,0.73,0.07,-0.03,0.68
1697353495.85,0.23,-0.18,1.17,3.4,0.6,1.1,0.73,0.07,-0.03,0.68
1697353495.86,0.19,-0.17,0.94,0,0.3,-0.2,0.73,0.07,-0.03,0.68
1697353495.87,0.19,-0.17,0.94,0,0.3,-0.2,0.73,0.07,-0.03,0.68
1697353495.88,0.18,0.01,0.99,-0.6,-0.1,-0.9,0.73,0.07,-0.03,0.68
1697353495.89,0.18,0.01,0.99,-0.6,-0.1,-0.9,0.73,0.07,-0.03,0.68
1697353495.9,0.19,0.07,1.02,2.4,-0.8,0,0.73,0.07,-0.03,0.68
1697353495.91,0.11,-0.07,1,2.4,-0.8,0,0.73,0.07,-0.03,0.68
1697353495.92,0.11,-0.19,1.05,-0.9,-1,-0.4,0.73,0.07,-0.03,0.68
1697353495.93,0.24,-0.1,0.8,-0.9,-1,-0.4,0.73,0.07,-0.03,0.68
1697353495.94,0.17,-0.04,0.96,-3.1,0,-0.4,0.73,0.07,-0.03,0.68
1697353495.95,0.27,0.09,0.83,-0.6,0.5,-0.3,0.73,0.07,-0.03,0.68
1697353495.96,0.27,-0.03,0.72,1.9,0.4,-0.4,0.73,0.07,-0.03,0.68
1697353495.97,0.27,-0.03,0.72,1.9,0.4,-0.4,0.73,0.07,-0.03,0.68
1697353495.98,0.16,-0.2,1.08,1.7,-0.2,-1.6,0.73,0.07,-0.03,0.68
1697353495.99,0.18,-0.23,1.09,-0.3,-0.5,-2.3,0.73,0.07,-0.03,0.68
1697353496,0.01,-0.13,1.04,-0.3,-0.5,-2.3,0.73,0.07,-0.03,0.68
1697353496.01,0.01,-0.13,1.04,-0.9,-0.5,-2.8,0.73,0.07,-0.03,0.68
1697353496.02,0.04,0.01,1.11,-1.1,-0.4,-2.9,0.73,0.07,-0.03,0.68
1697353496.03,0.04,0.05,0.85,-0.8,0,-2.8,0.73,0.07,-0.03,0.68
1697353496.04,-0.08,-0.13,0.98,1,0.7,-2.5,0.73,0.07,-0.03,0.68
1697353496.05,0.01,-0.2,1.05,1.2,1.7,-2.4,0.73,0.07,-0.03,0.68
1697353496.06,-0.02,-0.16,0.77,-0.9,2.2,-2.5,0.73,0.07,-0.03,0.68
1697353496.07,-0.08,0.1,0.81,-3.4,3.4,-2.4,0.73,0.07,-0.03,0.68
1697353496.08,-0.11,0.13,1.04,-2.7,4.5,-2,0.73,0.07,-0.03,0.68
1697353496.09,-0.11,0.13,1.04,-2.7,4.5,-2,0.73,0.07,-0.03,0.68
1697353496.1,-0.11,0.13,1.04,-2.7,4.5,-2,0.73,0.07,-0.03,0.68
1697353496.11,-0.11,0.13,1.04,-2.7,4.5,-2,0.73,0.07,-0.03,0.68
1697353496.12,-0.11,0.13,1.04,-2.7,4.5,-2,0.73,0.07,-0.03,0.68
1697353496.13,-0.11,0.13,1.04,-2.7,4.5,-2,0.73,0.07,-0.03,0.68
1697353496.14,-0.11,0.13,1.04,-2.7,4.5,-2,0.73,0.07,-0.03,0.68
1697353496.15,-0.11,0.13,1.04,-2.7,4.5,-2,0.73,0.07,-0.03,0.68
1697353496.16,-0.11,0.13,1.04,-2.7,4.5,-2,0.73,0.07,-0.03,0.68
1697353496.17,-0.11,0.13,1.04,-2.7,4.5,-2,0.73,0.07,-0.03,0.68
1697353496.18,-0.11,0.13,1.04,-2.7,4.5,-2,0.73,0.07,-0.03,0.68
1697353496.19,-0.11,0.13,1.04,-2.7,4.5,-2,0.73,0.07,-0.03,0.68
1697353496.2,-0.11,0.13,1.04,-2.7,4.5,-2,0.73,0.07,-0.03,0.68
1697353496.21,0.17,0.04,0.61,-1.6,0.2,-1.9,0.73,0.06,-0.03,0.68
1697353496.22,-0.08,-0.1,1.38,1,-2.3,-1.6,0.73,0.06,-0.03,0.68
1697353496.23,-0.14,-0.32,1.23,3.1,-3.5,-1.8,0.73,0.06,-0.03,0.68
1697353496.24,-0.05,-0.24,0.65,-1.2,-2.4,-1.3,0.73,0.06,-0.03,0.68
1697353496.25,-0.1,-0.08,0.83,-1.9,-1.4,-1.9,0.73,0.06,-0.03,0.68
1697353496.26,-0.11,-0.22,1.21,-1.5,-0.3,-2.6,0.73,0.06,-0.03,0.68
1697353496.27,-0.12,-0.05,1,-1.5,-0.3,-2.6,0.73,0.06,-0.03,0.68
1697353496.28,-0.06,-0.03,1.05,0.2,0.6,-2.6,0.73,0.06,-0.03,0.68
1697353496.29,-0.06,-0.03,1.05,0.2,0.6,-2.6,0.73,0.06,-0.03,0.68
1697353496.3,-0.09,-0.31,0.93,-0.9,0.7,-4.3,0.73,0.06,-0.03,0.68
1697353496.31,-0.17,-0.17,1.42,-0.9,0.7,-4.3,0.73,0.06,-0.03,0.68
1697353496.32,-0.16,-0.05,0.81,-4.1,0.1,-4.9,0.73,0.06,-0.03,0.68
1697353496.33,-0.16,-0.05,0.81,-4.1,0.1,-4.9,0.73,0.06,-0.03,0.68
1697353496.34,-0.16,-0.04,0.8,-2.6,0,-4.8,0.73,0.06,-0.03,0.68
1697353496.35,-0.16,-0.04,0.8,-1.9,0,-4.7,0.73,0.06,-0.03,0.68
1697353496.36,-0.4,-0.18,1.09,2.2,0.8,-5,0.73,0.06,-0.03,0.68
1697353496.37,-0.26,-0.1,0.98,1.1,0.9,-4.3,0.73,0.06,-0.03,0.68
1697353496.38,-0.09,-0.36,0.79,-0.7,0.7,-4.3,0.73,0.06,-0.03,0.68
1697353496.39,-0.02,-0.18,0.76,-2.6,0,-4.6,0.73,0.06,-0.03,0.68
1697353496.4,0.01,-0.06,0.82,-1.3,-0.2,-4.1,0.73,0.06,-0.03,0.68
1697353496.41,-0.03,-0.06,0.79,0.3,-0.3,-3.6,0.73,0.06,-0.03,0.68
1697353496.42,-0.1,-0.11,1.02,2.6,0.2,-3.7,0.73,0.06,-0.03,0.68
1697353496.43,-0.1,-0.19,1.17,1.6,0.3,-3.9,0.73,0.06,-0.03,0.68
1697353496.44,-0.17,-0.3,1.25,-2.3,0.4,-4,0.73,0.06,-0.03,0.68
1697353496.45,0.04,-0.07,0.84,-5.3,0.6,-4,0.73,0.06,-0.03,0.68
1697353496.46,-0.12,0.19,1.14,-2.6,0.5,-3.5,0.73,0.06,-0.03,0.68
1697353496.47,-0.13,-0.01,1.26,0.1,-0.4,-3.3,0.73,0.06,-0.03,0.68
1697353496.48,-0.13,-0.01,1.26,1.6,-0.3,-3.4,0.73,0.06,-0.03,0.67
1697353496.49,-0.24,-0.09,1.19,1.4,0.1,-3.2,0.74,0.06,-0.03,0.67
1697353496.5,-0.24,-0.09,1.19,1.4,0.1,-3.2,0.74,0.06,-0.03,0.67
1697353496.51,0.05,-0.14,0.7,-0.9,0.5,-3.3,0.74,0.06,-0.03,0.67
1697353496.52,0.05,-0.14,0.7,-2.7,0.3,-3.9,0.74,0.06,-0.03,0.67
1697353496.53,-0.04,0.08,0.83,-2.9,0.2,-3.8,0.74,0.06,-0.03,0.67
1697353496.54,0.05,0.04,1.03,-2.9,0.2,-3.8,0.74,0.06,-0.03,0.67
1697353496.55,-0.05,-0.16,0.78,2.5,0.4,-2.6,0.74,0.06,-0.03,0.67
1697353496.56,-0.05,-0.16,0.78,2.5,0.4,-2.6,0.74,0.06,-0.03,0.67
1697353496.57,-0.12,-0.03,1.09,-1.9,-0.3,-2,0.74,0.06,-0.03,0.67
1697353496.58,-0.11,-0,1.03,-1.9,-0.3,-2,0.74,0.06,-0.03,0.67
1697353496.59,-0.23,-0.02,1.14,-0.8,-0.5,-1.1,0.74,0.06,-0.03,0.67
1697353496.6,-0.23,-0.02,1.14,-0.8,-0.5,-1.1,0.74,0.06,-0.03,0.67
1697353496.61,-0.23,-0.02,1.14,-0.8,-0.5,-1.1,0.74,0.06,-0.03,0.67
1697353496.62,-0.23,-0.02,1.14,-0.8,-0.5,-1.1,0.74,0.06,-0.03,0.67
1697353496.63,-0.23,-0.02,1.14,-0.8,-0.5,-1.1,0.74,0.06,-0.03,0.67
1697353496.64,-0.23,-0.02,1.14,-0.8,-0.5,-1.1,0.74,0.06,-0.03,0.67
1697353496.65,-0.23,-0.02,1.14,-0.8,-0.5,-1.1,0.74,0.06,-0.03,0.67
1697353496.66,-0.23,-0.02,1.14,-0.8,-0.5,-1.1,0.74,0.06,-0.03,0.67
1697353496.67,-0.23,-0.02,1.14,-0.8,-0.5,-1.1,0.74,0.06,-0.03,0.67
1697353496.68,-0.23,-0.02,1.14,-0.8,-0.5,-1.1,0.74,0.06,-0.03,0.67
1697353496.69,-0.23,-0.02,1.14,-0.8,-0.5,-1.1,0.74,0.06,-0.03,0.67
1697353496.7,-0.23,-0.02,1.14,-0.8,-0.5,-1.1,0.74,0.06,-0.03,0.67
1697353496.71,-0.23,-0.02,1.14,-0.8,-0.5,-1.1,0.74,0.06,-0.03,0.67
1697353496.72,-0.23,-0.02,1.14,-0.8,-0.5,-1.1,0.74,0.06,-0.03,0.67
1697353496.73,-0.23,-0.02,1.14,-0.8,-0.5,-1.1,0.74,0.06,-0.03,0.67
1697353496.74,-0.23,-0.02,1.14,-0.8,-0.5,-1.1,0.74,0.06,-0.03,0.67
1697353496.75,-0.23,-0.02,1.14,-0.8,-0.5,-1.1,0.74,0.06,-0.03,0.67
1697353496.76,-0.23,-0.02,1.14,-0.8,-0.5,-1.1,0.74,0.06,-0.03,0.67
1697353496.77,-0.23,-0.02,1.14,-0.8,-0.5,-1.1,0.74,0.06,-0.03,0.67
1697353496.78,-0.23,-0.02,1.14,-0.8,-0.5,-1.1,0.74,0.06,-0.03,0.67
1697353496.79,-0.23,-0.02,1.14,-0.8,-0.5,-1.1,0.74,0.06,-0.03,0.67
1697353496.8,-0.23,-0.02,1.14,-0.8,-0.5,-1.1,0.74,0.06,-0.03,0.67
1697353496.81,-0.23,-0.02,1.14,-0.8,-0.5,-1.1,0.74,0.06,-0.03,0.67
1697353496.82,-0.23,-0.02,1.14,-0.8,-0.5,-1.1,0.74,0.06,-0.03,0.67
1697353496.83,-0.23,-0.02,1.14,-0.8,-0.5,-1.1,0.74,0.06,-0.03,0.67
1697353496.84,-0.23,-0.02,1.14,-0.8,-0.5,-1.1,0.74,0.06,-0.03,0.67
1697353496.85,-0.23,-0.02,1.14,-0.8,-0.5,-1.1,0.74,0.06,-0.03,0.67
1697353496.86,-0.23,-0.02,1.14,-0.8,-0.5,-1.1,0.74,0.06,-0.03,0.67
1697353496.87,-0.14,0.12,1.17,-0.8,-0.5,-1.1,0.74,0.06,-0.03,0.67
1697353496.88,-0.14,0.29,1,-0.3,-1.9,4.3,0.74,0.06,-0.03,0.67
1697353496.89,-0.11,0.09,0.92,3.3,-1.3,4.7,0.74,0.06,-0.03,0.67
1697353496.9,-0.19,-0.16,1.02,5.3,-0.1,4.3,0.74,0.06,-0.03,0.67
1697353496.91,-0.03,-0.07,1.11,1.6,1.1,3.7,0.74,0.06,-0.03,0.67
1697353496.92,-0.12,0.08,1.12,1.6,1.1,3.7,0.74,0.06,-0.03,0.67
1697353496.93,-0.18,0.32,1.2,-3.4,2.3,3.4,0.73,0.06,-0.03,0.67
1697353496.94,-0.18,0.32,1.2,-3.4,2.3,3.4,0.73,0.06,-0.03,0.68
1697353496.95,-0.16,0.31,1.2,-1,2.3,4.1,0.73,0.06,-0.03,0.68
1697353496.96,-0.17,0.14,1.19,2.1,1.7,5.2,0.73,0.06,-0.02,0.68
1697353496.97,-0.19,0.07,0.74,2.4,1.1,5.3,0.73,0.06,-0.02,0.68
1697353496.98,-0.09,0.1,0.82,0.4,1.2,5.1,0.73,0.06,-0.02,0.68
1697353496.99,-0.09,0.18,0.94,-1.5,1.3,4.8,0.73,0.06,-0.02,0.68
1697353497,-0.14,0.27,0.71,-2.1,1.3,4.9,0.73,0.06,-0.02,0.68
1697353497.01,-0.14,0.41,0.98,-1.2,1.4,5.6,0.73,0.06,-0.02,0.68
1697353497.02,-0.04,0.27,0.9,2.1,1.7,6.6,0.73,0.06,-0.02,0.68
1697353497.03,0.01,0.12,0.92,3.1,1.9,8.1,0.73,0.06,-0.02,0.68
1697353497.04,-0.04,0.18,1.1,1.3,1,9,0.73,0.06,-0.02,0.68
1697353497.05,-0.15,0.16,1.33,-1.2,0.5,10.1,0.73,0.06,-0.02,0.68
1697353497.06,-0.24,0.28,1.27,-1.1,0.1,11.2,0.73,0.06,-0.02,0.68
1697353497.07,-0.12,0.45,1.1,1.2,0,12.5,0.73,0.06,-0.02,0.68
1697353497.08,0.02,0.46,1.04,1.9,-0.1,12.8,0.73,0.06,-0.02,0.68
1697353497.09,-0.09,0.29,1.03,3.6,-0.2,13.8,0.73,0.06,-0.02,0.68
1697353497.1,-0.06,0.22,1.03,4.3,0,14.2,0.73,0.06,-0.02,0.68
1697353497.11,-0.09,0.2,1.07,2.6,0,14.3,0.73,0.06,-0.02,0.69
1697353497.12,-0.1,0.26,1.03,0,-0.1,13.8,0.72,0.06,-0.02,0.69
1697353497.13,-0.12,0.56,1.06,-2.5,0,13.3,0.72,0.06,-0.02,0.69
1697353497.14,-0.21,0.65,0.9,-1.5,-0.1,13.8,0.72,0.06,-0.02,0.69
1697353497.15,-0.21,0.65,0.9,-1.5,-0.1,13.8,0.72,0.06,-0.02,0.69
1697353497.16,-0.21,0.38,0.91,3.8,0.8,14.7,0.72,0.06,-0.02,0.69
1697353497.17,-0.21,0.38,0.91,3.8,0.8,14.7,0.72,0.06,-0.02,0.69
1697353497.18,-0.1,0.41,0.91,0,0.3,16,0.72,0.06,-0.02,0.69
1697353497.19,-0.1,0.41,0.91,0,0.3,16,0.72,0.06,-0.02,0.69
1697353497.2,-0.15,0.54,1.32,0.2,0.1,18.5,0.72,0.06,-0.02,0.69
1697353497.21,-0.06,0.6,0.74,0.2,0.1,18.5,0.72,0.06,-0.02,0.69
1697353497.22,-0.06,0.6,0.74,1.2,-0.3,20.1,0.72,0.06,-0.02,0.7
1697353497.23,-0.15,0.48,1.25,2.6,-0.5,22.8,0.71,0.06,-0.02,0.7
1697353497.24,-0.05,0.44,0.9,0.9,-0.6,23.5,0.71,0.06,-0.02,0.7
1697353497.25,-0.13,0.52,0.99,0.9,-0.6,23.5,0.71,0.06,-0.02,0.7
1697353497.26,-0.13,0.52,0.99,-0.2,-0.4,24.1,0.71,0.06,-0.02,0.7
1697353497.27,-0.13,0.52,0.99,-0.2,-0.4,24.1,0.71,0.06,-0.02,0.7
1697353497.28,-0.13,0.52,0.99,-0.2,-0.4,24.1,0.71,0.06,-0.02,0.7
1697353497.29,-0.13,0.52,0.99,-0.2,-0.4,24.1,0.71,0.06,-0.02,0.7
1697353497.3,-0.13,0.52,0.99,-0.2,-0.4,24.1,0.71,0.06,-0.02,0.7
1697353497.31,-0.13,0.52,0.99,-0.2,-0.4,24.1,0.71,0.06,-0.02,0.7
1697353497.32,-0.13,0.52,0.99,-0.2,-0.4,24.1,0.71,0.06,-0.02,0.7
1697353497.33,-0.13,0.52,0.99,-0.2,-0.4,24.1,0.71,0.06,-0.02,0.7
1697353497.34,-0.13,0.52,0.99,-0.2,-0.4,24.1,0.71,0.06,-0.02,0.7
1697353497.35,-0.13,0.52,0.99,-0.2,-0.4,24.1,0.71,0.06,-0.02,0.7
1697353497.36,-0.13,0.52,0.99,-0.2,-0.4,24.1,0.71,0.06,-0.02,0.7
1697353497.37,-0.13,0.52,0.99,-0.2,-0.4,24.1,0.71,0.06,-0.02,0.7
1697353497.38,-0.13,0.52,0.99,-0.2,-0.4,24.1,0.71,0.06,-0.02,0.7
1697353497.39,-0.03,0.54,0.78,0.6,-0.2,23.2,0.69,0.06,-0.02,0.72
1697353497.4,-0.06,0.49,0.99,0.9,-0.4,23,0.69,0.06,-0.03,0.72
1697353497.41,-0.05,0.46,0.87,-0.2,-0.3,22.8,0.69,0.06,-0.03,0.72
1697353497.42,-0.16,0.38,1.06,-0.7,-0.1,22.9,0.69,0.06,-0.03,0.73
1697353497.43,-0.11,0.5,0.93,-2.3,0.2,22.6,0.68,0.06,-0.03,0.73
1697353497.44,-0.11,0.61,0.97,-1.4,1.1,22.6,0.68,0.06,-0.03,0.73
1697353497.45,-0.02,0.53,0.9,-0.2,1.5,22.7,0.68,0.06,-0.03,0.73
1697353497.46,-0.18,0.45,1.11,0.6,1.1,22.4,0.68,0.06,-0.03,0.73
1697353497.47,-0.11,0.33,1.21,0.8,0.7,21.6,0.68,0.06,-0.03,0.73
1697353497.48,-0.09,0.33,1.07,0,0.2,20.9,0.68,0.06,-0.03,0.73
1697353497.49,-0.13,0.34,1.09,-3.4,-0.7,20.2,0.68,0.06,-0.03,0.73
1697353497.5,-0.13,0.45,0.94,-4,-1.4,19.4,0.68,0.06,-0.03,0.73
1697353497.51,-0.06,0.43,0.92,-2.3,-1.3,19.1,0.67,0.06,-0.03,0.74
1697353497.52,-0.14,0.48,0.9,0,-0.5,18.4,0.67,0.06,-0.03,0.74
1697353497.53,-0.09,0.43,0.77,1.2,0,18.4,0.67,0.06,-0.03,0.74
1697353497.54,-0.17,0.32,1.33,0.5,0.1,18.5,0.67,0.06,-0.03,0.74
1697353497.55,-0.07,0.36,0.88,-2,-0.5,18.5,0.67,0.06,-0.03,0.74
1697353497.56,-0.11,0.46,1.32,-3.2,-1.3,19.1,0.67,0.06,-0.03,0.74
1697353497.57,-0.11,0.46,1.32,-3.2,-1.3,19.1,0.67,0.06,-0.03,0.74
1697353497.58,-0.12,0.64,1.12,0.9,-1.7,21.2,0.67,0.06,-0.03,0.74
1697353497.59,-0.12,0.44,0.9,3.6,-1.5,22,0.66,0.06,-0.03,0.74
1697353497.6,-0.12,0.44,0.9,3.6,-1.5,22,0.66,0.06,-0.03,0.75
1697353497.61,-0.08,0.3,0.93,3.3,-1.3,22.3,0.66,0.06,-0.03,0.75
1697353497.62,-0.17,0.32,0.91,1.9,-1.2,22.4,0.66,0.06,-0.03,0.75
1697353497.63,-0.15,0.55,0.97,-2.4,-0.8,22.5,0.66,0.06,-0.03,0.75
1697353497.64,-0.12,0.79,0.82,-3.1,-0.7,22.7,0.66,0.06,-0.03,0.75
1697353497.65,-0.09,0.6,0.84,-0.3,-1.1,23.4,0.66,0.06,-0.03,0.75
1697353497.66,-0.09,0.67,1,1.9,-1,23.8,0.65,0.06,-0.03,0.75
1697353497.67,-0.14,0.61,1,2.8,-0.5,24.5,0.65,0.06,-0.03,0.75
1697353497.68,-0.08,0.55,1.05,0.9,-0.2,25.7,0.65,0.06,-0.03,0.76
1697353497.69,-0.08,0.52,1.26,-0.6,-0.4,25.9,0.65,0.06,-0.03,0.76
1697353497.7,-0.13,0.59,0.97,-2.1,-0.2,26.5,0.65,0.06,-0.03,0.76
1697353497.71,-0.19,0.75,1.21,-1.5,-0.1,27.4,0.64,0.06,-0.03,0.76
1697353497.72,-0.1,0.74,1.08,1.6,-0.3,28,0.64,0.06,-0.03,0.76
1697353497.73,-0.08,0.6,1.08,3.3,-0.9,28,0.64,0.06,-0.03,0.76
1697353497.74,-0.2,0.46,1.27,2.3,-1.5,28.1,0.64,0.06,-0.03,0.77
1697353497.75,-0.17,0.49,0.99,-0.2,-1.9,27.8,0.64,0.06,-0.03,0.77
1697353497.76,-0.07,0.5,0.91,-3.1,-2.2,27.3,0.64,0.06,-0.03,0.77
1697353497.77,-0.17,0.61,0.92,-2.8,-2.1,27.2,0.63,0.06,-0.03,0.77
1697353497.78,-0.17,0.61,0.92,-2.8,-2.1,27.2,0.63,0.06,-0.03,0.77
1697353497.79,-0.17,0.61,0.92,-2.8,-2.1,27.2,0.63,0.06,-0.03,0.77
1697353497.8,-0.17,0.61,0.92,-2.8,-2.1,27.2,0.63,0.06,-0.03,0.77
1697353497.81,-0.17,0.61,0.92,-2.8,-2.1,27.2,0.63,0.06,-0.03,0.77
1697353497.82,-0.17,0.61,0.92,-2.8,-2.1,27.2,0.63,0.06,-0.03,0.77
1697353497.83,-0.17,0.61,0.92,-2.8,-2.1,27.2,0.63,0.06,-0.03,0.77
1697353497.84,-0.17,0.61,0.92,-2.8,-2.1,27.2,0.63,0.06,-0.03,0.77
1697353497.85,-0.17,0.61,0.92,-2.8,-2.1,27.2,0.63,0.06,-0.03,0.77
1697353497.86,-0.17,0.61,0.92,-2.8,-2.1,27.2,0.63,0.06,-0.03,0.77
1697353497.87,-0.17,0.61,0.92,-2.8,-2.1,27.2,0.63,0.06,-0.03,0.77
1697353497.88,-0.17,0.61,0.92,-2.8,-2.1,27.2,0.63,0.06,-0.03,0.77
1697353497.89,-0.17,0.61,0.92,-2.8,-2.1,27.2,0.63,0.06,-0.03,0.77
1697353497.9,-0.07,0.53,0.94,-2.8,-2.1,27.2,0.61,0.06,-0.03,0.79
1697353497.91,-0.12,0.25,1.22,-1.9,-0.4,27,0.61,0.06,-0.03,0.79
1697353497.92,0.03,0.53,0.86,-1.9,-0.4,27,0.61,0.06,-0.03,0.79
1697353497.93,-0.11,0.67,1.21,-6.1,-1.1,25.8,0.6,0.06,-0.03,0.79
1697353497.94,-0.11,0.67,1.21,-6.8,-1,24.6,0.6,0.06,-0.03,0.8
1697353497.95,-0.1,0.54,0.9,-1,-1.2,23.1,0.6,0.06,-0.03,0.8
1697353497.96,-0.14,0.3,1.05,4,-1.3,21.6,0.6,0.06,-0.03,0.8
1697353497.97,-0,0.14,0.72,5.9,-0.9,19.5,0.6,0.06,-0.03,0.8
1697353497.98,-0.04,-0.06,1,4.4,-0.7,17.4,0.6,0.06,-0.03,0.8
1697353497.99,-0.09,-0.03,0.6,1.1,-0.7,15.1,0.6,0.06,-0.03,0.8
1697353498,-0.15,0.27,1.08,-3.4,-0.1,13.5,0.59,0.06,-0.03,0.8
1697353498.01,-0.08,0.4,0.91,-3.3,0.1,12.5,0.59,0.06,-0.03,0.8
1697353498.02,-0.06,0.27,1.01,0,0,12.3,0.59,0.06,-0.03,0.8
1697353498.03,-0.15,0.05,0.92,1.1,0.4,12.2,0.59,0.06,-0.03,0.8
1697353498.04,-0.13,-0.08,1.16,0,0.6,11.5,0.59,0.06,-0.03,0.8
1697353498.05,-0.09,-0.11,0.98,-3.5,0.8,10.5,0.59,0.06,-0.03,0.8
1697353498.06,-0.12,-0.1,1.21,-5.7,1.2,8.4,0.59,0.06,-0.04,0.81
1697353498.07,-0.04,-0.11,0.98,-5.7,1.2,8.4,0.59,0.06,-0.04,0.81
1697353498.08,-0.07,-0.26,1.08,-3.5,1.2,4.1,0.59,0.06,-0.04,0.81
1697353498.09,-0.18,-0.43,1.04,-2.3,0.9,1.4,0.59,0.05,-0.04,0.81
1697353498.1,-0.03,-0.49,1.08,-2.4,0.8,-1.8,0.59,0.05,-0.04,0.81
1697353498.11,-0.05,-0.61,1.02,-3.4,0.7,-5.3,0.59,0.05,-0.04,0.81
1697353498.12,-0.13,-0.7,1.03,-3.4,0.7,-5.3,0.59,0.05,-0.04,0.81
1697353498.13,-0.18,-0.75,1.16,-7.8,0.4,-12.3,0.59,0.05,-0.04,0.81
1697353498.14,-0.13,-0.57,1.27,-8,-0.4,-17,0.59,0.05,-0.04,0.8
1697353498.15,-0.14,-0.66,1.26,-8,-0.4,-17,0.59,0.05,-0.04,0.8
1697353498.16,-0.15,-0.72,1.1,-7,-0.8,-19.7,0.59,0.05,-0.04,0.8
1697353498.17,-0.17,-0.9,0.99,-6.4,-1.3,-22.5,0.59,0.05,-0.04,0.8
1697353498.18,-0.21,-1.12,1.03,-6.8,-2,-25.5,0.6,0.05,-0.04,0.8
1697353498.19,-0.21,-1.01,0.99,-8.7,-2.1,-28.8,0.6,0.05,-0.04,0.8
1697353498.2,-0.21,-1.01,0.99,-10.4,-2.1,-31.6,0.6,0.05,-0.04,0.8
1697353498.21,-0.23,-0.93,0.95,-10.5,-1.9,-33.5,0.6,0.05,-0.04,0.8
1697353498.22,-0.23,-0.93,0.95,-8.6,-1.4,-35.3,0.6,0.05,-0.04,0.8
1697353498.23,-0.12,-1.11,1.01,-5.1,-0.7,-37.2,0.61,0.05,-0.04,0.79
1697353498.24,-0.17,-1.19,0.77,-3.4,-0.2,-38.9,0.61,0.05,-0.04,0.79
1697353498.25,-0.25,-1.23,1.15,-3.4,0.7,-40.6,0.61,0.05,-0.04,0.79
1697353498.26,-0.25,-1.23,1.15,-4.2,1.2,-43,0.61,0.05,-0.04,0.79
1697353498.27,-0.05,-1.16,0.86,-6.1,1.1,-45.2,0.62,0.05,-0.04,0.78
1697353498.28,-0.05,-1.16,0.86,-7.3,1.9,-47.2,0.62,0.05,-0.04,0.78
1697353498.29,-0.15,-1.26,0.86,-7.6,2.2,-49.4,0.62,0.05,-0.04,0.78
1697353498.3,-0.15,-1.26,0.86,-7.6,2.2,-49.4,0.62,0.05,-0.04,0.78
1697353498.31,-0.15,-1.26,0.86,-7.6,2.2,-49.4,0.62,0.05,-0.04,0.78
1697353498.32,-0.15,-1.26,0.86,-7.6,2.2,-49.4,0.62,0.05,-0.04,0.78
1697353498.33,-0.15,-1.26,0.86,-7.6,2.2,-49.4,0.62,0.05,-0.04,0.78
1697353498.34,-0.15,-1.26,0.86,-7.6,2.2,-49.4,0.62,0.05,-0.04,0.78
1697353498.35,-0.15,-1.26,0.86,-7.6,2.2,-49.4,0.62,0.05,-0.04,0.78
1697353498.36,-0.15,-1.26,0.86,-7.6,2.2,-49.4,0.62,0.05,-0.04,0.78
1697353498.37,-0.15,-1.26,0.86,-7.6,2.2,-49.4,0.62,0.05,-0.04,0.78
1697353498.38,-0.15,-1.26,0.86,-7.6,2.2,-49.4,0.62,0.05,-0.04,0.78
1697353498.39,-0.15,-1.26,0.86,-7.6,2.2,-49.4,0.62,0.05,-0.04,0.78
1697353498.4,-0.15,-1.26,0.86,-7.6,2.2,-49.4,0.62,0.05,-0.04,0.78
1697353498.41,-0.15,-1.26,0.86,-7.6,2.2,-49.4,0.62,0.05,-0.04,0.78
1697353498.42,-0.3,-1.46,1.23,-0.7,0.5,-65.8,0.62,0.05,-0.04,0.78
1697353498.43,-0.12,-1.3,0.71,-3,0.5,-66.9,0.68,0.05,-0.04,0.73
1697353498.44,-0.32,-1.23,1.12,-3,0.5,-66.9,0.69,0.05,-0.04,0.72
1697353498.45,-0.33,-1.27,1.13,-4.4,1.2,-66,0.69,0.05,-0.04,0.72
1697353498.46,-0.24,-1.42,0.94,-3.8,2.1,-65.4,0.69,0.05,-0.04,0.72
1697353498.47,-0.23,-1.34,1,-1.3,3.3,-65.1,0.7,0.05,-0.04,0.71
1697353498.48,-0.33,-1.43,1.38,-0.4,3.5,-64.8,0.7,0.05,-0.04,0.71
1697353498.49,-0.28,-1.48,0.84,-0.3,3.9,-65,0.71,0.05,-0.04,0.71
1697353498.5,-0.34,-1.32,1.5,0.4,4,-65.1,0.71,0.05,-0.04,0.7
1697353498.51,-0.22,-1.56,1.16,0.1,3.3,-66,0.71,0.05,-0.04,0.7
1697353498.52,-0.06,-1.54,0.58,-0.5,3.1,-66.7,0.72,0.05,-0.04,0.69
1697353498.53,-0.26,-1.42,1.01,-2.1,2.7,-67.2,0.72,0.05,-0.04,0.69
1697353498.54,-0.15,-1.23,1.1,-1.6,2,-67.9,0.73,0.05,-0.04,0.68
1697353498.55,-0.22,-1.32,1.16,-0.4,1.3,-69,0.73,0.05,-0.04,0.68
1697353498.56,-0.24,-1.43,0.68,1.4,0.2,-69.2,0.73,0.05,-0.04,0.68
1697353498.57,-0.33,-1.23,1.14,2.2,-0.5,-69.6,0.74,0.05,-0.03,0.67
1697353498.58,-0.27,-1.28,0.67,0.6,-0.7,-70.3,0.74,0.05,-0.03,0.67
1697353498.59,-0.29,-1.23,1.13,0,-1.2,-70.4,0.75,0.05,-0.03,0.66
1697353498.6,-0.29,-1.23,1.13,0,-1.2,-70.4,0.75,0.05,-0.03,0.66
1697353498.61,-0.31,-1.22,0.93,0.9,0.6,-67.8,0.76,0.05,-0.03,0.65
1697353498.62,-0.31,-1.22,0.93,3.1,2.4,-66.6,0.76,0.05,-0.03,0.65
1697353498.63,-0.25,-1.44,0.89,2.9,3.5,-65.3,0.76,0.05,-0.03,0.64
1697353498.64,-0.25,-1.44,0.89,1.8,4.4,-64.8,0.76,0.05,-0.03,0.64
1697353498.65,-0.23,-1.39,0.96,0.3,4.2,-65.1,0.77,0.05,-0.03,0.64
1697353498.66,-0.23,-1.39,0.96,-0.4,4.4,-65.3,0.77,0.05,-0.03,0.64
1697353498.67,-0.18,-1.38,0.93,-0.4,3.9,-65.9,0.77,0.05,-0.03,0.63
1697353498.68,-0.17,-1.33,1.17,0,3.3,-66.6,0.78,0.05,-0.03,0.63
1697353498.69,-0.18,-1.42,0.9,0.3,2.9,-67.1,0.78,0.05,-0.03,0.62
1697353498.7,-0.17,-1.2,0.84,1.2,2.6,-67.4,0.79,0.05,-0.03,0.62
1697353498.71,-0.19,-1.23,0.8,2.1,3,-66,0.79,0.05,-0.03,0.61
1697353498.72,-0.19,-1.23,0.8,2.1,3,-66,0.79,0.05,-0.03,0.61
1697353498.73,-0.34,-1.21,1.23,2.7,3.9,-63.9,0.8,0.05,-0.03,0.6
1697353498.74,-0.15,-1.2,0.55,2.5,4.8,-61.9,0.8,0.05,-0.03,0.6
1697353498.75,-0.24,-1.08,1.02,2,4.6,-60.7,0.8,0.05,-0.03,0.59
1697353498.76,-0.11,-0.95,0.87,3.9,4,-59.6,0.81,0.05,-0.02,0.59
1697353498.77,-0.17,-0.9,1.02,5.7,3.2,-57.7,0.81,0.05,-0.02,0.59
1697353498.78,-0.07,-0.81,0.98,7.6,2.1,-55.7,0.81,0.05,-0.02,0.58
1697353498.79,-0.03,-0.81,0.9,7.8,0.8,-52.8,0.81,0.05,-0.02,0.58
1697353498.8,-0.04,-0.62,1.06,6.5,-0.3,-49.3,0.82,0.05,-0.02,0.57
1697353498.81,-0.11,-0.44,0.96,6.5,-0.3,-49.3,0.82,0.05,-0.02,0.57
1697353498.82,-0.11,-0.44,0.96,6.5,-0.3,-49.3,0.82,0.05,-0.02,0.57
1697353498.83,-0.11,-0.44,0.96,6.5,-0.3,-49.3,0.82,0.05,-0.02,0.57
1697353498.84,-0.11,-0.44,0.96,6.5,-0.3,-49.3,0.82,0.05,-0.02,0.57
1697353498.85,-0.11,-0.44,0.96,6.5,-0.3,-49.3,0.82,0.05,-0.02,0.57
1697353498.86,-0.11,-0.44,0.96,6.5,-0.3,-49.3,0.82,0.05,-0.02,0.57
1697353498.87,-0.11,-0.44,0.96,6.5,-0.3,-49.3,0.82,0.05,-0.02,0.57
1697353498.88,-0.11,-0.44,0.96,6.5,-0.3,-49.3,0.82,0.05,-0.02,0.57
1697353498.89,-0.11,-0.44,0.96,6.5,-0.3,-49.3,0.82,0.05,-0.02,0.57
1697353498.9,-0.11,-0.44,0.96,6.5,-0.3,-49.3,0.82,0.05,-0.02,0.57
1697353498.91,-0.11,-0.44,0.96,6.5,-0.3,-49.3,0.82,0.05,-0.02,0.57
1697353498.92,-0.11,-0.44,0.96,6.5,-0.3,-49.3,0.82,0.05,-0.02,0.57
1697353498.93,-0.11,-0.44,0.96,6.5,-0.3,-49.3,0.82,0.05,-0.02,0.57
1697353498.94,-0.11,-0.44,0.96,6.5,-0.3,-49.3,0.82,0.05,-0.02,0.57
1697353498.95,0.04,0.91,0.55,9.9,0.5,8.6,0.83,0.06,-0.01,0.55
1697353498.96,-0.08,0.97,1.43,7.8,-0.2,10.8,0.83,0.06,-0.01,0.56
1697353498.97,-0.32,0.64,1.38,7.6,-1.9,14.6,0.83,0.06,-0.01,0.56
1697353498.98,-0.17,0.7,1.08,8.1,-3.6,17.9,0.83,0.06,-0.01,0.56
1697353498.99,-0.19,0.72,0.96,6.7,-4,19.5,0.83,0.06,-0.01,0.56
1697353499,-0.24,0.95,1.04,3,-4.1,21.3,0.82,0.06,-0.01,0.56
1697353499.01,-0.14,0.87,1.04,1.4,-3.6,23,0.82,0.07,-0.01,0.56
1697353499.02,-0.14,0.8,1.17,2.3,-2.8,24.8,0.82,0.07,-0.01,0.56
1697353499.03,-0.17,0.78,0.77,4.2,-1.6,27.5,0.82,0.07,-0.01,0.57
1697353499.04,-0.17,0.78,0.77,4.2,-1.6,27.5,0.82,0.07,-0.01,0.57
1697353499.05,-0.13,0.75,0.88,3.3,0.5,31,0.82,0.07,-0.01,0.57
1697353499.06,-0.01,0.75,0.8,1.8,0.9,32.1,0.82,0.07,-0.01,0.57
1697353499.07,-0.09,0.72,1.17,0.1,1.2,33.8,0.82,0.07,-0.01,0.57
1697353499.08,-0.06,0.66,1.01,0.1,1.2,33.8,0.81,0.07,-0.01,0.58
1697353499.09,-0.16,0.69,0.99,0.7,1.7,35,0.81,0.07,-0.01,0.58
1697353499.1,-0.16,0.69,0.99,0.5,1.2,35.8,0.81,0.07,-0.01,0.58
1697353499.11,-0.08,0.69,0.98,-1.8,0,36.4,0.81,0.07,-0.01,0.59
1697353499.12,-0.17,0.83,1.32,-1.8,0,36.8,0.81,0.07,-0.01,0.59
1697353499.13,-0.07,0.71,0.89,-1.3,0.4,36.5,0.8,0.07,-0.01,0.59
1697353499.14,-0.08,0.8,0.89,-0.5,1.3,36.4,0.8,0.07,-0.01,0.59
1697353499.15,-0.27,0.74,1.32,0,1.6,36.2,0.8,0.06,-0.01,0.6
1697353499.16,-0.17,0.74,1.09,0.4,1.4,36.1,0.8,0.06,-0.01,0.6
1697353499.17,-0.23,0.83,1.21,0.7,1.3,36.2,0.8,0.06,-0.01,0.6
1697353499.18,-0.06,0.83,0.8,1.2,1.3,37.1,0.79,0.06,-0.02,0.6
1697353499.19,-0.12,0.77,0.91,1.2,0.9,38,0.79,0.06,-0.02,0.61
1697353499.2,-0.11,0.91,1.06,1.1,0.4,39.5,0.79,0.06,-0.02,0.61
1697353499.21,-0.03,0.97,0.82,3.1,0,41.2,0.79,0.06,-0.02,0.61
1697353499.22,-0.03,0.78,0.96,5.4,-1.3,43.1,0.79,0.07,-0.02,0.62
1697353499.23,-0.03,0.78,0.96,5.4,-1.3,43.1,0.79,0.07,-0.02,0.61
1697353499.24,-0.04,0.71,0.98,5.4,-1.4,44.4,0.78,0.07,-0.02,0.62
1697353499.25,-0.24,0.72,1.16,3,-1.6,45.2,0.78,0.07,-0.02,0.62
1697353499.26,-0.15,0.75,1.1,-0.1,-1.7,45.5,0.78,0.07,-0.02,0.63
1697353499.27,-0.15,0.75,1.1,-0.1,-1.7,45.5,0.78,0.07,-0.02,0.63
1697353499.28,-0.06,1.07,1.09,-3.4,-1.4,46.2,0.77,0.07,-0.02,0.63
1697353499.29,-0.04,1.07,0.82,-3.4,-1.4,46.2,0.77,0.07,-0.02,0.63
1697353499.3,-0.03,1.08,1.1,-0.5,-1.6,47.6,0.77,0.07,-0.02,0.64
1697353499.31,0.06,0.87,1.28,-0.5,-1.6,47.6,0.77,0.07,-0.02,0.64
1697353499.32,0.06,0.87,1.28,1.9,-1.1,47.8,0.76,0.07,-0.02,0.64
1697353499.33,0.21,0.8,1.02,0,-0.5,46.6,0.76,0.07,-0.02,0.65
1697353499.34,0.21,0.8,1.02,0,-0.5,46.6,0.76,0.07,-0.02,0.65
1697353499.35,0.21,0.8,1.02,0,-0.5,46.6,0.76,0.07,-0.02,0.65
1697353499.36,0.21,0.8,1.02,0,-0.5,46.6,0.76,0.07,-0.02,0.65
1697353499.37,0.21,0.8,1.02,0,-0.5,46.6,0.76,0.07,-0.02,0.65
1697353499.38,0.21,0.8,1.02,0,-0.5,46.6,0.76,0.07,-0.02,0.65
1697353499.39,0.21,0.8,1.02,0,-0.5,46.6,0.76,0.07,-0.02,0.65
1697353499.4,0.21,0.8,1.02,0,-0.5,46.6,0.76,0.07,-0.02,0.65
1697353499.41,0.21,0.8,1.02,0,-0.5,46.6,0.76,0.07,-0.02,0.65
1697353499.42,0.21,0.8,1.02,0,-0.5,46.6,0.76,0.07,-0.02,0.65
1697353499.43,0.21,0.8,1.02,0,-0.5,46.6,0.76,0.07,-0.02,0.65
1697353499.44,0.21,0.8,1.02,0,-0.5,46.6,0.76,0.07,-0.02,0.65
1697353499.45,0.21,0.8,1.02,0,-0.5,46.6,0.76,0.07,-0.02,0.65
1697353499.46,0.02,0.83,1.02,3.7,2,49,0.72,0.06,-0.02,0.69
1697353499.47,0.07,0.55,0.84,1.3,0.3,47.5,0.72,0.06,-0.02,0.69
1697353499.48,-0.09,0.73,1.17,-2.7,-0.5,46.8,0.72,0.06,-0.02,0.7
1697353499.49,0.1,0.79,1.12,-2.9,-1.4,45.4,0.71,0.06,-0.02,0.7
1697353499.5,0.09,0.97,0.53,0,-1.9,44.5,0.71,0.06,-0.02,0.7
1697353499.51,-0.02,0.9,0.93,1.4,-1.7,43.8,0.71,0.06,-0.02,0.7
1697353499.52,0.09,0.74,0.62,1.1,-1.2,43.1,0.7,0.06,-0.02,0.71
1697353499.53,-0.02,0.9,1.11,0.1,0,43.3,0.7,0.06,-0.02,0.71
1697353499.54,-0.17,0.89,1.16,-1.5,0.8,43.9,0.7,0.06,-0.02,0.71
1697353499.55,-0.1,1.07,1.12,-0.8,1.8,44.7,0.7,0.06,-0.02,0.72
1697353499.56,-0.03,0.91,1.12,-0.1,2,46.3,0.69,0.06,-0.02,0.72
1697353499.57,-0.22,0.92,1.02,-1.4,2,47.5,0.69,0.06,-0.02,0.72
1697353499.58,-0.27,0.95,1.52,-1.6,2,48.5,0.69,0.06,-0.02,0.72
1697353499.59,-0.18,0.92,0.63,-1.4,1.6,49.3,0.68,0.06,-0.02,0.73
1697353499.6,0.07,0.84,0.92,-1.4,1.6,49.3,0.68,0.06,-0.02,0.73
1697353499.61,-0.1,0.85,0.73,-1.1,2,49.5,0.68,0.06,-0.02,0.73
1697353499.62,-0.2,0.92,1.18,-1.8,2.1,49.6,0.67,0.06,-0.02,0.74
1697353499.63,0.25,0.99,0.62,-0.9,2,49.5,0.67,0.06,-0.02,0.74
1697353499.64,-0.24,0.92,1.18,1.7,0.9,49,0.67,0.06,-0.02,0.74
1697353499.65,-0.09,0.95,1,4,0,49,0.66,0.06,-0.02,0.74
1697353499.66,0.01,0.63,0.82,3,-0.4,48.4,0.66,0.06,-0.02,0.75
1697353499.67,0.01,0.63,0.82,3,-0.4,48.4,0.66,0.06,-0.02,0.75
1697353499.68,-0.02,0.69,0.79,-4.5,-0.4,47.7,0.66,0.06,-0.03,0.75
1697353499.69,-0.3,1.09,1.2,-4.5,-0.4,47.7,0.66,0.06,-0.03,0.75
1697353499.7,-0.08,1.27,0.55,-6.8,0.6,47,0.65,0.06,-0.03,0.76
1697353499.71,-0.08,1.27,0.55,-6.8,0.6,47,0.65,0.06,-0.03,0.76
1697353499.72,-0.24,0.88,1.22,-1.6,2,47.4,0.64,0.06,-0.03,0.76
1697353499.73,-0.24,0.88,1.22,4.3,2.9,47.8,0.64,0.06,-0.03,0.76
1697353499.74,-0.11,0.52,1,3,2.6,47.3,0.64,0.06,-0.03,0.77
1697353499.75,-0.11,0.52,1,3,2.6,47.3,0.64,0.06,-0.03,0.77
1697353499.76,0.1,0.6,0.52,-6.7,1.6,45,0.63,0.06,-0.03,0.77
1697353499.77,0.1,0.6,0.52,-6.7,1.6,45,0.63,0.06,-0.03,0.77
1697353499.78,0.09,0.71,0.38,-8.6,0.3,43.1,0.63,0.06,-0.03,0.78
1697353499.79,0.09,0.71,0.38,-6.1,-0.5,41.3,0.62,0.06,-0.03,0.78
1697353499.8,-0.26,0.6,1.32,4.6,-0.6,36.3,0.62,0.06,-0.03,0.78
1697353499.81,0.07,0.38,0.64,5,0.3,33.5,0.62,0.06,-0.03,0.78
1697353499.82,-0.16,-0.06,1.31,0.5,1.1,30.1,0.62,0.06,-0.03,0.79
1697353499.83,-0.15,0.07,1.14,-5.8,1.4,27.4,0.61,0.06,-0.03,0.79
1697353499.84,-0.13,0.47,1.03,-7,1.5,27,0.61,0.06,-0.03,0.79
1697353499.85,-0.13,0.47,1.03,-7,1.5,27,0.61,0.06,-0.03,0.79
1697353499.86,-0.13,0.47,1.03,-7,1.5,27,0.61,0.06,-0.03,0.79
1697353499.87,-0.13,0.47,1.03,-7,1.5,27,0.61,0.06,-0.03,0.79
1697353499.88,-0.13,0.47,1.03,-7,1.5,27,0.61,0.06,-0.03,0.79
1697353499.89,-0.13,0.47,1.03,-7,1.5,27,0.61,0.06,-0.03,0.79
1697353499.9,-0.13,0.47,1.03,-7,1.5,27,0.61,0.06,-0.03,0.79
1697353499.91,-0.13,0.47,1.03,-7,1.5,27,0.61,0.06,-0.03,0.79
1697353499.92,-0.13,0.47,1.03,-7,1.5,27,0.61,0.06,-0.03,0.79
1697353499.93,-0.13,0.47,1.03,-7,1.5,27,0.61,0.06,-0.03,0.79
1697353499.94,-0.13,0.47,1.03,-7,1.5,27,0.61,0.06,-0.03,0.79
1697353499.95,-0.13,0.47,1.03,-7,1.5,27,0.61,0.06,-0.03,0.79
1697353499.96,-0.13,0.47,1.03,-7,1.5,27,0.61,0.06,-0.03,0.79
1697353499.97,-0.13,0.47,1.03,-0.5,-1.3,2.5,0.61,0.06,-0.03,0.79
1697353499.98,-0.35,-0.58,1.63,-9.9,-0.9,-5,0.6,0.05,-0.04,0.8
1697353499.99,-0.01,-0.57,0.85,-13.1,-0.1,-8.7,0.6,0.05,-0.04,0.8
1697353500,0.03,-0.67,0.66,-12,0.5,-12.7,0.6,0.05,-0.04,0.8
1697353500.01,-0.15,-0.72,1.31,-10.3,0.6,-16,0.6,0.05,-0.04,0.8
1697353500.02,-0.14,-0.97,0.74,-8.6,0.3,-19.2,0.6,0.05,-0.04,0.79
1697353500.03,0.14,-0.98,0.61,-8.5,0.6,-23,0.61,0.05,-0.04,0.79
1697353500.04,-0.06,-1.02,0.46,-9.5,-0.1,-27.9,0.61,0.05,-0.04,0.79
1697353500.05,-0.25,-1.01,1.39,-9.8,-1.3,-34.3,0.61,0.05,-0.04,0.79
1697353500.06,0.06,-0.88,0.73,-8,-1.3,-36.7,0.61,0.05,-0.04,0.79
1697353500.07,-0.23,-0.83,1.17,-5,-1.8,-38.3,0.62,0.05,-0.04,0.79
1697353500.08,-0.2,-0.93,1.19,-1.5,-1.9,-39.8,0.62,0.05,-0.04,0.79
1697353500.09,-0.2,-0.93,1.19,-1.5,-1.9,-39.8,0.62,0.05,-0.04,0.78
1697353500.1,-0.16,-1.16,0.87,-1.2,-1.8,-43.6,0.62,0.05,-0.04,0.78
1697353500.11,-0.17,-1.23,1.16,-4.4,-1.1,-45.3,0.62,0.05,-0.04,0.78
1697353500.12,-0.2,-1.16,1.03,-4.4,-1.1,-45.3,0.63,0.05,-0.04,0.78
1697353500.13,-0.2,-1.16,1.03,-6.5,-0.4,-46.6,0.63,0.05,-0.04,0.77
1697353500.14,-0.16,-0.91,0.94,-4.6,0.7,-47.7,0.63,0.05,-0.04,0.77
1697353500.15,-0.16,-0.91,0.94,-1.5,0.7,-48.1,0.64,0.05,-0.04,0.77
1697353500.16,-0.14,-0.88,1.08,-1.5,0.7,-48.1,0.64,0.05,-0.04,0.77
1697353500.17,0.06,-0.98,0.54,1.7,0.7,-48.7,0.64,0.05,-0.04,0.77
1697353500.18,-0.3,-1.21,1.36,3,0.6,-49.1,0.64,0.05,-0.04,0.76
1697353500.19,-0.11,-1.17,0.86,1.7,0.3,-50.4,0.65,0.05,-0.04,0.76
1697353500.2,-0.11,-1.17,0.86,1.7,0.3,-50.4,0.65,0.05,-0.04,0.76
1697353500.21,-0.11,-1.17,0.86,1.7,0.3,-50.4,0.65,0.05,-0.04,0.76
1697353500.22,-0.11,-1.17,0.86,1.7,0.3,-50.4,0.65,0.05,-0.04,0.76
1697353500.23,-0.11,-1.17,0.86,1.7,0.3,-50.4,0.65,0.05,-0.04,0.76
1697353500.24,-0.11,-1.17,0.86,1.7,0.3,-50.4,0.65,0.05,-0.04,0.76
1697353500.25,-0.11,-1.17,0.86,1.7,0.3,-50.4,0.65,0.05,-0.04,0.76
1697353500.26,-0.11,-1.17,0.86,1.7,0.3,-50.4,0.65,0.05,-0.04,0.76
1697353500.27,-0.11,-1.17,0.86,1.7,0.3,-50.4,0.65,0.05,-0.04,0.76
1697353500.28,-0.11,-1.17,0.86,1.7,0.3,-50.4,0.65,0.05,-0.04,0.76
1697353500.29,-0.11,-1.17,0.86,1.7,0.3,-50.4,0.65,0.05,-0.04,0.76
1697353500.3,-0.11,-1.17,0.86,1.7,0.3,-50.4,0.65,0.05,-0.04,0.76
1697353500.31,-0.24,-0.85,1.23,-0.1,2.5,-54.6,0.69,0.05,-0.04,0.72
1697353500.32,-0.2,-0.96,1.25,-0.1,2.5,-54.6,0.69,0.05,-0.04,0.72
1697353500.33,-0.11,-1.21,1,1.7,2.1,-56.2,0.7,0.05,-0.04,0.71
1697353500.34,0.02,-1.11,0.75,-1,1.8,-57.2,0.7,0.05,-0.04,0.71
1697353500.35,-0.17,-1.16,1.13,-2.9,1.1,-57.9,0.71,0.05,-0.04,0.7
1697353500.36,-0.21,-0.95,1.38,-3.3,0.7,-57.8,0.71,0.05,-0.04,0.7
1697353500.37,-0.01,-0.85,0.79,-1.2,0,-57.7,0.71,0.05,-0.04,0.7
1697353500.38,0.13,-0.89,0.83,1.9,-0.3,-57,0.71,0.05,-0.04,0.7
1697353500.39,-0.3,-0.97,1.47,3.2,0,-56.6,0.72,0.05,-0.03,0.69
1697353500.4,0.03,-1.09,0.72,2.4,-0.4,-56.1,0.72,0.05,-0.03,0.69
1697353500.41,-0.09,-1.08,1,2.3,-0.2,-56,0.73,0.05,-0.03,0.68
1697353500.42,-0.09,-1.08,1,2.3,-0.2,-56,0.73,0.05,-0.03,0.68
1697353500.43,0.04,-1.1,0.59,-1.8,0.6,-54.9,0.73,0.05,-0.03,0.68
1697353500.44,-0.08,-0.96,1.02,-2.9,1.9,-54.6,0.74,0.05,-0.03,0.67
1697353500.45,-0.35,-0.88,1.15,-2.9,1.9,-54.6,0.74,0.05,-0.03,0.67
1697353500.46,-0.35,-0.88,1.15,-1.6,3.3,-54.3,0.74,0.05,-0.03,0.67
1697353500.47,-0.18,-0.99,1.08,1,4,-54.5,0.75,0.05,-0.03,0.66
1697353500.48,-0.17,-1.05,1.29,1.4,3.9,-54.6,0.75,0.05,-0.03,0.66
1697353500.49,0.02,-1.14,0.96,1.5,4,-54.8,0.75,0.05,-0.03,0.66
1697353500.5,0,-1.08,1.05,0.4,2.9,-55.7,0.75,0.05,-0.03,0.65
1697353500.51,0.04,-1,0.95,-0.5,1.6,-56.5,0.76,0.05,-0.03,0.65
1697353500.52,0.12,-0.98,0.93,-1.1,0.3,-57.1,0.76,0.05,-0.03,0.65
1697353500.53,-0.13,-0.96,0.96,-0.7,-0.4,-57.5,0.76,0.05,-0.03,0.64
1697353500.54,0.12,-0.96,1,1,-1.4,-57.4,0.77,0.05,-0.03,0.64
1697353500.55,-0.19,-0.96,0.83,3.1,-1.6,-57.4,0.77,0.05,-0.03,0.63
1697353500.56,0.02,-1.1,0.49,2.9,-0.2,-56.8,0.77,0.05,-0.03,0.63
1697353500.57,-0.28,-1.17,1.39,0.2,0.6,-56.7,0.78,0.05,-0.03,0.63
1697353500.58,0.03,-0.98,0.58,-1.8,2,-56.3,0.78,0.05,-0.03,0.62
1697353500.59,-0.2,-0.88,1.13,-2.7,2.7,-55.1,0.78,0.05,-0.03,0.62
1697353500.6,-0.18,-0.86,0.91,-0.7,3.2,-54.5,0.79,0.05,-0.03,0.61
1697353500.61,0.16,-0.89,0.61,1.5,3.1,-54,0.79,0.05,-0.03,0.61
1697353500.62,-0.08,-1.07,1.19,2.3,2.2,-53.9,0.79,0.05,-0.03,0.61
1697353500.63,-0.01,-1.02,0.91,2.1,1.1,-54.3,0.8,0.05,-0.03,0.6
1697353500.64,-0.09,-1.08,1.31,0.9,-0.1,-54.6,0.8,0.05,-0.03,0.6
1697353500.65,0.12,-1.04,0.78,0.2,-0.7,-54.9,0.8,0.05,-0.03,0.6
1697353500.66,-0.07,-1.04,1.02,0.5,-1.7,-55.6,0.8,0.05,-0.03,0.6
1697353500.67,-0.17,-0.92,1.41,0.4,-2.1,-56,0.81,0.05,-0.03,0.59
1697353500.68,-0.02,-0.98,0.86,0.1,-1.5,-55.6,0.81,0.05,-0.03,0.58
1697353500.69,-0.39,-0.87,1.53,0.9,-1.1,-55.5,0.81,0.05,-0.02,0.58
1697353500.7,-0.06,-0.8,0.76,1.5,-0.4,-55.2,0.81,0.05,-0.02,0.58
1697353500.71,-0.06,-0.8,0.76,1.5,-0.4,-55.2,0.82,0.05,-0.02,0.57
1697353500.72,-0.06,-0.8,0.76,1.5,-0.4,-55.2,0.82,0.05,-0.02,0.57
1697353500.73,-0.06,-0.8,0.76,1.5,-0.4,-55.2,0.82,0.05,-0.02,0.57
1697353500.74,-0.06,-0.8,0.76,1.5,-0.4,-55.2,0.82,0.05,-0.02,0.57
1697353500.75,-0.06,-0.8,0.76,1.5,-0.4,-55.2,0.82,0.05,-0.02,0.57
1697353500.76,-0.06,-0.8,0.76,1.5,-0.4,-55.2,0.82,0.05,-0.02,0.57
1697353500.77,-0.06,-0.8,0.76,1.5,-0.4,-55.2,0.82,0.05,-0.02,0.57
1697353500.78,-0.06,-0.8,0.76,1.5,-0.4,-55.2,0.82,0.05,-0.02,0.57
1697353500.79,-0.06,-0.8,0.76,1.5,-0.4,-55.2,0.82,0.05,-0.02,0.57
1697353500.8,-0.06,-0.8,0.76,1.5,-0.4,-55.2,0.82,0.05,-0.02,0.57
1697353500.81,-0.06,-0.8,0.76,1.5,-0.4,-55.2,0.82,0.05,-0.02,0.57
1697353500.82,-0.06,-0.8,0.76,1.5,-0.4,-55.2,0.82,0.05,-0.02,0.57
1697353500.83,-0.06,-0.8,0.76,1.5,-0.4,-55.2,0.82,0.05,-0.02,0.57
1697353500.84,-0.06,-0.8,0.76,1.5,-0.4,-55.2,0.84,0.06,-0.02,0.55
1697353500.85,-0.07,0.78,1.27,9.3,-0.7,9.7,0.84,0.06,-0.02,0.55
1697353500.86,0.11,0.77,0.88,9,-1,14.2,0.84,0.06,-0.02,0.55
1697353500.87,-0.01,0.87,0.81,9.3,-0.6,19.2,0.83,0.06,-0.02,0.55
1697353500.88,-0.13,0.77,1.4,9,-0.3,22.1,0.83,0.06,-0.02,0.55
1697353500.89,-0.13,0.77,1.4,9,-0.3,22.1,0.83,0.06,-0.02,0.55
1697353500.9,0.14,0.77,0.88,6.6,-0.3,26.8,0.83,0.06,-0.02,0.55
1697353500.91,0.14,0.77,0.88,6.6,-0.3,26.8,0.83,0.06,-0.02,0.55
1697353500.92,0.1,0.7,0.82,6.9,-1,28.2,0.83,0.07,-0.02,0.56
1697353500.93,-0.1,0.62,1.2,5.1,-1.4,28.9,0.83,0.07,-0.02,0.56
1697353500.94,0.18,0.55,0.92,2,-1.9,29.2,0.83,0.07,-0.02,0.56
1697353500.95,-0.03,0.63,1.28,-2,-2.3,28.7,0.82,0.07,-0.02,0.56
1697353500.96,0.15,0.74,0.88,-3.7,-2.1,28.3,0.82,0.07,-0.02,0.56
1697353500.97,0.04,0.74,1.26,-3.4,-2,27.9,0.82,0.07,-0.02,0.56
1697353500.98,0.18,0.59,0.98,-1.3,-2.6,27.2,0.82,0.07,-0.02,0.57
1697353500.99,0.24,0.48,0.69,-0.7,-3.2,26.4,0.82,0.07,-0.02,0.57
1697353501,0.2,0.36,1.02,-2.1,-2.5,25.5,0.82,0.07,-0.02,0.57
1697353501.01,0.12,0.26,1.02,-3.5,-2,24.3,0.82,0.07,-0.02,0.57
1697353501.02,0.2,0.34,0.78,-5.5,-1,23,0.81,0.07,-0.02,0.58
1697353501.03,0.12,0.43,1.05,-6.7,-0.3,22,0.81,0.06,-0.02,0.58
1697353501.04,0.16,0.38,0.99,-5.6,0,21.4,0.81,0.06,-0.02,0.58
1697353501.05,0.17,0.38,1.04,-3.7,0.3,21,0.81,0.06,-0.02,0.58
1697353501.06,0.24,0.34,1,-2,0.5,20.8,0.81,0.06,-0.02,0.58
1697353501.07,0.24,0.21,0.83,-0.3,0.7,20.6,0.81,0.06,-0.02,0.58
1697353501.08,0.27,0.18,1.09,0.4,0.5,20.6,0.81,0.06,-0.02,0.58
1697353501.09,0.24,0.12,1,0.2,0.1,20.4,0.81,0.06,-0.02,0.59
1697353501.1,0.2,0.14,1.07,-1.5,-0.1,20.2,0.81,0.06,-0.02,0.59
1697353501.11,0.12,0.31,1.33,-3.4,0,19.8,0.81,0.06,-0.02,0.59
1697353501.12,0.27,0.29,0.82,-3.2,-0.4,19.6,0.81,0.06,-0.02,0.59
1697353501.13,0.19,0.59,1.17,-1,0.2,19.3,0.8,0.06,-0.02,0.59
1697353501.14,0.27,0.29,0.7,-1,0.2,19.3,0.8,0.06,-0.02,0.59
1697353501.15,0.38,0.33,0.91,5.4,-0.8,19.4,0.8,0.06,-0.02,0.59
1697353501.16,0.33,0.13,1.13,4.9,-1.4,19,0.8,0.06,-0.02,0.59
1697353501.17,0.24,0.18,1.09,4.9,-1.4,19,0.8,0.06,-0.02,0.6
1697353501.18,0.29,0.23,0.9,1.4,-2.6,18,0.8,0.06,-0.02,0.6
1697353501.19,0.21,0.42,0.77,-5,-2.2,17.1,0.8,0.06,-0.02,0.6
1697353501.2,0.21,0.42,0.77,-5,-2.2,17.1,0.8,0.06,-0.02,0.6
1697353501.21,0.24,0.48,0.92,-1.2,-0.6,16.1,0.8,0.06,-0.02,0.6
1697353501.22,0.24,0.48,0.92,-1.2,-0.6,16.1,0.8,0.06,-0.02,0.6
1697353501.23,0.24,0.48,0.92,-1.2,-0.6,16.1,0.8,0.06,-0.02,0.6
1697353501.24,0.24,0.48,0.92,-1.2,-0.6,16.1,0.8,0.06,-0.02,0.6
1697353501.25,0.24,0.48,0.92,-1.2,-0.6,16.1,0.8,0.06,-0.02,0.6
1697353501.26,0.24,0.48,0.92,-1.2,-0.6,16.1,0.8,0.06,-0.02,0.6
1697353501.27,0.24,0.48,0.92,-1.2,-0.6,16.1,0.8,0.06,-0.02,0.6
1697353501.28,0.24,0.48,0.92,-1.2,-0.6,16.1,0.8,0.06,-0.02,0.6
1697353501.29,0.24,0.48,0.92,-1.2,-0.6,16.1,0.8,0.06,-0.02,0.6
1697353501.3,0.24,0.48,0.92,-1.2,-0.6,16.1,0.8,0.06,-0.02,0.6
1697353501.31,0.24,0.48,0.92,-1.2,-0.6,16.1,0.8,0.06,-0.02,0.6
1697353501.32,0.24,0.48,0.92,-1.2,-0.6,16.1,0.8,0.06,-0.02,0.6
1697353501.33,0.24,0.48,0.92,-1.2,-0.6,16.1,0.8,0.06,-0.02,0.6
1697353501.34,0.24,0.48,0.92,-1.2,-0.6,16.1,0.8,0.06,-0.02,0.6
1697353501.35,0.24,0.48,0.92,-1.2,-0.6,16.1,0.8,0.06,-0.02,0.6
1697353501.36,0.24,0.48,0.92,-1.2,-0.6,16.1,0.8,0.06,-0.02,0.6
1697353501.37,0.12,0.51,1.1,2.9,0.8,22.3,0.78,0.06,-0.02,0.62
1697353501.38,0.23,0.45,1,4.7,0.5,22.5,0.78,0.06,-0.02,0.62
1697353501.39,0.18,0.28,0.73,4.2,0,22.2,0.78,0.06,-0.02,0.63
1697353501.4,0.2,0.37,1.15,0.2,-0.1,21.9,0.78,0.06,-0.02,0.63
1697353501.41,0.23,0.47,0.96,-2.2,-0.8,21.3,0.78,0.06,-0.02,0.63
1697353501.42,0.24,0.54,0.86,-2.5,-1.6,21.1,0.77,0.06,-0.02,0.63
1697353501.43,0.21,0.54,0.76,-2,-2.1,20.9,0.77,0.06,-0.02,0.63
1697353501.44,0.16,0.5,1.21,-0.1,-2.1,20.7,0.77,0.06,-0.03,0.63
1697353501.45,0.18,0.45,0.95,0.7,-1.6,20.7,0.77,0.06,-0.03,0.63
