time,accel_x,accel_y,accel_z,gyro_x,gyro_y,gyro_z,quat_w,quat_x,quat_y,quat_z
1697352317.25,0.02,1.04,1.13,-0.9,1.1,68.7,0.77,0.03,-0.02,-0.63
1697352317.26,0.02,1.04,1.13,-0.9,1.1,68.7,0.77,0.03,-0.02,-0.63
1697352317.27,0.02,1.04,1.13,-0.9,1.1,68.7,0.77,0.03,-0.02,-0.63
1697352317.28,0.02,1.04,1.13,-0.9,1.1,68.7,0.77,0.03,-0.02,-0.63
1697352317.29,0.02,1.04,1.13,-0.9,1.1,68.7,0.77,0.03,-0.02,-0.63
1697352317.3,0.02,1.04,1.13,-0.9,1.1,68.7,0.77,0.03,-0.02,-0.63
1697352317.31,0.02,1.04,1.13,-0.9,1.1,68.7,0.77,0.03,-0.02,-0.63
1697352317.32,0.02,1.04,1.13,-0.9,1.1,68.7,0.77,0.03,-0.02,-0.63
1697352317.33,0.02,1.04,1.13,-0.9,1.1,68.7,0.77,0.03,-0.02,-0.63
1697352317.34,0.02,1.04,1.13,-0.9,1.1,68.7,0.77,0.03,-0.02,-0.63
1697352317.35,0.02,1.04,1.13,-0.9,1.1,68.7,0.77,0.03,-0.02,-0.63
1697352317.36,0.02,1.04,1.13,-0.9,1.1,68.7,0.77,0.03,-0.02,-0.63
1697352317.37,0.02,1.04,1.13,-0.9,1.1,68.7,0.77,0.03,-0.02,-0.63
1697352317.38,0.02,1.04,1.13,-0.9,1.1,68.7,0.77,0.03,-0.02,-0.63
1697352317.39,-0.09,0.92,0.96,-4.5,5.9,89.8,1,0.02,-0.03,-0.01
1697352317.4,-0.02,0.92,1.07,-5.3,6.3,90.6,1,0.02,-0.03,-0.01
1697352317.41,-0.03,0.97,1.22,-2.9,6.4,90.7,1,0.02,-0.03,0
1697352317.42,0.08,1.08,0.53,0,6,91.9,1,0.02,-0.03,0.01
1697352317.43,0.08,1.08,0.53,0,6,91.9,1,0.02,-0.03,0.02
1697352317.44,0.17,0.93,0.74,3,5.5,92.9,1,0.02,-0.03,0.03
1697352317.45,-0.07,0.97,0.66,1.9,5.5,93.4,1,0.02,-0.03,0.03
1697352317.46,-0.11,0.78,0.57,0.9,6.8,93.7,1,0.02,-0.03,0.04
1697352317.47,-0.05,1.08,1.07,-0.2,7.3,92.9,1,0.02,-0.03,0.05
1697352317.48,-0.03,1.07,1.02,-0.7,8.3,92.7,1,0.02,-0.02,0.06
1697352317.49,-0.1,0.88,0.92,0.6,8.1,92,1,0.02,-0.02,0.07
1697352317.5,-0.17,1.2,0.79,0.6,8.1,92,1,0.02,-0.02,0.08
1697352317.51,-0.17,1.2,0.79,1.1,9,91.1,1,0.02,-0.02,0.08
1697352317.52,-0.19,1.04,1.02,2.1,10,90.6,1,0.02,-0.02,0.09
1697352317.53,-0.29,1.25,1.51,3.3,11.5,90.2,1,0.02,-0.02,0.09
1697352317.54,-0.19,1.08,1.23,4.6,12.1,90.1,0.99,0.02,-0.02,0.11
1697352317.55,-0.2,1.14,0.7,4.2,12.5,90.1,0.99,0.02,-0.02,0.11
1697352317.56,-0.27,1.19,1.05,2.6,12.3,90.4,0.99,0.02,-0.02,0.12
1697352317.57,-0.24,0.97,0.87,0.4,12.3,91.5,0.99,0.02,-0.02,0.13
1697352317.58,-0.16,1.19,0.85,-1.4,11.6,92,0.99,0.02,-0.02,0.14
1697352317.59,-0.16,1.12,0.71,-2.1,10.5,94.2,0.99,0.02,-0.02,0.14
1697352317.6,-0.16,1.19,0.98,-0.4,9.5,95.3,0.99,0.02,-0.02,0.15
1697352317.61,-0.2,1.13,1.35,1.4,8.2,96.9,0.99,0.02,-0.02,0.16
1697352317.62,-0.04,1.08,0.88,2,6.9,98.4,0.99,0.02,-0.01,0.17
1697352317.63,0,1,0.73,2,6.9,98.4,0.98,0.02,-0.01,0.18
1697352317.64,-0.2,1.04,0.8,2.1,6,99.4,0.98,0.02,-0.01,0.19
1697352317.65,-0.13,0.92,0.96,0.2,3.2,100.9,0.98,0.02,-0.01,0.19
1697352317.66,-0.08,0.98,0.79,-2,2.1,101.7,0.98,0.02,-0.01,0.2
1697352317.67,-0.14,0.99,1.1,-3,1.7,101.5,0.98,0.02,-0.01,0.21
1697352317.68,-0.18,1.15,0.88,-1.4,2.1,100.3,0.98,0.02,-0.01,0.22
1697352317.69,-0.24,1.18,0.98,1.2,3.5,98.7,0.97,0.02,-0.01,0.23
1697352317.7,-0.24,1.18,0.98,1.2,3.5,98.7,0.97,0.02,-0.01,0.23
1697352317.71,-0.25,1.04,1.07,6.7,5.6,94.4,0.97,0.02,-0.01,0.25
1697352317.72,-0.21,1.13,0.89,5.6,6.3,93.1,0.97,0.02,-0.01,0.25
1697352317.73,-0.28,1.11,1.02,2.6,7.4,92.1,0.96,0.02,-0.01,0.26
1697352317.74,-0.22,1.2,0.89,-0.4,8.2,91.6,0.96,0.02,-0.01,0.27
1697352317.75,-0.4,1.51,1.18,-2.5,8.2,91.4,0.96,0.02,-0.01,0.28
1697352317.76,-0.27,1.41,0.92,-2,7.6,92.4,0.96,0.02,-0.01,0.28
1697352317.77,-0.45,1.39,1.53,0,6.5,93.4,0.96,0.02,-0.01,0.29
1697352317.78,-0.45,1.39,1.53,0,6.5,93.4,0.95,0.02,-0.01,0.3
1697352317.79,-0.27,1.16,1.08,1.3,4.9,94.1,0.95,0.02,-0.01,0.31
1697352317.8,-0.27,1.16,1.08,1.3,4.9,94.1,0.95,0.02,-0.01,0.31
1697352317.81,-0.27,1.16,1.08,1.3,4.9,94.1,0.95,0.02,-0.01,0.31
1697352317.82,-0.27,1.16,1.08,1.3,4.9,94.1,0.95,0.02,-0.01,0.31
1697352317.83,-0.27,1.16,1.08,1.3,4.9,94.1,0.95,0.02,-0.01,0.31
1697352317.84,-0.27,1.16,1.08,1.3,4.9,94.1,0.95,0.02,-0.01,0.31
1697352317.85,-0.27,1.16,1.08,1.3,4.9,94.1,0.95,0.02,-0.01,0.31
1697352317.86,-0.27,1.16,1.08,1.3,4.9,94.1,0.95,0.02,-0.01,0.31
1697352317.87,-0.27,1.16,1.08,1.3,4.9,94.1,0.95,0.02,-0.01,0.31
1697352317.88,-0.27,1.16,1.08,1.3,4.9,94.1,0.95,0.02,-0.01,0.31
1697352317.89,-0.27,1.16,1.08,1.3,4.9,94.1,0.95,0.02,-0.01,0.31
1697352317.9,-0.27,1.16,1.08,1.3,4.9,94.1,0.95,0.02,-0.01,0.31
1697352317.91,-0.27,1.16,1.08,1.3,4.9,94.1,0.95,0.02,-0.01,0.31
1697352317.92,-0.27,1.16,1.08,1.3,4.9,94.1,0.95,0.02,-0.01,0.31
1697352317.93,-0.27,1.16,1.08,1.3,4.9,94.1,0.95,0.02,-0.01,0.31
1697352317.94,-0.27,1.16,1.08,1.3,4.9,94.1,0.95,0.02,-0.01,0.31
1697352317.95,-0.27,1.16,1.08,1.3,4.9,94.1,0.95,0.02,-0.01,0.31
1697352317.96,-0.27,1.16,1.08,1.3,4.9,94.1,0.95,0.02,-0.01,0.31
1697352317.97,-0.27,1.16,1.08,1.3,4.9,94.1,0.95,0.02,-0.01,0.31
1697352317.98,-0.27,1.16,1.08,1.3,4.9,94.1,0.95,0.02,-0.01,0.31
1697352317.99,-0.27,1.16,1.08,1.3,4.9,94.1,0.95,0.02,-0.01,0.31
1697352318,-0.27,1.16,1.08,1.3,4.9,94.1,0.95,0.02,-0.01,0.31
1697352318.01,-0.27,1.16,1.08,1.3,4.9,94.1,0.95,0.02,-0.01,0.31
1697352318.02,-0.27,1.16,1.08,1.3,4.9,94.1,0.95,0.02,-0.01,0.31
1697352318.03,-0.27,1.16,1.08,1.3,4.9,94.1,0.95,0.02,-0.01,0.31
1697352318.04,-0.03,1.02,0.96,1.9,0.8,94.3,0.87,0.01,-0.01,0.5
1697352318.05,-0.14,0.88,1.25,0.1,0.9,94.8,0.86,0.01,-0.01,0.5
1697352318.06,0.08,0.94,0.91,-2.3,1.6,95,0.86,0.01,-0.01,0.51
1697352318.07,0.01,0.82,1.15,-3.7,1,95,0.86,0.01,-0.01,0.52
1697352318.08,0.15,1.09,0.22,-2.3,1.2,94.9,0.85,0.01,-0.01,0.53
1697352318.09,-0.09,1,1.07,0.5,1,94.8,0.85,0.01,-0.01,0.53
1697352318.1,0.09,1.05,0.66,0.5,1,94.8,0.85,0.01,-0.01,0.53
1697352318.11,-0.07,0.92,0.87,3.7,1.1,93.4,0.84,0.01,-0.01,0.55
1697352318.12,-0.05,0.99,0.67,1.4,2.1,92.8,0.83,0.01,-0.01,0.55
1697352318.13,-0.29,0.98,1.33,1.4,2.1,92.8,0.83,0.01,-0.01,0.55
1697352318.14,-0.06,0.94,0.66,-4,3.9,92.2,0.82,0.01,-0.01,0.57
1697352318.15,-0.06,0.94,0.66,-4,3.9,92.2,0.82,0.01,-0.01,0.57
1697352318.16,-0.01,1.21,1.05,-3.8,3.7,92.6,0.82,0.01,-0.01,0.57
1697352318.17,-0.01,1.21,1.05,-0.8,3.5,93.1,0.81,0.01,-0.01,0.58
1697352318.18,-0.03,1.2,0.84,-0.8,3.5,93.1,0.81,0.01,-0.01,0.59
1697352318.19,0.03,1.09,0.9,1,3,94.3,0.8,0.01,-0.01,0.6
1697352318.2,0.04,1.15,1.1,2.2,2.9,95.7,0.8,0.01,-0.01,0.6
1697352318.21,0.08,0.98,0.88,2.7,2.9,96.7,0.79,0.01,-0.01,0.61
1697352318.22,-0.02,0.94,0.48,2.8,3,97.5,0.79,0.01,-0.01,0.62
1697352318.23,-0.09,1.15,1.15,0.6,2.6,98.8,0.78,0.01,-0.01,0.62
1697352318.24,0.03,0.97,1.3,-2.7,1.4,99.3,0.78,0.01,-0.01,0.63
1697352318.25,0.24,1.05,0.8,-4.3,0.7,99.8,0.77,0.01,-0.01,0.64
1697352318.26,-0.03,0.93,0.91,-3.8,0.2,99.5,0.77,0.01,-0.01,0.64
1697352318.27,0.01,1.11,1.05,-3.4,0.4,98.5,0.76,0.01,-0.01,0.65
1697352318.28,0.02,1.1,1.3,-2.1,1.2,96.8,0.75,0.01,-0.01,0.66
1697352318.29,0.09,1.05,0.76,0.3,1.9,94.3,0.75,0.01,-0.01,0.66
1697352318.3,0.04,0.94,0.48,3.6,3,90,0.74,0.01,-0.01,0.67
1697352318.31,-0.23,0.89,1.26,2.2,3.1,87.4,0.74,0.01,-0.01,0.68
1697352318.32,0.01,0.93,1.05,0.2,4,85.4,0.73,0,-0.01,0.68
1697352318.33,-0.04,0.77,1.31,-2.4,5.2,82,0.73,0,-0.01,0.69
1697352318.34,-0.02,0.86,1.03,-4.6,4.7,79.6,0.72,0,-0.01,0.69
1697352318.35,0.17,0.74,1.29,-5.4,4.2,77,0.72,0,-0.01,0.7
1697352318.36,0.27,0.64,0.5,-5.6,2.6,74.3,0.71,0,-0.01,0.7
1697352318.37,0.34,0.5,0.59,-5.4,0.9,71.2,0.71,0,-0.01,0.71
1697352318.38,0.23,0.51,1.71,-5,-1.4,67.8,0.7,0,-0.01,0.71
1697352318.39,0.43,0.16,1.29,-6.4,-2.8,63.2,0.7,0,-0.01,0.72
1697352318.4,0.31,0.26,0.67,-8.4,-3.5,57.9,0.7,0,-0.01,0.72
1697352318.41,0.02,0.53,0.87,-8.4,-3.5,57.9,0.7,0,-0.01,0.72
1697352318.42,0.27,0.33,0.83,-3.8,-3.1,48.3,0.69,0,-0.01,0.73
1697352318.43,0.27,0.33,0.83,-3.8,-3.1,48.3,0.69,0,-0.01,0.73
1697352318.44,0.27,0.33,0.83,-3.8,-3.1,48.3,0.69,0,-0.01,0.73
1697352318.45,0.27,0.33,0.83,-3.8,-3.1,48.3,0.69,0,-0.01,0.73
1697352318.46,0.27,0.33,0.83,-3.8,-3.1,48.3,0.69,0,-0.01,0.73
1697352318.47,0.27,0.33,0.83,-3.8,-3.1,48.3,0.69,0,-0.01,0.73
1697352318.48,0.27,0.33,0.83,-3.8,-3.1,48.3,0.69,0,-0.01,0.73
1697352318.49,0.27,0.33,0.83,-3.8,-3.1,48.3,0.69,0,-0.01,0.73
1697352318.5,0.27,0.33,0.83,-3.8,-3.1,48.3,0.69,0,-0.01,0.73
1697352318.51,0.27,0.33,0.83,-3.8,-3.1,48.3,0.69,0,-0.01,0.73
1697352318.52,0.27,0.33,0.83,-3.8,-3.1,48.3,0.69,0,-0.01,0.73
1697352318.53,0.27,0.33,0.83,-3.8,-3.1,48.3,0.69,0,-0.01,0.73
1697352318.54,0.27,0.33,0.83,-3.8,-3.1,48.3,0.69,0,-0.01,0.73
1697352318.55,0.27,0.33,0.83,-3.8,-3.1,48.3,0.69,0,-0.01,0.73
1697352318.56,0.27,0.33,0.83,-3.8,-3.1,48.3,0.69,0,-0.01,0.73
1697352318.57,0.23,0.07,0.75,1,-1.7,12.4,0.66,-0,-0.02,0.75
1697352318.58,0.16,0,1,1.7,-1.2,12.4,0.66,-0,-0.02,0.75
1697352318.59,0.2,0.01,1.17,0,-0.9,12.9,0.66,-0,-0.02,0.75
1697352318.6,0.2,-0.01,1.22,-2.8,-0.1,12.9,0.66,-0,-0.02,0.75
1697352318.61,0.12,0.05,1.18,-3.3,0.1,12.7,0.66,-0,-0.02,0.75
1697352318.62,0.22,0.15,0.97,-1.3,0,12.1,0.66,-0,-0.02,0.75
1697352318.63,0.37,-0,1.46,-0.9,-0.6,10.9,0.66,-0,-0.02,0.75
1697352318.64,0.37,-0.05,0.84,0.5,-1.2,9,0.66,-0,-0.02,0.76
1697352318.65,0.35,-0.09,1.18,0.3,-2.1,6.7,0.65,-0,-0.02,0.76
1697352318.66,0.32,-0.18,0.91,-1.1,-2.7,4.8,0.65,-0,-0.02,0.76
1697352318.67,0.29,-0.13,0.86,-2.4,-2.4,3.4,0.65,-0,-0.02,0.76
1697352318.68,0.21,0.07,0.87,-2.5,-1.7,2.5,0.65,-0,-0.02,0.76
1697352318.69,0.1,-0.01,1.22,-1.4,-1.3,2.2,0.65,-0,-0.02,0.76
1697352318.7,0.28,0.12,1.08,0.1,-0.6,2.6,0.65,-0,-0.02,0.76
1697352318.71,0.16,0.03,0.72,2.7,0,2.8,0.65,-0,-0.02,0.76
1697352318.72,0.09,-0.11,1.18,2.7,-0.1,3,0.65,-0,-0.02,0.76
1697352318.73,0.3,0.11,1.35,1.7,-1.3,3.6,0.65,-0,-0.02,0.76
1697352318.74,0.31,-0.34,0.42,0.7,-0.6,3.4,0.65,-0,-0.02,0.76
1697352318.75,0.23,-0.04,1.53,-0.8,0,3.1,0.65,-0,-0.02,0.76
1697352318.76,0.36,-0.04,0.64,-2.4,0.6,3.6,0.65,-0,-0.02,0.76
1697352318.77,0.23,0.08,0.75,-2.1,0.7,3.4,0.65,-0,-0.02,0.76
1697352318.78,0.23,0.08,0.75,-2.1,0.7,3.4,0.65,-0,-0.02,0.76
1697352318.79,0.18,0.16,1.12,0,1.3,3.4,0.65,-0,-0.02,0.76
1697352318.8,0.19,-0.06,0.7,1.3,1.8,2.8,0.65,-0,-0.02,0.76
1697352318.81,0.09,-0.06,1.09,1.3,1.8,2.8,0.65,-0,-0.02,0.76
1697352318.82,0.14,-0.18,1.46,-0.8,2.4,1,0.65,-0,-0.02,0.76
1697352318.83,0.14,-0.18,1.46,-0.8,2.4,1,0.65,-0,-0.02,0.76
1697352318.84,0.23,-0.2,0.91,-1.2,2.6,-0.4,0.65,-0,-0.02,0.76
1697352318.85,0.23,-0.21,1.6,-2.3,2,-2,0.65,-0,-0.02,0.76
1697352318.86,0.27,-0.24,1.05,-1.8,0.8,-3.5,0.65,-0,-0.02,0.76
1697352318.87,0.4,-0.13,0.76,-1.9,-0.2,-4.6,0.65,-0,-0.02,0.76
1697352318.88,0.33,-0.28,1.28,-1.8,-1,-5.5,0.65,-0,-0.02,0.76
1697352318.89,0.26,-0.21,0.69,-1.8,-1.9,-6.5,0.65,-0,-0.02,0.76
1697352318.9,0.18,-0.29,1.01,-1.6,-2.3,-7.3,0.65,-0,-0.02,0.76
1697352318.91,0.26,-0.27,1.08,-1.7,-1.7,-8.3,0.65,-0,-0.02,0.76
1697352318.92,0.09,-0.4,0.8,-2.6,-0.8,-9.3,0.65,-0,-0.02,0.76
1697352318.93,0.27,-0.27,1.13,-2.6,0.2,-10.1,0.65,-0,-0.02,0.76
1697352318.94,0.08,-0.41,0.74,-1.9,0.4,-10.4,0.66,-0,-0.02,0.75
1697352318.95,0.08,-0.41,0.74,-1.9,0.4,-10.4,0.66,-0,-0.02,0.75
1697352318.96,0.08,-0.41,0.74,-1.9,0.4,-10.4,0.66,-0,-0.02,0.75
1697352318.97,0.08,-0.41,0.74,-1.9,0.4,-10.4,0.66,-0,-0.02,0.75
1697352318.98,0.08,-0.41,0.74,-1.9,0.4,-10.4,0.66,-0,-0.02,0.75
1697352318.99,0.08,-0.41,0.74,-1.9,0.4,-10.4,0.66,-0,-0.02,0.75
1697352319,0.08,-0.41,0.74,-1.9,0.4,-10.4,0.66,-0,-0.02,0.75
1697352319.01,0.08,-0.41,0.74,-1.9,0.4,-10.4,0.66,-0,-0.02,0.75
1697352319.02,0.08,-0.41,0.74,-1.9,0.4,-10.4,0.66,-0,-0.02,0.75
1697352319.03,0.08,-0.41,0.74,-1.9,0.4,-10.4,0.66,-0,-0.02,0.75
1697352319.04,0.08,-0.41,0.74,-1.9,0.4,-10.4,0.66,-0,-0.02,0.75
1697352319.05,0.08,-0.41,0.74,-1.9,0.4,-10.4,0.66,-0,-0.02,0.75
1697352319.06,0.08,-0.41,0.74,-1.9,0.4,-10.4,0.66,-0,-0.02,0.75
1697352319.07,0.08,-0.41,0.74,-1.9,0.4,-10.4,0.66,-0,-0.02,0.75
1697352319.08,0.08,-0.41,0.74,-1.9,0.4,-10.4,0.66,-0,-0.02,0.75
1697352319.09,0.1,-0.54,1.12,0,3.8,-27.2,0.68,-0,-0.02,0.73
1697352319.1,0.1,-0.54,1.12,0,3.8,-27.2,0.68,-0,-0.02,0.73
1697352319.11,0.13,-0.83,0.96,-2.6,2,-31,0.68,-0,-0.02,0.73
1697352319.12,0.23,-0.81,1.02,-3.4,0.7,-32.3,0.68,-0,-0.02,0.73
1697352319.13,0.13,-0.71,0.57,-3.6,-0.1,-33.7,0.68,-0,-0.02,0.73
1697352319.14,0.17,-0.78,1.13,-3.1,-1.1,-35.3,0.69,-0,-0.02,0.73
1697352319.15,0.17,-0.78,1.13,-3.1,-1.1,-35.3,0.69,-0,-0.02,0.72
1697352319.16,0.17,-0.72,1.29,-1.8,-2.1,-36.7,0.69,-0,-0.02,0.72
1697352319.17,0.17,-0.72,1.29,-0.2,-3,-37.6,0.69,-0,-0.02,0.72
1697352319.18,0.26,-0.7,1.33,1.3,-3,-38.3,0.7,-0,-0.02,0.72
1697352319.19,0.39,-0.72,0.77,2,-3.2,-38.8,0.7,-0,-0.02,0.72
1697352319.2,0.39,-0.72,0.77,1.1,-2.6,-39.4,0.7,-0,-0.02,0.71
1697352319.21,0.21,-0.67,1.05,0.6,-2.6,-39.5,0.7,-0,-0.02,0.71
1697352319.22,0.25,-0.74,1.18,-1.8,-2.1,-39.7,0.71,-0,-0.02,0.71
1697352319.23,0.07,-0.59,1.12,-3.4,-1.1,-39.8,0.71,-0,-0.02,0.7
1697352319.24,0.22,-0.69,0.96,-6.3,0.1,-39.3,0.71,-0,-0.02,0.7
1697352319.25,-0.04,-0.36,0.89,-3.9,1.4,-40.5,0.71,-0,-0.02,0.7
1697352319.26,-0.2,-0.71,0.83,0.1,1.9,-41,0.72,-0,-0.02,0.7
1697352319.27,-0.06,-0.83,1.21,1.9,2.9,-41.9,0.72,-0,-0.02,0.69
1697352319.28,-0.1,-0.92,0.56,2.2,3.6,-44.1,0.72,-0,-0.02,0.69
1697352319.29,0.13,-1.13,0.61,0,3.6,-46.1,0.72,-0,-0.02,0.69
1697352319.3,-0.03,-0.97,1.38,-2.8,3.2,-48.3,0.73,-0,-0.02,0.69
1697352319.31,0.07,-1.01,1.01,-6,1.7,-49.7,0.73,-0,-0.02,0.68
1697352319.32,0.12,-0.68,1.25,-4.2,-2.4,-51.4,0.73,-0,-0.02,0.68
1697352319.33,0.12,-0.83,0.54,-2.3,-2.4,-51.8,0.74,-0,-0.02,0.67
1697352319.34,0.24,-0.75,1.01,-1.7,-1.9,-51.5,0.74,-0,-0.02,0.67
1697352319.35,-0.02,-0.88,0.88,-2.9,-0.9,-50.8,0.74,-0,-0.02,0.67
1697352319.36,-0.1,-0.95,1.4,-1.7,-0.2,-51,0.75,-0,-0.02,0.66
1697352319.37,0.2,-0.47,0.5,-1.6,1.5,-48.7,0.75,-0,-0.02,0.66
1697352319.38,0.14,-1.13,0.63,-1.4,1.6,-48.6,0.75,-0,-0.02,0.66
1697352319.39,0.05,-0.96,1.43,-0.6,2.6,-49.7,0.75,-0,-0.02,0.66
1697352319.4,0.15,-0.97,0.74,-0.6,2.6,-49.7,0.75,-0,-0.02,0.66
1697352319.41,0.02,-0.95,1.33,-4.7,2.6,-49.5,0.76,-0.01,-0.02,0.65
1697352319.42,-0.13,-0.79,1.29,-3.5,2.1,-50.2,0.76,-0.01,-0.02,0.64
1697352319.43,-0.05,-0.88,1.03,-2.1,1.8,-50.9,0.77,-0.01,-0.02,0.64
1697352319.44,-0.2,-0.92,1.07,-0.2,1.9,-51.5,0.77,-0.01,-0.02,0.64
1697352319.45,-0.16,-0.86,0.59,0.4,1.8,-52.8,0.77,-0.01,-0.02,0.64
1697352319.46,-0.07,-0.9,1.26,0.4,1.8,-52.8,0.77,-0.01,-0.02,0.63
1697352319.47,-0.07,-0.9,1.26,0.4,1.8,-52.8,0.77,-0.01,-0.02,0.63
1697352319.48,-0.07,-0.9,1.26,0.4,1.8,-52.8,0.77,-0.01,-0.02,0.63
1697352319.49,-0.07,-0.9,1.26,0.4,1.8,-52.8,0.77,-0.01,-0.02,0.63
1697352319.5,-0.07,-0.9,1.26,0.4,1.8,-52.8,0.77,-0.01,-0.02,0.63
1697352319.51,-0.07,-0.9,1.26,0.4,1.8,-52.8,0.77,-0.01,-0.02,0.63
1697352319.52,-0.07,-0.9,1.26,0.4,1.8,-52.8,0.77,-0.01,-0.02,0.63
1697352319.53,-0.07,-0.9,1.26,0.4,1.8,-52.8,0.77,-0.01,-0.02,0.63
1697352319.54,-0.07,-0.9,1.26,0.4,1.8,-52.8,0.77,-0.01,-0.02,0.63
1697352319.55,-0.07,-0.9,1.26,0.4,1.8,-52.8,0.77,-0.01,-0.02,0.63
1697352319.56,-0.07,-0.9,1.26,0.4,1.8,-52.8,0.77,-0.01,-0.02,0.63
1697352319.57,-0.07,-0.9,1.26,0.4,1.8,-52.8,0.77,-0.01,-0.02,0.63
1697352319.58,-0.07,-0.9,1.26,0.4,1.8,-52.8,0.77,-0.01,-0.02,0.63
1697352319.59,-0.07,-0.9,1.26,0.4,1.8,-52.8,0.77,-0.01,-0.02,0.63
1697352319.6,-0.07,-0.9,1.26,0.4,1.8,-52.8,0.77,-0.01,-0.02,0.63
1697352319.61,-0.05,-0.85,1.11,0.4,1.8,-52.8,0.82,-0,-0.02,0.58
1697352319.62,0.07,-1.07,0.81,4.1,3.9,-48.6,0.82,-0,-0.02,0.57
1697352319.63,0.06,-1.04,1.12,4.2,2.7,-49.5,0.82,-0,-0.02,0.57
1697352319.64,0.07,-0.92,1.08,2.1,2.4,-50.4,0.82,-0,-0.02,0.57
1697352319.65,0.02,-0.8,1.4,-0.5,1.5,-50.8,0.83,-0,-0.02,0.56
1697352319.66,0.16,-0.69,0.58,-2.3,0,-51.5,0.83,-0,-0.02,0.56
1697352319.67,0.03,-0.85,1.49,-1.4,-1.2,-51.7,0.83,-0,-0.02,0.56
1697352319.68,0.33,-0.79,0.42,1.1,-1.9,-51.7,0.83,-0,-0.02,0.55
1697352319.69,0.39,-0.67,0.58,2,-2.6,-51.8,0.84,-0,-0.02,0.55
1697352319.7,0.07,-0.75,1.05,1.1,-2.5,-50.6,0.84,-0,-0.02,0.54
1697352319.71,0.14,-0.85,1.14,0.4,-1.7,-49.4,0.84,-0,-0.02,0.54
1697352319.72,0.25,-0.67,0.66,-1.1,-0.6,-48.4,0.84,-0,-0.02,0.54
1697352319.73,0.1,-0.69,0.89,-2.8,0,-47.9,0.85,-0,-0.02,0.53
1697352319.74,-0.09,-0.65,0.88,-2.9,1.3,-46.3,0.85,-0,-0.02,0.53
1697352319.75,0.09,-0.86,0.42,-1.4,2.5,-45.6,0.85,-0,-0.02,0.53
1697352319.76,-0.01,-0.95,0.89,1.3,4.1,-45.3,0.85,-0,-0.02,0.52
1697352319.77,0.11,-1.04,1.2,2.3,5.1,-45.6,0.85,-0,-0.02,0.52
1697352319.78,0.06,-0.96,0.78,2.1,5,-46.3,0.86,-0,-0.02,0.51
1697352319.79,-0.05,-1.18,1.46,2.4,4.3,-48.4,0.86,-0,-0.02,0.51
1697352319.8,-0.05,-1.18,1.46,-0.2,2.1,-49.9,0.86,-0,-0.02,0.51
1697352319.81,0.18,-0.74,1.2,-0.3,0.1,-52.7,0.86,-0,-0.02,0.5
1697352319.82,0.18,-0.74,1.2,-0.3,-0.9,-53.6,0.86,-0,-0.02,0.5
1697352319.83,0.26,-0.84,0.82,1,-1.7,-54.2,0.87,-0,-0.02,0.5
1697352319.84,0.43,-0.77,1.15,1,-1.7,-54.2,0.87,-0,-0.02,0.49
1697352319.85,0.2,-0.61,1.33,0,-3,-54.5,0.87,-0,-0.02,0.49
1697352319.86,0.13,-0.45,1.16,-2.3,-3.3,-53.1,0.88,-0,-0.02,0.48
1697352319.87,0.13,-0.45,1.16,-0.8,-3.2,-51.3,0.88,-0,-0.02,0.48
1697352319.88,0.13,-0.45,1.16,-0.8,-3.2,-51.3,0.88,-0,-0.02,0.48
1697352319.89,-0.19,-0.81,0.52,5.5,-3,-46.8,0.88,-0,-0.02,0.47
1697352319.9,-0.19,-0.81,0.52,5.5,-3,-46.8,0.88,-0,-0.02,0.47
1697352319.91,0.22,-0.89,0.09,4.2,-1.3,-47.5,0.88,-0,-0.02,0.47
1697352319.92,-0.32,-1.02,1.33,-1.4,0.7,-47,0.89,-0,-0.02,0.46
1697352319.93,0.15,-0.68,0.95,-3.4,2.4,-47.5,0.89,-0,-0.02,0.46
1697352319.94,0.15,-0.68,0.95,-4.4,3.2,-46.6,0.89,-0,-0.02,0.46
1697352319.95,0.29,-0.55,0.38,-0.8,3.7,-45.3,0.89,-0,-0.02,0.45
1697352319.96,-0.02,-0.71,1.37,5.2,3.3,-43.6,0.89,-0,-0.02,0.45
1697352319.97,0.24,-1,0.76,4.1,3.8,-43.6,0.9,-0,-0.02,0.44
1697352319.98,0.3,-0.95,0.67,0.4,3.7,-44.1,0.9,-0,-0.02,0.44
1697352319.99,0.03,-0.96,1.18,-2.6,3.9,-44.5,0.9,-0,-0.02,0.44
1697352320,-0.03,-0.8,1.08,-2.5,3.5,-45.4,0.9,-0,-0.02,0.43
1697352320.01,-0.03,-0.8,1.08,-2.5,3.5,-45.4,0.9,-0,-0.02,0.43
1697352320.02,-0.03,-0.8,1.08,-2.5,3.5,-45.4,0.9,-0,-0.02,0.43
1697352320.03,-0.03,-0.8,1.08,-2.5,3.5,-45.4,0.9,-0,-0.02,0.43
1697352320.04,-0.03,-0.8,1.08,-2.5,3.5,-45.4,0.9,-0,-0.02,0.43
1697352320.05,-0.03,-0.8,1.08,-2.5,3.5,-45.4,0.9,-0,-0.02,0.43
1697352320.06,-0.03,-0.8,1.08,-2.5,3.5,-45.4,0.9,-0,-0.02,0.43
1697352320.07,-0.03,-0.8,1.08,-2.5,3.5,-45.4,0.9,-0,-0.02,0.43
1697352320.08,-0.03,-0.8,1.08,-2.5,3.5,-45.4,0.9,-0,-0.02,0.43
1697352320.09,-0.03,-0.8,1.08,-2.5,3.5,-45.4,0.9,-0,-0.02,0.43
1697352320.1,-0.03,-0.8,1.08,-2.5,3.5,-45.4,0.9,-0,-0.02,0.43
1697352320.11,-0.03,-0.8,1.08,-2.5,3.5,-45.4,0.9,-0,-0.02,0.43
1697352320.12,-0.03,-0.8,1.08,-2.5,3.5,-45.4,0.9,-0,-0.02,0.43
1697352320.13,0.26,-0.99,0.69,-0.5,-4,-51.2,0.92,0,-0.02,0.38
1697352320.14,0.12,-0.87,1.24,-2.4,-5.3,-51.4,0.93,0,-0.02,0.38
1697352320.15,0.1,-0.77,0.81,-2.4,-5.3,-51.4,0.93,0,-0.02,0.38
1697352320.16,0.28,-0.73,1.05,-0.6,-4.7,-49.8,0.93,0,-0.02,0.37
1697352320.17,0.14,-0.75,0.91,0.7,-3,-48.2,0.93,0,-0.02,0.37
1697352320.18,-0.17,-0.8,1.4,1.9,-1.4,-47.6,0.93,0,-0.02,0.36
1697352320.19,0.15,-0.88,0.82,0.8,1.1,-46.5,0.93,0,-0.02,0.36
1697352320.2,0.08,-0.87,0.66,0.8,1.1,-46.5,0.93,0,-0.02,0.36
1697352320.21,0.13,-0.81,0.55,-1.8,5,-45.7,0.94,0,-0.02,0.35
1697352320.22,-0.1,-0.77,1.49,-1.8,5,-45.7,0.94,0,-0.02,0.35
1697352320.23,0.15,-0.78,0.49,-1.8,5,-45.7,0.94,0,-0.02,0.35
1697352320.24,-0.02,-0.83,1.26,1.1,5.8,-45.5,0.94,0,-0.02,0.34
1697352320.25,-0.02,-0.83,1.26,1.1,5.8,-45.5,0.94,0,-0.01,0.34
1697352320.26,0.01,-0.83,0.63,2.1,3.4,-46,0.94,0,-0.01,0.34
1697352320.27,0.21,-0.74,0.75,2.1,3.4,-46,0.94,0,-0.01,0.33
1697352320.28,0,-0.54,1.4,0.3,1.5,-45.7,0.94,0,-0.01,0.33
1697352320.29,0.18,-0.5,0.89,-0.8,-1.5,-43.3,0.95,0,-0.01,0.32
1697352320.3,0.18,-0.5,0.89,-0.8,-1.5,-43.3,0.95,0,-0.01,0.32
1697352320.31,-0.22,-0.48,1.29,0.7,-2.1,-41.3,0.95,0,-0.01,0.32
1697352320.32,-0.22,-0.48,1.29,2.2,-1.5,-39.8,0.95,0,-0.01,0.31
1697352320.33,0.11,-0.62,0.85,1.6,0.9,-37.3,0.95,0,-0.01,0.31
1697352320.34,0.08,-0.57,0.58,0.3,2.8,-35.8,0.95,0,-0.01,0.31
1697352320.35,-0.03,-0.33,0.94,1.9,4.8,-34.9,0.95,0,-0.01,0.3
1697352320.36,-0.09,-0.55,1.29,2.3,6.2,-33.2,0.95,0,-0.01,0.3
1697352320.37,0.16,-0.7,0.77,2,7,-32.6,0.95,0,-0.01,0.3
1697352320.38,0.16,-0.79,1.19,0,7.3,-31.9,0.96,0,-0.01,0.3
1697352320.39,0.27,-0.28,0.46,0,6.7,-31.2,0.96,0,-0.01,0.29
1697352320.4,-0.02,-0.38,1.29,3,6.4,-29.9,0.96,0,-0.01,0.29
1697352320.41,0.26,-0.59,0.86,5.7,5.5,-29.9,0.96,0,-0.01,0.29
1697352320.42,0.24,-0.66,0.49,6,4.1,-30.4,0.96,0,-0.01,0.29
1697352320.43,0.03,-0.7,1.25,3,2.6,-30.6,0.96,0,-0.01,0.29
1697352320.44,-0.02,-0.31,1.34,1.2,0.9,-31.4,0.96,0,-0.01,0.28
1697352320.45,0.1,-0.59,0.88,1.2,0.9,-31.4,0.96,0,-0.01,0.28
1697352320.46,-0.01,-0.37,0.81,1.3,-0.5,-32.7,0.96,0,-0.01,0.27
1697352320.47,-0.11,-0.41,1.21,-0.7,-0.1,-31.7,0.96,0,-0.01,0.27
1697352320.48,0.32,-0.4,0.44,-3.3,0,-30.5,0.96,0,-0.01,0.27
1697352320.49,0.2,-0.26,0.72,-2.3,1.4,-29.2,0.96,0,-0.01,0.27
1697352320.5,0.18,-0.32,1.03,-0.2,2.9,-27.7,0.96,0,-0.01,0.27
1697352320.51,0.18,-0.32,1.03,-0.2,2.9,-27.7,0.96,0,-0.01,0.27
1697352320.52,0.18,-0.32,1.03,-0.2,2.9,-27.7,0.96,0,-0.01,0.27
1697352320.53,0.18,-0.32,1.03,-0.2,2.9,-27.7,0.96,0,-0.01,0.27
1697352320.54,0.18,-0.32,1.03,-0.2,2.9,-27.7,0.96,0,-0.01,0.27
1697352320.55,0.18,-0.32,1.03,-0.2,2.9,-27.7,0.96,0,-0.01,0.27
1697352320.56,0.18,-0.32,1.03,-0.2,2.9,-27.7,0.96,0,-0.01,0.27
1697352320.57,0.18,-0.32,1.03,-0.2,2.9,-27.7,0.96,0,-0.01,0.27
1697352320.58,0.18,-0.32,1.03,-0.2,2.9,-27.7,0.96,0,-0.01,0.27
1697352320.59,0.18,-0.32,1.03,-0.2,2.9,-27.7,0.96,0,-0.01,0.27
1697352320.6,0.18,-0.32,1.03,-0.2,2.9,-27.7,0.96,0,-0.01,0.27
1697352320.61,0.18,-0.32,1.03,-0.2,2.9,-27.7,0.96,0,-0.01,0.27
1697352320.62,0.18,-0.32,1.03,-0.2,2.9,-27.7,0.96,0,-0.01,0.27
1697352320.63,0.18,-0.32,1.03,-0.2,2.9,-27.7,0.96,0,-0.01,0.27
1697352320.64,-0.15,-0.17,1.36,0.7,-5.7,-14.3,0.97,0,-0.01,0.24
1697352320.65,-0.15,-0.17,1.36,2.1,-4.8,-13.3,0.97,0.01,-0.01,0.24
1697352320.66,0.17,-0.21,0.85,2.4,-3.5,-13,0.97,0.01,-0.01,0.24
1697352320.67,0.12,-0.24,0.94,1.2,-1.7,-13.1,0.97,0.01,-0.01,0.23
1697352320.68,0.28,-0.08,0.64,0.7,-0.3,-13.7,0.97,0.01,-0.01,0.23
1697352320.69,-0.03,-0.24,1.27,0.5,1.5,-13.2,0.97,0.01,-0.01,0.23
1697352320.7,0,-0.1,1.16,2.3,2.7,-13.5,0.97,0.01,-0.01,0.23
1697352320.71,0.19,-0.33,1.05,3.2,3.5,-13.3,0.97,0.01,-0.01,0.23
1697352320.72,0.37,-0.47,0.79,2.2,2.9,-13.4,0.97,0.01,-0.01,0.23
1697352320.73,0.43,-0.29,0.73,-2.3,1.7,-13.6,0.97,0.01,-0.01,0.23
1697352320.74,0.15,-0.17,1.27,-6.3,0.8,-14.2,0.97,0.01,-0.01,0.23
1697352320.75,-0.05,-0.08,1.28,-6.9,-0.5,-14.7,0.97,0.01,-0.01,0.23
1697352320.76,0.15,0,0.92,-3,-2,-14.9,0.97,0.01,-0.01,0.22
1697352320.77,-0.1,0.03,1.46,1.9,-2.7,-15.1,0.97,0,-0.01,0.22
1697352320.78,-0.07,-0.21,1.3,4.7,-2.2,-15,0.98,0.01,-0.01,0.22
1697352320.79,0.3,-0.33,0.67,3.9,-1.7,-14.9,0.98,0.01,-0.01,0.22
1697352320.8,-0.01,-0.33,1.23,1.4,-0.9,-14.4,0.98,0.01,-0.01,0.22
1697352320.81,0.22,-0.35,0.74,-1.1,0.4,-13.5,0.98,0.01,-0.01,0.22
1697352320.82,0.07,-0.21,1.14,-1.6,1.2,-12.3,0.98,0.01,-0.01,0.22
1697352320.83,0.11,-0.09,1.09,0.4,1.6,-10.9,0.98,0.01,-0.01,0.21
1697352320.84,0.23,-0.24,0.73,4.1,1.1,-10.2,0.98,0.01,-0.01,0.21
1697352320.85,0.18,-0.25,0.9,5.3,0.2,-9.5,0.98,0.01,-0.01,0.21
1697352320.86,0.03,-0.47,1.13,3.7,-1.2,-9.8,0.98,0.01,-0.01,0.21
1697352320.87,-0.08,-0.52,1.17,-1.1,-1.8,-10.9,0.98,0.01,-0.01,0.21
1697352320.88,-0.08,-0.52,1.17,-1.1,-1.8,-10.9,0.98,0.01,-0.01,0.21
1697352320.89,0.21,-0.38,0.44,-5.7,-1.9,-12.2,0.98,0.01,-0.01,0.21
1697352320.9,0.12,0.05,0.76,-6.4,-1.8,-13.4,0.98,0.01,-0.01,0.21
1697352320.91,-0.03,0.15,1.44,1.1,-1.6,-13.6,0.98,0.01,-0.01,0.21
1697352320.92,0,-0.14,0.95,2.2,-1.1,-13.4,0.98,0.01,-0.01,0.21
1697352320.93,0,-0.14,0.95,2.2,-1.1,-13.4,0.98,0.01,-0.01,0.21
1697352320.94,0.22,-0.35,0.99,0.8,-0.5,-12.9,0.98,0.01,-0.01,0.2
1697352320.95,0.22,-0.35,0.99,-1.5,0.2,-12.2,0.98,0.01,-0.01,0.2
1697352320.96,0.05,-0.32,1.58,-2.2,0.5,-12,0.98,0.01,-0.01,0.2
1697352320.97,0.07,0.02,0.94,-3.3,0.3,-11.3,0.98,0.01,-0.01,0.2
1697352320.98,0.07,-0.06,0.84,-0.3,1.7,-9.6,0.98,0.01,-0.01,0.2
1697352320.99,-0.08,-0.23,1.1,3.9,2.7,-8.7,0.98,0.01,-0.01,0.2
1697352321,0.02,-0.23,0.92,6.8,3.4,-8.6,0.98,0.01,-0.01,0.2
1697352321.01,0.1,-0.23,0.91,5.2,2.7,-8.1,0.98,0.01,-0.01,0.2
1697352321.02,0.1,-0.23,0.91,5.2,2.7,-8.1,0.98,0.01,-0.01,0.2
1697352321.03,0.1,-0.23,0.91,5.2,2.7,-8.1,0.98,0.01,-0.01,0.2
1697352321.04,0.1,-0.23,0.91,5.2,2.7,-8.1,0.98,0.01,-0.01,0.2
1697352321.05,0.1,-0.23,0.91,5.2,2.7,-8.1,0.98,0.01,-0.01,0.2
1697352321.06,0.1,-0.23,0.91,5.2,2.7,-8.1,0.98,0.01,-0.01,0.2
1697352321.07,0.1,-0.23,0.91,5.2,2.7,-8.1,0.98,0.01,-0.01,0.2
1697352321.08,0.1,-0.23,0.91,5.2,2.7,-8.1,0.98,0.01,-0.01,0.2
1697352321.09,0.1,-0.23,0.91,5.2,2.7,-8.1,0.98,0.01,-0.01,0.2
1697352321.1,0.1,-0.23,0.91,5.2,2.7,-8.1,0.98,0.01,-0.01,0.2
1697352321.11,0.1,-0.23,0.91,5.2,2.7,-8.1,0.98,0.01,-0.01,0.2
1697352321.12,0.1,-0.23,0.91,5.2,2.7,-8.1,0.98,0.01,-0.01,0.2
1697352321.13,0.1,-0.23,0.91,5.2,2.7,-8.1,0.98,0.01,-0.01,0.2
1697352321.14,0.1,-0.23,0.91,5.2,2.7,-8.1,0.98,0.01,-0.01,0.2
1697352321.15,0.1,-0.23,0.91,5.2,2.7,-8.1,0.98,0.01,-0.01,0.2
1697352321.16,0.15,0.83,0.95,-1.3,4.4,14.5,0.98,0.01,-0.01,0.2
1697352321.17,0.05,1.16,1.45,-0.9,3.8,17.8,0.98,0.01,-0.01,0.21
1697352321.18,0.1,0.87,1.06,5.3,2,22,0.98,0.01,-0.01,0.21
1697352321.19,-0.01,0.75,1.3,10.1,-0.1,25,0.98,0.01,-0.01,0.21
1697352321.2,0.05,0.34,0.97,9.8,-2.7,26.8,0.98,0.01,-0.01,0.21
1697352321.21,0.06,0.32,0.98,3.1,-5.4,28,0.98,0.01,-0.01,0.21
1697352321.22,0.04,0.5,0.99,-4.7,-6.4,28.3,0.98,0.01,-0.01,0.22
1697352321.23,-0.06,0.78,0.99,-8.7,-6.8,28.2,0.98,0.01,-0.01,0.22
1697352321.24,-0.08,1.01,0.98,-6.5,-6.5,28.1,0.98,0.01,-0.01,0.22
1697352321.25,-0.08,1.01,0.98,-6.5,-6.5,28.1,0.98,0.01,-0.01,0.22
1697352321.26,0.12,0.37,0.87,9,-6.9,28.1,0.97,0.01,-0.01,0.22
1697352321.27,0.06,0.06,0.96,11,-7.4,26.5,0.97,0.01,-0.01,0.23
1697352321.28,0.08,0.18,1.45,11,-7.4,26.5,0.97,0.01,-0.01,0.23
1697352321.29,0.12,0.53,0.73,-2.9,-6.6,24.5,0.97,0.01,-0.01,0.23
1697352321.3,0.12,0.53,0.73,-6.6,-5.2,24.6,0.97,0.01,-0.01,0.23
1697352321.31,-0.08,1.02,0.91,1.1,-2.7,27.3,0.97,0.01,-0.01,0.24
1697352321.32,0.04,0.88,0.94,5.5,-1.1,29.5,0.97,0.01,-0.01,0.24
1697352321.33,0.04,0.88,0.94,5.5,-1.1,29.5,0.97,0.01,-0.01,0.24
1697352321.34,-0.08,0.85,1.07,5.9,0.5,31.5,0.97,0.01,-0.01,0.24
1697352321.35,-0.21,0.46,1.11,3.2,1.6,32.4,0.97,0.01,-0.01,0.25
1697352321.36,-0.12,0.46,0.91,-2.6,2.2,33.6,0.97,0.01,-0.01,0.25
1697352321.37,-0.14,0.58,1.34,-8,2.2,35.1,0.97,0.01,-0.01,0.25
1697352321.38,-0.21,0.75,1.17,-8.7,0.8,36.2,0.97,0.01,-0.01,0.25
1697352321.39,0.11,0.95,0.96,-4.6,0.7,37,0.97,0.01,-0.01,0.26
1697352321.4,-0.19,0.96,1.24,2.6,0.6,37.3,0.97,0.01,-0.01,0.26
1697352321.41,-0.14,0.68,1.09,7.5,1.3,36.4,0.96,0.01,-0.01,0.26
1697352321.42,-0.04,0.35,0.79,7.4,2.9,34.4,0.96,0.01,-0.01,0.27
1697352321.43,-0.21,0.22,1.33,3.4,3.6,32.1,0.96,0.01,-0.01,0.27
1697352321.44,-0.05,0.24,0.87,-0.9,3.8,29.9,0.96,0.01,-0.01,0.27
1697352321.45,-0.17,0.4,1.05,-3.5,3.2,28.5,0.96,0.01,-0.01,0.27
1697352321.46,-0.21,0.79,0.76,-2.7,2.2,27.6,0.96,0.01,-0.01,0.28
1697352321.47,-0.4,0.81,1.27,0.9,1.2,27.1,0.96,0.01,-0.01,0.28
1697352321.48,-0.45,0.66,1.02,4,0.8,26.9,0.96,0.01,-0.01,0.28
1697352321.49,-0.36,0.55,0.79,4.2,-0.2,26.8,0.96,0.01,-0.01,0.28
1697352321.5,-0.09,0.43,0.91,4.2,-0.2,26.8,0.96,0.01,-0.01,0.28
1697352321.51,-0.07,0.61,0.72,-3.1,-2.7,29.2,0.96,0.01,-0.01,0.29
1697352321.52,-0.1,0.73,0.96,-3.1,-2.7,29.2,0.96,0.01,-0.01,0.29
1697352321.53,-0.12,0.99,0.91,-0.4,-1.6,32.9,0.96,0.01,-0.01,0.3
1697352321.54,-0.12,0.99,0.91,-0.4,-1.6,32.9,0.96,0.01,-0.01,0.3
1697352321.55,-0.12,0.99,0.91,-0.4,-1.6,32.9,0.96,0.01,-0.01,0.3
1697352321.56,-0.12,0.99,0.91,-0.4,-1.6,32.9,0.96,0.01,-0.01,0.3
1697352321.57,-0.12,0.99,0.91,-0.4,-1.6,32.9,0.96,0.01,-0.01,0.3
1697352321.58,-0.12,0.99,0.91,-0.4,-1.6,32.9,0.96,0.01,-0.01,0.3
1697352321.59,-0.12,0.99,0.91,-0.4,-1.6,32.9,0.96,0.01,-0.01,0.3
1697352321.6,-0.12,0.99,0.91,-0.4,-1.6,32.9,0.96,0.01,-0.01,0.3
1697352321.61,-0.12,0.99,0.91,-0.4,-1.6,32.9,0.96,0.01,-0.01,0.3
1697352321.62,-0.12,0.99,0.91,-0.4,-1.6,32.9,0.96,0.01,-0.01,0.3
1697352321.63,-0.12,0.99,0.91,-0.4,-1.6,32.9,0.96,0.01,-0.01,0.3
1697352321.64,-0.12,0.99,0.91,-0.4,-1.6,32.9,0.96,0.01,-0.01,0.3
1697352321.65,-0.12,0.99,0.91,-0.4,-1.6,32.9,0.96,0.01,-0.01,0.3
1697352321.66,-0.12,0.99,0.91,-0.4,-1.6,32.9,0.96,0.01,-0.01,0.3
1697352321.67,-0.12,0.99,0.91,-0.4,-1.6,32.9,0.96,0.01,-0.01,0.3
1697352321.68,-0.13,1.13,1.01,-0.7,3.7,57.8,0.93,0.01,-0.01,0.35
1697352321.69,-0.06,1.2,0.65,-0.3,2.6,58.9,0.93,0.01,-0.01,0.36
1697352321.7,-0.24,1.11,1.32,1.2,1.7,59.3,0.93,0.01,-0.01,0.36
1697352321.71,-0.03,1.05,0.76,2.9,1.4,59.5,0.93,0.01,-0.01,0.37
1697352321.72,-0.31,1.13,1.11,3.4,1,59.2,0.93,0.01,-0.01,0.37
1697352321.73,-0.2,1.06,0.92,3.6,0.5,59.2,0.93,0.01,-0.01,0.38
1697352321.74,-0.28,0.96,0.55,3.4,0.6,58.7,0.92,0.01,-0.01,0.38
1697352321.75,-0.42,0.95,0.98,4.6,1.8,57.4,0.92,0.01,-0.01,0.39
1697352321.76,-0.21,1.24,0.71,1.7,2.9,56.2,0.92,0.01,-0.01,0.39
1697352321.77,-0.23,1.2,0.71,-0.4,4.2,54.6,0.92,0.01,-0,0.4
1697352321.78,-0.15,1.11,0.95,1.2,4.7,54.5,0.92,0.01,-0,0.4
1697352321.79,-0.15,1.11,0.95,3,4.7,54.7,0.92,0.01,-0,0.4
1697352321.8,-0.21,1.03,1.17,4.6,3.8,55,0.91,0.01,-0,0.41
1697352321.81,-0.06,0.87,0.89,3.4,2.5,56.1,0.91,0.01,-0,0.42
1697352321.82,-0.01,0.93,0.8,-4.3,0.4,57.9,0.91,0.01,-0,0.42
1697352321.83,-0.15,1.04,1.24,-5.5,-0.4,58.5,0.91,0.01,-0,0.42
1697352321.84,-0.11,1.16,1.05,-4.5,-0.7,58.9,0.9,0.01,-0,0.43
1697352321.85,-0.2,1.27,0.98,-1.6,-0.7,59.3,0.9,0.01,-0,0.43
1697352321.86,-0.25,1.18,0.82,1,0.1,59.1,0.9,0.01,-0,0.44
1697352321.87,-0.1,1.09,0.5,2.2,1.3,58.4,0.9,0.01,-0,0.44
1697352321.88,-0.31,1.03,1.3,3.1,2.7,57.5,0.89,0.01,-0,0.45
1697352321.89,-0.11,1.01,0.8,3.1,3.9,56.8,0.89,0.01,-0,0.45
1697352321.9,-0.15,1.03,0.89,3.1,3.9,56.8,0.89,0.01,-0,0.45
1697352321.91,-0.19,0.98,0.98,3.5,4.4,55.6,0.89,0.01,-0,0.46
1697352321.92,-0.22,1.09,1.19,3.5,4.4,55.6,0.89,0.01,-0,0.46
1697352321.93,-0.22,1.09,1.19,4.5,3.9,55.8,0.88,0.01,-0,0.47
1697352321.94,-0.13,1.02,0.68,6,2.8,57.6,0.88,0.01,-0,0.48
1697352321.95,-0.13,1.02,0.68,6,2.8,57.6,0.88,0.01,-0,0.48
1697352321.96,-0.12,1.1,0.6,6,2.8,57.6,0.88,0.01,-0,0.48
1697352321.97,-0.35,1.23,1,1,2.4,59.2,0.87,0.01,-0,0.49
1697352321.98,-0.35,1.23,1,1,2.4,59.2,0.87,0.01,-0,0.49
1697352321.99,-0.29,1.24,0.88,0,2.3,60.8,0.87,0.01,-0,0.49
1697352322,-0.36,1.35,0.85,1.1,2.5,61.5,0.87,0.01,-0,0.5
1697352322.01,-0.33,1.26,1.24,2.6,2.7,63.6,0.86,0.01,-0,0.5
1697352322.02,-0.33,1.26,1.24,4,2.2,67.4,0.86,0.01,-0,0.51
1697352322.03,-0.01,1.37,0.53,3.1,0.9,70.1,0.86,0.01,0,0.51
1697352322.04,-0.46,1.21,1.66,3,0.7,71.8,0.85,0.01,0,0.52
1697352322.05,-0.08,1.29,0.59,2.8,0.4,72.2,0.85,0.01,0,0.53
1697352322.06,-0.2,1.32,0.61,1.5,0,74.2,0.85,0.01,0,0.53
1697352322.07,-0.2,1.32,0.61,1.5,0,74.2,0.85,0.01,0,0.53
1697352322.08,-0.2,1.32,0.61,1.5,0,74.2,0.85,0.01,0,0.53
1697352322.09,-0.2,1.32,0.61,1.5,0,74.2,0.85,0.01,0,0.53
1697352322.1,-0.2,1.32,0.61,1.5,0,74.2,0.85,0.01,0,0.53
1697352322.11,-0.2,1.32,0.61,1.5,0,74.2,0.85,0.01,0,0.53
1697352322.12,-0.2,1.32,0.61,1.5,0,74.2,0.85,0.01,0,0.53
1697352322.13,-0.2,1.32,0.61,1.5,0,74.2,0.85,0.01,0,0.53
1697352322.14,-0.2,1.32,0.61,1.5,0,74.2,0.85,0.01,0,0.53
1697352322.15,-0.2,1.32,0.61,1.5,0,74.2,0.85,0.01,0,0.53
1697352322.16,-0.2,1.32,0.61,1.5,0,74.2,0.85,0.01,0,0.53
1697352322.17,-0.2,1.32,0.61,1.5,0,74.2,0.85,0.01,0,0.53
1697352322.18,-0.2,1.32,0.61,1.5,0,74.2,0.85,0.01,0,0.53
1697352322.19,-0.2,1.32,0.61,1.5,0,74.2,0.85,0.01,0,0.53
1697352322.2,-0.31,1.38,1.06,1.5,0,74.2,0.79,0.02,0,0.61
1697352322.21,-0.37,1.6,1.04,0.9,2.9,78.4,0.79,0.02,0,0.61
1697352322.22,-0.34,1.33,1.08,1.8,3.1,78.8,0.78,0.02,0,0.62
1697352322.23,-0.33,1.36,0.71,1.6,2.7,78.8,0.78,0.02,0,0.63
1697352322.24,-0.45,1.33,1.41,1.2,2.6,79,0.77,0.02,0,0.63
1697352322.25,-0.33,1.32,0.68,1.2,2.6,79,0.77,0.02,0,0.63
1697352322.26,-0.4,1.25,1.26,-0.8,2.3,78.7,0.76,0.02,0,0.65
1697352322.27,-0.33,1.43,0.39,-1.2,2.6,78.7,0.76,0.02,0,0.65
1697352322.28,-0.49,1.28,1.42,-0.5,2.5,78.3,0.75,0.02,0,0.66
1697352322.29,-0.29,1.46,0.5,-0.5,2.5,78.3,0.75,0.02,0,0.66
1697352322.3,-0.29,1.46,0.5,0.6,2.9,78.3,0.75,0.01,0,0.66
1697352322.31,-0.29,1.25,0.94,1.1,2.8,77.8,0.74,0.01,0,0.67
1697352322.32,-0.1,1.28,0.28,0.4,3.2,77.8,0.74,0.01,0,0.67
1697352322.33,-0.1,1.28,0.28,-0.5,2.8,78.1,0.74,0.01,0,0.68
1697352322.34,-0.51,1.27,1.43,-0.7,2.6,78,0.73,0.01,0,0.68
1697352322.35,-0.23,1.36,0.56,-0.8,2.9,77.9,0.73,0.01,0,0.69
1697352322.36,-0.38,1.34,0.74,-0.4,2.9,78.1,0.72,0.01,0,0.69
1697352322.37,-0.39,1.34,1.25,-0.2,3,78.1,0.72,0.01,0,0.7
1697352322.38,-0.17,1.28,0.82,0.5,2.7,78.3,0.71,0.01,0,0.7
1697352322.39,-0.14,1.31,0.92,1.3,2.4,78.7,0.71,0.01,0,0.71
1697352322.4,-0.21,1.2,0.79,1.7,1.5,78.8,0.7,0.01,0,0.71
1697352322.41,-0.18,1.17,1.28,-0.6,1.3,79.5,0.7,0.01,0,0.72
1697352322.42,-0.24,1.34,1.16,-2.3,1.1,79.9,0.69,0.01,0,0.72
1697352322.43,-0.14,1.17,0.83,-4.4,0.5,79.4,0.69,0.01,0,0.73
1697352322.44,-0.18,1.57,1.06,-3.5,1.9,79.5,0.68,0.01,0,0.73
1697352322.45,-0.24,1.12,0.67,-1.5,2.4,78.1,0.68,0.01,0,0.74
1697352322.46,-0.44,1.44,1.42,0.5,3.2,77.8,0.67,0.01,0,0.74
1697352322.47,-0.21,1.06,0.92,3.1,3.4,75.8,0.66,0.01,0,0.75
1697352322.48,-0.21,1.27,0.68,2,4.2,76.1,0.66,0.01,0,0.75
1697352322.49,-0.35,1.09,1.33,0.4,4.4,75.4,0.65,0.01,0,0.76
1697352322.5,-0.28,1.32,0.92,-1,4.6,75.7,0.65,0.01,0,0.76
1697352322.51,-0.27,1.21,0.95,-2.2,3.8,76,0.64,0.01,0,0.77
1697352322.52,-0.36,1.51,1.19,-2,3.8,77,0.64,0.01,0,0.77
1697352322.53,-0.04,1.28,0.66,-0.8,3.2,77.9,0.63,0.01,0,0.77
1697352322.54,-0.22,1.26,1.32,0.5,2.2,79.4,0.63,0.01,0,0.78
1697352322.55,-0.11,1.43,1.05,1.3,1.3,80.3,0.63,0.01,0,0.78
1697352322.56,-0.17,1.19,0.99,1.3,1.3,80.3,0.62,0.01,0,0.78
1697352322.57,-0.17,1.19,0.99,1.2,0.6,81.4,0.62,0.01,0,0.79
1697352322.58,-0.21,1.17,1.38,1.2,0.6,81.4,0.61,0.01,0,0.79
1697352322.59,-0.21,1.17,1.38,0.8,0.6,80.6,0.6,0.01,0,0.8
1697352322.6,-0.21,1.17,1.38,0.8,0.6,80.6,0.6,0.01,0,0.8
1697352322.61,-0.21,1.17,1.38,0.8,0.6,80.6,0.6,0.01,0,0.8
1697352322.62,-0.21,1.17,1.38,0.8,0.6,80.6,0.6,0.01,0,0.8
1697352322.63,-0.21,1.17,1.38,0.8,0.6,80.6,0.6,0.01,0,0.8
1697352322.64,-0.21,1.17,1.38,0.8,0.6,80.6,0.6,0.01,0,0.8
1697352322.65,-0.21,1.17,1.38,0.8,0.6,80.6,0.6,0.01,0,0.8
1697352322.66,-0.21,1.17,1.38,0.8,0.6,80.6,0.6,0.01,0,0.8
1697352322.67,-0.21,1.17,1.38,0.8,0.6,80.6,0.6,0.01,0,0.8
1697352322.68,-0.21,1.17,1.38,0.8,0.6,80.6,0.6,0.01,0,0.8
1697352322.69,-0.21,1.17,1.38,0.8,0.6,80.6,0.6,0.01,0,0.8
1697352322.7,-0.21,1.17,1.38,0.8,0.6,80.6,0.6,0.01,0,0.8
1697352322.71,-0.21,1.17,1.38,0.8,0.6,80.6,0.6,0.01,0,0.8
1697352322.72,0.03,0.54,1.15,-4.3,0.3,28.3,0.56,0.01,-0,0.83
1697352322.73,0.14,0.41,0.66,-4.6,-0.1,28.5,0.56,0.01,-0,0.83
1697352322.74,0.14,0.41,0.66,-4.1,-0.4,29.3,0.56,0.01,-0,0.83
1697352322.75,-0.01,0.36,0.81,-4.2,-0.4,30.6,0.55,0.01,-0,0.83
1697352322.76,-0,0.45,1.32,-4.8,-0.1,32.2,0.55,0.01,-0,0.84
1697352322.77,0.06,0.4,0.89,-5.2,0.6,34,0.55,0.01,-0,0.84
1697352322.78,0.1,0.51,0.7,-5.2,0.6,34,0.55,0.01,-0,0.84
1697352322.79,0.04,0.53,1.21,-2.9,1.5,36.6,0.54,0,-0,0.84
1697352322.8,0.04,0.53,1.21,-2.9,1.5,36.6,0.54,0,-0,0.84
1697352322.81,-0.02,0.42,1.21,3.5,2.4,37,0.53,0,-0,0.85
1697352322.82,0.19,0.45,0.85,4.9,2.5,36.7,0.53,0,-0,0.85
1697352322.83,0.07,0.49,1.37,3.5,2.3,36.2,0.53,0,-0,0.85
1697352322.84,0.16,0.69,0.8,1.5,1.7,35.6,0.53,0,-0,0.85
1697352322.85,0.14,0.72,0.68,0,-0.4,34.6,0.52,0,-0,0.85
1697352322.86,-0.06,0.69,1.46,-0.3,-1.7,34.4,0.52,0,-0,0.85
1697352322.87,0,0.6,0.61,-0.3,-1.7,34.4,0.52,0,-0,0.85
1697352322.88,0.07,0.49,1.27,2.6,-3,33.1,0.52,0.01,-0,0.86
1697352322.89,0.1,0.52,0.81,2.6,-3,33.1,0.52,0.01,-0,0.86
1697352322.9,0.1,0.52,0.81,0,-2.3,31.4,0.51,0.01,-0,0.86
1697352322.91,0.09,0.6,0.84,-1.9,-1.5,30.7,0.51,0.01,-0,0.86
1697352322.92,0.01,0.58,1.37,-2.9,-0.5,30.6,0.51,0.01,-0,0.86
1697352322.93,0.15,0.37,0.88,-2.4,0.6,30.4,0.5,0.01,-0,0.86
1697352322.94,0.15,0.37,0.88,-2.4,0.6,30.4,0.5,0.01,-0,0.86
1697352322.95,0.17,0.21,0.94,-1.8,1.7,30.3,0.5,0.01,-0,0.87
1697352322.96,0.13,0.22,0.94,-2.1,2.1,29.8,0.5,0,-0,0.87
1697352322.97,0.13,0.22,0.94,-5.7,2.2,27.2,0.5,0,-0,0.87
1697352322.98,0.19,0.13,1.1,-5.7,2.1,25.2,0.5,0,-0,0.87
1697352322.99,0.1,0.17,0.8,-4.7,1.6,23.5,0.49,0,-0,0.87
1697352323,0.21,0.1,0.4,-3.6,0.4,20.2,0.49,0,-0,0.87
1697352323.01,0.17,0,1.48,-4.7,-0.2,18.4,0.49,0,-0,0.87
1697352323.02,0.25,0.04,0.53,-3.9,-0.8,15.8,0.49,0,-0.01,0.87
1697352323.03,0.19,0.12,1.13,-3.9,-0.8,15.2,0.49,0,-0.01,0.87
1697352323.04,0.11,0.09,0.83,-3.2,-1.5,13.3,0.49,0,-0.01,0.87
1697352323.05,0.14,0,1.18,-1.7,-1.9,11.6,0.49,0,-0.01,0.87
1697352323.06,0.17,-0.06,0.92,-2.1,-2.2,10,0.49,0,-0.01,0.87
1697352323.07,0.1,-0.04,1.21,-4,-2.6,9.2,0.48,0,-0.01,0.87
1697352323.08,0.14,-0.03,0.95,-5.5,-2.4,8.3,0.48,0,-0.01,0.88
1697352323.09,0.1,-0.01,1.22,-5.8,-2,7.6,0.48,0,-0.01,0.88
1697352323.1,0.2,-0.2,1.06,-4.3,-1.4,6.8,0.48,0,-0.01,0.88
1697352323.11,0.2,-0.2,1.06,-4.3,-1.4,6.8,0.48,0,-0.01,0.88
1697352323.12,0.2,-0.2,1.06,-4.3,-1.4,6.8,0.48,0,-0.01,0.88
1697352323.13,0.2,-0.2,1.06,-4.3,-1.4,6.8,0.48,0,-0.01,0.88
1697352323.14,0.2,-0.2,1.06,-4.3,-1.4,6.8,0.48,0,-0.01,0.88
1697352323.15,0.2,-0.2,1.06,-4.3,-1.4,6.8,0.48,0,-0.01,0.88
1697352323.16,0.2,-0.2,1.06,-4.3,-1.4,6.8,0.48,0,-0.01,0.88
1697352323.17,0.2,-0.2,1.06,-4.3,-1.4,6.8,0.48,0,-0.01,0.88
1697352323.18,0.2,-0.2,1.06,-4.3,-1.4,6.8,0.48,0,-0.01,0.88
1697352323.19,0.2,-0.2,1.06,-4.3,-1.4,6.8,0.48,0,-0.01,0.88
1697352323.2,0.2,-0.2,1.06,-4.3,-1.4,6.8,0.48,0,-0.01,0.88
1697352323.21,0.2,-0.2,1.06,-4.3,-1.4,6.8,0.48,0,-0.01,0.88
1697352323.22,0.2,-0.2,1.06,-4.3,-1.4,6.8,0.48,0,-0.01,0.88
1697352323.23,0.2,-0.2,1.06,-4.3,-1.4,6.8,0.48,0,-0.01,0.88
1697352323.24,0.19,-0.86,1.05,-4.1,0,-28.2,0.48,0,-0.01,0.88
1697352323.25,0.19,-0.86,1.05,-3.6,0,-29.2,0.5,0,-0.01,0.86
1697352323.26,0.17,-0.73,0.55,-4.4,0,-30.2,0.5,-0,-0.02,0.86
1697352323.27,0.25,-0.82,0.47,-1,-0.1,-31.4,0.51,-0,-0.02,0.86
1697352323.28,0.25,-0.82,0.47,-1,-0.1,-31.4,0.51,-0,-0.02,0.86
1697352323.29,-0.24,-1.3,1.34,1.9,0.7,-33.8,0.51,0,-0.01,0.86
1697352323.3,-0.24,-1.3,1.34,-1.2,1.7,-37.9,0.51,-0,-0.01,0.86
1697352323.31,-0.02,-0.72,0.74,-3.4,1.8,-39.1,0.52,-0,-0.02,0.86
1697352323.32,0.07,-0.95,0.74,-3.2,2.3,-41.3,0.52,-0,-0.02,0.85
1697352323.33,0.03,-0.99,0.92,-4.3,2.8,-42.8,0.52,-0,-0.02,0.85
1697352323.34,0.08,-0.9,0.45,-4.3,2.9,-44.8,0.53,-0,-0.02,0.85
1697352323.35,0.04,-1.05,0.97,-4.6,1.7,-47.1,0.53,-0,-0.02,0.85
1697352323.36,0,-1.14,1.09,-4,1.5,-50.2,0.53,-0,-0.02,0.85
1697352323.37,-0.08,-0.98,0.46,-3.6,1.2,-52.8,0.54,-0,-0.02,0.84
1697352323.38,-0.32,-1.1,1.3,-2.4,0.7,-55.5,0.54,-0,-0.02,0.84
1697352323.39,-0.07,-1.05,0.85,-1.5,0.6,-57,0.55,-0,-0.02,0.84
1697352323.4,-0.24,-1.07,0.96,-0.6,0.3,-58.6,0.55,-0,-0.02,0.83
1697352323.41,-0.13,-1.11,1.11,-0.9,0.3,-59.4,0.56,-0,-0.02,0.83
1697352323.42,-0.22,-1.02,0.82,-1.7,0.8,-59.7,0.56,-0,-0.02,0.83
1697352323.43,-0.2,-1.03,1.2,-1.4,1.6,-59.4,0.56,-0,-0.02,0.83
1697352323.44,-0.21,-1.04,0.72,-2,2.7,-58.8,0.57,-0,-0.02,0.82
1697352323.45,-0.19,-1.04,1.01,-1.9,3.3,-58.1,0.57,-0,-0.02,0.82
1697352323.46,-0.25,-1.06,1.13,-1.9,3.4,-57.6,0.58,-0,-0.02,0.82
1697352323.47,-0.21,-1.1,1.12,-2.9,3.5,-57.2,0.58,-0,-0.02,0.81
1697352323.48,0.03,-0.8,0.82,-0.5,2.2,-56.3,0.59,-0,-0.02,0.81
1697352323.49,-0.32,-1.12,0.96,0.1,1.9,-56.4,0.59,-0,-0.02,0.81
1697352323.5,-0.19,-0.99,1.13,1.5,1.8,-57,0.59,-0,-0.02,0.81
1697352323.51,-0.31,-1.1,0.85,0.5,2.4,-55.8,0.6,-0,-0.02,0.8
1697352323.52,-0.37,-1.24,1.39,-1.9,2.2,-55.5,0.6,-0,-0.02,0.8
1697352323.53,-0.22,-1.34,0.97,-2.8,1.7,-56.6,0.61,-0,-0.02,0.8
1697352323.54,-0.32,-1.2,1.43,-3,1.4,-58,0.61,-0,-0.02,0.79
1697352323.55,-0.03,-1.18,0.99,-2.1,0.8,-59.8,0.61,-0,-0.02,0.79
1697352323.56,-0.01,-1.19,0.73,-1.8,0.4,-60.2,0.61,-0,-0.02,0.79
1697352323.57,-0.21,-1.19,1.24,-0.9,0.5,-62.2,0.62,-0,-0.02,0.79
1697352323.58,-0.21,-1.2,0.97,-0.9,0.5,-63.9,0.62,-0,-0.02,0.78
1697352323.59,-0.21,-1.16,0.89,-1.1,0.7,-65.5,0.63,-0,-0.02,0.78
1697352323.6,-0.08,-1.18,0.89,-1.9,0.6,-66.8,0.63,-0,-0.02,0.77
1697352323.61,0.03,-1.11,0.98,-1.9,0.6,-66.8,0.64,-0,-0.02,0.77
1697352323.62,0.03,-1.11,0.98,-1.9,0.8,-67.9,0.64,-0,-0.02,0.77
1697352323.63,0.03,-1.11,0.98,-1.9,0.8,-67.9,0.64,-0,-0.02,0.77
1697352323.64,0.03,-1.11,0.98,-1.9,0.8,-67.9,0.64,-0,-0.02,0.77
1697352323.65,0.03,-1.11,0.98,-1.9,0.8,-67.9,0.64,-0,-0.02,0.77
1697352323.66,0.03,-1.11,0.98,-1.9,0.8,-67.9,0.64,-0,-0.02,0.77
1697352323.67,0.03,-1.11,0.98,-1.9,0.8,-67.9,0.64,-0,-0.02,0.77
1697352323.68,0.03,-1.11,0.98,-1.9,0.8,-67.9,0.64,-0,-0.02,0.77
1697352323.69,0.03,-1.11,0.98,-1.9,0.8,-67.9,0.64,-0,-0.02,0.77
1697352323.7,0.03,-1.11,0.98,-1.9,0.8,-67.9,0.64,-0,-0.02,0.77
1697352323.71,0.03,-1.11,0.98,-1.9,0.8,-67.9,0.64,-0,-0.02,0.77
1697352323.72,0.03,-1.11,0.98,-1.9,0.8,-67.9,0.64,-0,-0.02,0.77
1697352323.73,0.03,-1.11,0.98,-1.9,0.8,-67.9,0.64,-0,-0.02,0.77
1697352323.74,0.03,-1.11,0.98,-1.9,0.8,-67.9,0.64,-0,-0.02,0.77
1697352323.75,0.03,-1.11,0.98,-1.9,0.8,-67.9,0.64,-0,-0.02,0.77
1697352323.76,0.13,-0.77,1.18,0.5,0,-57.8,0.7,-0,-0.02,0.71
1697352323.77,0.26,-0.68,0.93,-1.1,-0.2,-54.1,0.7,-0,-0.02,0.71
1697352323.78,0.14,-0.7,1.21,0.6,0,-51.7,0.71,-0,-0.02,0.71
1697352323.79,0.04,-0.82,0.95,1.6,0.7,-49.3,0.71,-0,-0.02,0.7
1697352323.8,-0.03,-0.98,1.15,2,2,-48.2,0.71,-0,-0.02,0.7
1697352323.81,-0.02,-0.92,1.22,1.9,3.2,-48.7,0.72,-0,-0.02,0.7
1697352323.82,-0.11,-0.93,1.05,0.3,4.1,-48.7,0.72,-0,-0.02,0.69
1697352323.83,0.01,-0.83,1.15,0.7,4.4,-50.2,0.72,-0,-0.02,0.69
1697352323.84,0.02,-0.85,1.39,1.6,4,-50.8,0.73,-0,-0.02,0.69
1697352323.85,0.21,-0.84,0.65,4.3,3,-51,0.73,-0,-0.02,0.69
1697352323.86,0.05,-0.93,1.44,4.7,1.5,-51.5,0.73,-0,-0.01,0.68
1697352323.87,-0.02,-1.24,0.72,2.9,0.3,-51.8,0.73,-0,-0.01,0.68
1697352323.88,0.31,-0.58,0.04,1.5,0.9,-53.2,0.74,-0,-0.01,0.67
1697352323.89,-0.07,-1.04,1.3,-0.7,0.5,-53,0.74,-0,-0.01,0.67
1697352323.9,0.15,-0.9,0.48,-1.8,-0.6,-53.6,0.75,-0,-0.01,0.67
1697352323.91,0.08,-0.66,1.2,-3.2,-1.1,-53.8,0.75,-0,-0.01,0.67
1697352323.92,-0.05,-0.85,1.34,-1.1,-1.5,-54,0.75,-0,-0.01,0.66
1697352323.93,-0.09,-0.87,1.05,-1.6,-1.8,-53.6,0.75,-0,-0.02,0.66
1697352323.94,0.16,-0.86,1.06,-1.6,-1,-53.2,0.75,-0,-0.02,0.66
1697352323.95,-0.17,-0.87,1.75,-0.9,0,-52.8,0.76,-0,-0.02,0.65
1697352323.96,0.1,-0.91,0.73,0,0.6,-51.8,0.76,-0,-0.02,0.65
1697352323.97,-0.11,-0.94,1.44,0.6,1.1,-51.2,0.76,-0,-0.02,0.65
1697352323.98,0.26,-0.89,0.48,-0.6,2.5,-50.6,0.77,-0,-0.02,0.64
1697352323.99,0.08,-0.91,0.88,-0.3,3.3,-49.8,0.77,-0,-0.02,0.64
1697352324,-0.07,-0.77,1.24,1.2,3.4,-49.7,0.77,-0,-0.01,0.63
1697352324.01,0.35,-0.94,0.34,4,3.1,-49.9,0.78,-0,-0.01,0.63
1697352324.02,0,-1.03,1.04,4.6,2.2,-50.7,0.78,-0,-0.01,0.63
1697352324.03,0.17,-1.08,0.47,4.6,2.2,-50.7,0.78,-0,-0.01,0.62
1697352324.04,-0.14,-1.05,1.51,-0.9,0,-52.9,0.78,-0,-0.01,0.62
1697352324.05,0.32,-0.77,0.77,-3.4,-1.3,-53.9,0.79,-0,-0.01,0.62
1697352324.06,0.35,-0.41,0.97,-0.9,-1.6,-53.1,0.79,-0,-0.01,0.61
1697352324.07,0.35,-0.46,1.15,2.9,-1.6,-51.2,0.79,-0,-0.01,0.61
1697352324.08,0.33,-0.39,0.97,2.9,-1.6,-51.2,0.8,-0,-0.01,0.61
1697352324.09,0.45,-0.34,0.74,4.9,-0.2,-45.6,0.8,-0,-0.01,0.6
1697352324.1,0.45,-0.34,0.74,4.9,-0.2,-45.6,0.8,-0,-0.01,0.6
1697352324.11,0.24,-0.17,1.1,2.8,0.7,-41.2,0.8,-0,-0.01,0.6
1697352324.12,0.24,-0.17,1.1,1.7,1.2,-36.8,0.81,-0,-0.01,0.59
1697352324.13,0.16,-0.33,1.08,1.4,1.9,-32.8,0.81,-0,-0.01,0.59
1697352324.14,0.05,-0.21,1.24,3.2,2.4,-28.7,0.81,0,-0.01,0.59
1697352324.15,0.05,-0.21,1.24,3.2,2.4,-28.7,0.81,0,-0.01,0.59
1697352324.16,0.05,-0.21,1.24,3.2,2.4,-28.7,0.81,0,-0.01,0.59
1697352324.17,0.05,-0.21,1.24,3.2,2.4,-28.7,0.81,0,-0.01,0.59
1697352324.18,0.05,-0.21,1.24,3.2,2.4,-28.7,0.81,0,-0.01,0.59
1697352324.19,0.05,-0.21,1.24,3.2,2.4,-28.7,0.81,0,-0.01,0.59
1697352324.2,0.05,-0.21,1.24,3.2,2.4,-28.7,0.81,0,-0.01,0.59
1697352324.21,0.05,-0.21,1.24,3.2,2.4,-28.7,0.81,0,-0.01,0.59
1697352324.22,0.05,-0.21,1.24,3.2,2.4,-28.7,0.81,0,-0.01,0.59
1697352324.23,0.05,-0.21,1.24,3.2,2.4,-28.7,0.81,0,-0.01,0.59
1697352324.24,0.05,-0.21,1.24,3.2,2.4,-28.7,0.81,0,-0.01,0.59
1697352324.25,0.05,-0.21,1.24,3.2,2.4,-28.7,0.81,0,-0.01,0.59
1697352324.26,0.05,-0.21,1.24,3.2,2.4,-28.7,0.81,0,-0.01,0.59
1697352324.27,0.05,-0.21,1.24,3.2,2.4,-28.7,0.81,0,-0.01,0.59
1697352324.28,0.23,0.76,0.98,7.7,-1.2,13,0.82,0,-0.01,0.58
1697352324.29,0.23,0.61,1.15,9.8,-0.7,15.9,0.82,0,-0.01,0.58
1697352324.3,0.35,0.46,0.97,9.4,-0.5,18.6,0.82,0.01,-0.01,0.58
1697352324.31,0.32,0.46,1.29,7.5,-0.5,20.4,0.81,0.01,-0.01,0.58
1697352324.32,0.23,0.49,1.14,5.7,-0.5,21.7,0.81,0.01,-0.01,0.58
1697352324.33,0.14,0.46,1.34,4.7,-0.7,22.2,0.81,0.01,-0.01,0.58
1697352324.34,0.22,0.48,0.96,3.1,-0.6,22.4,0.81,0.01,-0.01,0.59
1697352324.35,0.14,0.57,0.86,2.5,-0.3,22,0.81,0.01,-0.01,0.59
1697352324.36,0.04,0.52,1.23,2.2,0,21.5,0.81,0.01,-0.01,0.59
1697352324.37,0.11,0.55,0.71,1.6,0.2,21,0.81,0.01,-0.01,0.59
1697352324.38,-0.02,0.41,1.31,1.3,1.1,21,0.81,0.01,-0.01,0.59
1697352324.39,0.11,0.59,0.91,-0.1,1.3,20.3,0.81,0.01,-0.01,0.59
1697352324.4,0.26,0.55,0.53,-1.2,1.5,20.3,0.8,0.01,-0.01,0.59
1697352324.41,0.11,0.63,1.11,-1.4,2,20.2,0.8,0.01,-0.01,0.6
1697352324.42,0.21,0.66,1.04,-1.4,2,20.2,0.8,0.01,-0.01,0.6
1697352324.43,0.04,0.52,1.05,-0.2,1,20.8,0.8,0.01,-0.01,0.6
1697352324.44,0.24,0.53,0.65,0.1,1,21,0.8,0.01,-0.01,0.6
1697352324.45,0.24,0.53,0.65,0.1,1,21,0.8,0.01,-0.01,0.6
1697352324.46,0.11,0.48,1.08,0.2,1.2,21.4,0.8,0.01,-0.01,0.6
1697352324.47,0.06,0.42,0.99,-0.1,1.1,24.1,0.8,0.01,-0.01,0.61
1697352324.48,-0.16,0.36,1.35,0,1.2,25.4,0.79,0.01,-0.01,0.61
1697352324.49,0.03,0.4,1.03,-0.2,1.4,26.3,0.79,0.01,-0.01,0.61
1697352324.5,0.03,0.4,1.03,-0.2,1.4,26.3,0.79,0.01,-0.01,0.61
1697352324.51,0.21,0.43,1.12,0.9,1.7,27.4,0.79,0.01,-0.01,0.61
1697352324.52,0.21,0.43,1.12,0.9,1.7,27.4,0.79,0.01,-0.01,0.61
1697352324.53,0.09,0.52,1.08,1.4,1.3,27.5,0.79,0.01,-0,0.62
1697352324.54,0.07,0.44,1.03,2.3,1.2,26.9,0.79,0.01,-0,0.62
1697352324.55,0.31,0.42,0.84,1.8,0.6,26.3,0.78,0.01,-0,0.62
1697352324.56,0.13,0.53,0.68,1.5,0.4,26.1,0.78,0.01,-0,0.62
1697352324.57,0.19,0.58,0.91,0.3,-0.2,25.9,0.78,0.01,-0,0.62
1697352324.58,0.08,0.58,1.1,0,-0.9,25.5,0.78,0.01,-0,0.63
1697352324.59,-0,0.58,0.98,0.1,-1.3,25.5,0.78,0.01,-0,0.63
1697352324.6,-0.06,0.6,1.08,0.2,-1.8,25.3,0.78,0.01,-0,0.63
1697352324.61,0.19,0.49,0.69,0.2,-1.6,25.1,0.78,0.01,-0.01,0.63
1697352324.62,0.12,0.51,1.07,0.2,-1.2,24.9,0.77,0.01,-0.01,0.63
1697352324.63,0.15,0.53,0.96,1.2,-1.1,24.6,0.77,0.01,-0.01,0.63
1697352324.64,0.14,0.45,0.97,1.1,-0.5,24.3,0.77,0.01,-0.01,0.64
1697352324.65,0.12,0.41,1.07,0.4,-0.3,24.3,0.77,0.01,-0.01,0.64
1697352324.66,0.1,0.59,0.88,0.1,0,24.2,0.77,0.01,-0.01,0.64
1697352324.67,0.01,0.61,0.97,-0.1,0.8,25,0.77,0.01,-0.01,0.64
1697352324.68,0.01,0.61,0.97,-0.1,0.8,25,0.77,0.01,-0.01,0.64
1697352324.69,0.01,0.61,0.97,-0.1,0.8,25,0.77,0.01,-0.01,0.64
1697352324.7,0.01,0.61,0.97,-0.1,0.8,25,0.77,0.01,-0.01,0.64
1697352324.71,0.01,0.61,0.97,-0.1,0.8,25,0.77,0.01,-0.01,0.64
1697352324.72,0.01,0.61,0.97,-0.1,0.8,25,0.77,0.01,-0.01,0.64
1697352324.73,0.01,0.61,0.97,-0.1,0.8,25,0.77,0.01,-0.01,0.64
1697352324.74,0.01,0.61,0.97,-0.1,0.8,25,0.77,0.01,-0.01,0.64
1697352324.75,0.01,0.61,0.97,-0.1,0.8,25,0.77,0.01,-0.01,0.64
1697352324.76,0.01,0.61,0.97,-0.1,0.8,25,0.77,0.01,-0.01,0.64
1697352324.77,0.01,0.61,0.97,-0.1,0.8,25,0.77,0.01,-0.01,0.64
1697352324.78,0.01,0.61,0.97,-0.1,0.8,25,0.77,0.01,-0.01,0.64
1697352324.79,0.01,0.61,0.97,-0.1,0.8,25,0.77,0.01,-0.01,0.64
1697352324.8,0.01,0.61,0.97,-0.1,0.8,25,0.77,0.01,-0.01,0.64
1697352324.81,0.08,0.42,1.02,-0.8,-1,27,0.75,0.01,-0,0.67
1697352324.82,0.08,0.42,1.02,-0.8,-1,27,0.74,0.01,-0,0.67
1697352324.83,0.13,0.7,0.91,-1.8,0.1,27.1,0.74,0.01,-0.01,0.67
1697352324.84,0.08,0.57,1.1,0.5,0,27.5,0.74,0.01,-0.01,0.67
1697352324.85,0.07,0.44,1,2.4,-0.5,27.2,0.74,0.01,-0.01,0.67
1697352324.86,0.15,0.41,0.97,2.2,-0.3,26.8,0.74,0.01,-0.01,0.67
1697352324.87,0.06,0.37,1.09,2.2,-0.3,26.8,0.74,0.01,-0,0.68
1697352324.88,0.02,0.62,0.83,-2.3,0.7,26.7,0.73,0.01,-0.01,0.68
1697352324.89,0.08,0.53,0.81,-2.1,1.4,26.7,0.73,0.01,-0.01,0.68
1697352324.9,0.08,0.53,0.81,-2.1,1.4,26.7,0.73,0.01,-0.01,0.68
1697352324.91,0.07,0.66,1.02,1.3,2.4,26.6,0.73,0.01,-0,0.68
1697352324.92,0.07,0.66,1.02,1.3,2.4,26.6,0.73,0.01,-0,0.69
1697352324.93,0.15,0.37,1.11,2.3,2.5,26.6,0.73,0.01,-0,0.69
1697352324.94,0.15,0.37,1.11,2.3,2.5,26.6,0.73,0.01,-0,0.69
1697352324.95,0.32,0.56,0.95,-0.9,1.1,26.1,0.72,0.01,-0,0.69
1697352324.96,0.32,0.56,0.95,-4.7,-0.7,26.2,0.72,0.01,-0,0.69
1697352324.97,-0.01,0.68,0.97,-6.2,-1.6,25.9,0.72,0.01,-0.01,0.69
1697352324.98,-0.01,0.68,0.97,-4.3,-1.6,25.2,0.72,0.01,-0.01,0.7
1697352324.99,-0.01,0.51,1.13,-0.1,-0.9,25,0.72,0.01,-0.01,0.7
1697352325,0.06,0.29,1.11,1.1,0,25.3,0.72,0.01,-0.01,0.7
1697352325.01,0.05,0.31,1.09,0.3,1,24.6,0.71,0.01,-0.01,0.7
1697352325.02,0.08,0.38,0.69,-1.9,1.7,24.1,0.71,0.01,-0.01,0.7
1697352325.03,0.17,0.58,0.85,-3.2,2.2,23.6,0.71,0.01,-0.01,0.7
1697352325.04,0.1,0.54,0.96,-1.8,1.7,23.8,0.71,0.01,-0.01,0.7
1697352325.05,0.15,0.41,1.12,0.7,0.7,23.8,0.71,0.01,-0.01,0.71
1697352325.06,0.19,0.43,1.09,2.5,-0.1,23.7,0.71,0.01,-0.01,0.71
1697352325.07,0.18,0.2,0.85,4.1,-1.5,23.5,0.71,0.01,-0.01,0.71
1697352325.08,0.14,0.15,1.15,2,-2.4,23.6,0.7,0.01,-0.01,0.71
1697352325.09,0.09,0.2,1.03,-1.8,-3.2,22.3,0.7,0.01,-0.01,0.71
1697352325.1,0.07,0.36,0.96,-5.3,-3.5,21.1,0.7,0.01,-0.01,0.71
1697352325.11,-0.07,0.41,1.17,-5.8,-2.7,20.4,0.7,0.01,-0.01,0.71
1697352325.12,0.02,0.41,0.97,-3.8,-1.7,19.8,0.7,0.01,-0.01,0.71
1697352325.13,-0.03,0.27,0.98,-0.6,0.1,19.4,0.7,0.01,-0.01,0.72
1697352325.14,0.06,0.19,0.8,0.5,2.2,18.1,0.7,0.01,-0.01,0.72
1697352325.15,-0.07,0.04,1.16,-3.6,4,15.9,0.7,0.01,-0.01,0.72
1697352325.16,0.04,0.28,0.89,-3.6,2.9,15.2,0.69,0,-0.01,0.72
1697352325.17,-0.02,0.37,1.05,-1.3,1.4,14.2,0.69,0,-0.01,0.72
1697352325.18,-0,0.29,0.9,-0.1,0.7,13.6,0.69,0,-0.01,0.72
1697352325.19,0.05,0.16,0.92,-0.1,0.7,13.6,0.69,0,-0.01,0.72
1697352325.2,0.05,0.16,0.92,-0.1,0.7,13.6,0.69,0,-0.01,0.72
1697352325.21,0.05,0.16,0.92,-0.1,0.7,13.6,0.69,0,-0.01,0.72
1697352325.22,0.05,0.16,0.92,-0.1,0.7,13.6,0.69,0,-0.01,0.72
1697352325.23,0.05,0.16,0.92,-0.1,0.7,13.6,0.69,0,-0.01,0.72
1697352325.24,0.05,0.16,0.92,-0.1,0.7,13.6,0.69,0,-0.01,0.72
1697352325.25,0.05,0.16,0.92,-0.1,0.7,13.6,0.69,0,-0.01,0.72
1697352325.26,0.05,0.16,0.92,-0.1,0.7,13.6,0.69,0,-0.01,0.72
1697352325.27,0.05,0.16,0.92,-0.1,0.7,13.6,0.69,0,-0.01,0.72
1697352325.28,0.05,0.16,0.92,-0.1,0.7,13.6,0.69,0,-0.01,0.72
1697352325.29,0.05,0.16,0.92,-0.1,0.7,13.6,0.69,0,-0.01,0.72
1697352325.3,0.05,0.16,0.92,-0.1,0.7,13.6,0.69,0,-0.01,0.72
1697352325.31,0.05,0.16,0.92,-0.1,0.7,13.6,0.69,0,-0.01,0.72
1697352325.32,0.05,0.16,0.92,-0.1,0.7,13.6,0.69,0,-0.01,0.72
1697352325.33,0.1,-0.04,0.76,0.8,0.4,9.4,0.68,0,-0.01,0.73
1697352325.34,0.08,0.07,0.72,-1,-0.5,8.7,0.68,0,-0.01,0.73
1697352325.35,0.1,0.31,0.92,0.4,-0.9,8.5,0.68,0,-0.01,0.73
1697352325.36,0.1,0.38,1.12,4.3,-1.7,8.4,0.68,0,-0.01,0.73
1697352325.37,0.07,0.15,0.99,4.7,-2,8.5,0.68,0,-0.01,0.73
1697352325.38,-0.1,0.03,1.2,3.2,-2,7.9,0.68,0,-0.01,0.73
1697352325.39,-0.05,-0.09,1.1,-3.2,-1,7.9,0.68,0,-0.01,0.73
1697352325.4,-0.19,0.05,1.18,-8,0,8.2,0.68,0,-0.01,0.73
1697352325.41,-0.11,0.21,0.96,-7.9,1,8.1,0.68,0,-0.01,0.73
1697352325.42,-0.03,0.36,1.02,-4.6,1.8,8.1,0.68,0,-0.01,0.74
1697352325.43,0.07,0.37,0.91,0,2.3,8,0.68,0,-0.01,0.74
1697352325.44,0.08,0.16,0.91,1.7,2.5,7.4,0.68,0,-0.01,0.74
1697352325.45,0.17,-0.07,0.96,1.1,1.8,6.3,0.68,0,-0.01,0.74
1697352325.46,0.23,-0.04,1,-0.6,1,5.2,0.68,0,-0.01,0.74
1697352325.47,0.17,0.01,1.2,-1.5,-0.3,3.9,0.68,0,-0.01,0.74
1697352325.48,0.24,0.12,0.77,0,-1.8,3.1,0.68,0,-0.01,0.74
1697352325.49,0.07,0.09,1.18,0,-1.8,3.1,0.68,0,-0.01,0.74
1697352325.5,-0.07,-0.1,1.11,2.1,-2.8,2.9,0.68,0,-0.01,0.74
1697352325.51,-0.07,-0.1,1.11,2.1,-2.8,2.9,0.67,0,-0.01,0.74
1697352325.52,0.05,-0.09,0.96,0.3,-2.4,3.2,0.67,0,-0.01,0.74
1697352325.53,-0.11,0.02,1.15,-1.5,-0.5,3.8,0.67,0,-0.01,0.74
1697352325.54,-0.09,-0.01,0.72,-2.7,0.6,4.1,0.67,0,-0.01,0.74
1697352325.55,-0.09,-0.01,0.72,-2.7,0.6,4.1,0.67,0,-0.01,0.74
1697352325.56,-0.04,0.14,1.19,-3.2,1.8,4.2,0.67,0,-0.01,0.74
1697352325.57,-0.04,0.14,1.19,-3.2,1.8,4.2,0.67,0,-0.01,0.74
1697352325.58,0.1,-0.02,0.9,-1.7,1.8,2.2,0.67,0,-0.01,0.74
1697352325.59,0.1,-0.02,0.9,-1.7,1.8,2.2,0.67,0,-0.01,0.74
1697352325.6,-0.01,-0.03,1.03,-0.3,0.8,1.1,0.67,0,-0.01,0.74
1697352325.61,0.08,-0.14,0.87,1.2,-0.2,0,0.67,0,-0.01,0.74
1697352325.62,0.08,-0.14,0.87,2.3,-0.7,-1.2,0.67,0,-0.01,0.74
1697352325.63,0,-0.25,0.98,-2.4,-0.5,-2.2,0.67,0,-0.01,0.74
1697352325.64,0,-0.25,0.98,-2.4,-0.5,-2.2,0.67,0,-0.01,0.74
1697352325.65,-0.04,0.03,1.25,-4.9,-0.7,-2.2,0.67,0,-0.01,0.74
1697352325.66,-0.02,0.19,1.18,-2.4,-0.9,-1.8,0.67,0,-0.01,0.74
1697352325.67,0.06,0.09,0.87,2.4,-1.3,-0.9,0.67,0,-0.01,0.74
1697352325.68,-0.01,-0.23,1.13,3.1,-1.9,-0.7,0.67,0,-0.01,0.74
1697352325.69,-0.05,-0.25,1.09,-1.2,-2.6,-0.6,0.67,0,-0.01,0.74
1697352325.7,0.16,-0.03,0.77,-5.3,-2.8,-0.2,0.67,0,-0.01,0.74
1697352325.71,0.08,0.17,1.06,-5.1,-2.4,0,0.67,0,-0.01,0.74
1697352325.72,0.08,0.17,1.06,-5.1,-2.4,0,0.67,0,-0.01,0.74
1697352325.73,0.08,0.17,1.06,-5.1,-2.4,0,0.67,0,-0.01,0.74
1697352325.74,0.08,0.17,1.06,-5.1,-2.4,0,0.67,0,-0.01,0.74
1697352325.75,0.08,0.17,1.06,-5.1,-2.4,0,0.67,0,-0.01,0.74
1697352325.76,0.08,0.17,1.06,-5.1,-2.4,0,0.67,0,-0.01,0.74
1697352325.77,0.08,0.17,1.06,-5.1,-2.4,0,0.67,0,-0.01,0.74
1697352325.78,0.08,0.17,1.06,-5.1,-2.4,0,0.67,0,-0.01,0.74
1697352325.79,0.08,0.17,1.06,-5.1,-2.4,0,0.67,0,-0.01,0.74
1697352325.8,0.08,0.17,1.06,-5.1,-2.4,0,0.67,0,-0.01,0.74
1697352325.81,0.08,0.17,1.06,-5.1,-2.4,0,0.67,0,-0.01,0.74
1697352325.82,0.08,0.17,1.06,-5.1,-2.4,0,0.67,0,-0.01,0.74
1697352325.83,0.08,0.17,1.06,-5.1,-2.4,0,0.67,0,-0.01,0.74
1697352325.84,0.08,0.17,1.06,-5.1,-2.4,0,0.67,0,-0.01,0.74
1697352325.85,-0.05,0.09,0.97,-4.4,1.2,0.7,0.67,0,-0.01,0.74
1697352325.86,0.12,0.22,0.83,-2.8,2,1.4,0.67,0,-0.01,0.74
1697352325.87,0.01,0.18,1.05,-2.8,2,1.4,0.67,0,-0.01,0.74
1697352325.88,-0.04,-0.07,1.07,4.1,1,1.8,0.67,0,-0.01,0.74
1697352325.89,-0.01,-0.18,1.01,4.1,1,1.8,0.67,0,-0.01,0.74
1697352325.9,0.04,-0.14,1.05,2.5,-1.2,1.3,0.67,0,-0.01,0.74
1697352325.91,-0.03,-0.07,0.98,-0.5,-2.5,1,0.67,0,-0.01,0.74
1697352325.92,0.05,0.07,0.9,-0.5,-2.5,1,0.67,0,-0.01,0.74
1697352325.93,-0.1,0.15,1.17,-1.5,-5,1,0.67,0,-0.01,0.74
1697352325.94,-0.05,0.09,0.92,2.2,-5,0.9,0.67,0,-0.01,0.74
1697352325.95,0,-0.12,0.82,2.4,-4.1,1,0.67,0,-0.01,0.74
1697352325.96,0.03,-0.09,1.07,-0.1,-2.6,0.6,0.67,0.01,-0.01,0.74
1697352325.97,0.03,-0.09,1.07,-0.1,-2.6,0.6,0.67,0.01,-0.01,0.74
1697352325.98,-0.03,-0.11,1,-3.2,-1,0.5,0.67,0.01,-0.01,0.74
1697352325.99,-0.03,-0.11,1,-4.7,0,0,0.67,0,-0.01,0.74
1697352326,0.14,0.04,0.47,-3.9,2.1,0.3,0.67,0,-0.01,0.74
1697352326.01,0.14,0.15,0.53,-0.6,4,-0.1,0.67,0,-0.01,0.74
1697352326.02,-0.05,0.01,1.28,2.2,4.3,-0.4,0.67,0,-0.01,0.74
1697352326.03,0.06,-0.17,1.04,3.9,3,-0.8,0.67,0,-0.01,0.74
1697352326.04,-0.01,-0.32,1.09,3.8,1.6,-2.2,0.67,0,-0.01,0.74
1697352326.05,-0.09,-0.41,1.1,0.3,1.1,-3.7,0.67,0,-0.01,0.74
1697352326.06,0.04,-0.3,0.83,-3.3,0.5,-4.5,0.67,0,-0.01,0.74
1697352326.07,-0.09,0.03,1.02,-3.9,0.3,-5,0.67,0,-0.01,0.74
1697352326.08,-0.11,0.09,0.91,-2.5,0,-5.3,0.67,0,-0.01,0.74
1697352326.09,-0.01,-0.04,0.99,0.7,0.1,-5.3,0.67,0,-0.01,0.74
1697352326.1,0.02,-0.31,0.86,2.4,0.8,-5.2,0.67,0,-0.01,0.74
1697352326.11,0.22,-0.22,0.68,0.8,2,-5.4,0.67,0,-0.01,0.74
1697352326.12,0.22,-0.22,0.68,0.8,2,-5.4,0.67,0,-0.01,0.74
1697352326.13,-0.04,-0.06,1.01,-3.4,2.6,-5.4,0.67,0,-0.01,0.74
1697352326.14,-0.04,-0.06,1.01,-3.4,2.6,-5.4,0.67,0,-0.01,0.74
1697352326.15,0.01,-0.06,1.31,-0.3,0.7,-5.1,0.68,0,-0.01,0.74
1697352326.16,0.07,-0.04,1.03,2,-0.4,-5.2,0.68,0,-0.01,0.74
1697352326.17,-0.11,-0.29,1.01,5.3,-1,-5.3,0.68,0,-0.01,0.74
1697352326.18,-0.2,-0.3,0.97,5.3,-1.2,-5.6,0.68,0,-0.01,0.74
1697352326.19,-0.11,-0.37,1.01,1.5,-0.4,-5.1,0.68,0,-0.01,0.74
1697352326.2,0.06,-0.12,0.94,-2,-0.2,-5.4,0.68,0,-0.01,0.74
1697352326.21,0.09,-0.02,1.12,-2.5,0,-5,0.68,0,-0.01,0.74
1697352326.22,0.07,0.17,1.43,1.1,-0.2,-4.9,0.68,0,-0.01,0.74
1697352326.23,0.06,0,1.12,3.8,-1.2,-4.2,0.68,0,-0.01,0.73
1697352326.24,0.06,0,1.12,3.8,-1.2,-4.2,0.68,0,-0.01,0.73
1697352326.25,0.06,0,1.12,3.8,-1.2,-4.2,0.68,0,-0.01,0.73
1697352326.26,0.06,0,1.12,3.8,-1.2,-4.2,0.68,0,-0.01,0.73
1697352326.27,0.06,0,1.12,3.8,-1.2,-4.2,0.68,0,-0.01,0.73
1697352326.28,0.06,0,1.12,3.8,-1.2,-4.2,0.68,0,-0.01,0.73
1697352326.29,0.06,0,1.12,3.8,-1.2,-4.2,0.68,0,-0.01,0.73
1697352326.3,0.06,0,1.12,3.8,-1.2,-4.2,0.68,0,-0.01,0.73
1697352326.31,0.06,0,1.12,3.8,-1.2,-4.2,0.68,0,-0.01,0.73
1697352326.32,0.06,0,1.12,3.8,-1.2,-4.2,0.68,0,-0.01,0.73
1697352326.33,0.06,0,1.12,3.8,-1.2,-4.2,0.68,0,-0.01,0.73
1697352326.34,0.06,0,1.12,3.8,-1.2,-4.2,0.68,0,-0.01,0.73
1697352326.35,0.06,0,1.12,3.8,-1.2,-4.2,0.68,0,-0.01,0.73
1697352326.36,0.06,0,1.12,3.8,-1.2,-4.2,0.68,0,-0.01,0.73
1697352326.37,0.06,0,1.12,3.8,-1.2,-4.2,0.68,0,-0.01,0.73
1697352326.38,-0.01,-0.06,1.14,1.8,-1,-1.7,0.68,0,-0.01,0.73
1697352326.39,-0.03,-0.14,0.97,0.3,-0.7,-1.5,0.68,0,-0.01,0.73
1697352326.4,-0.03,-0.01,1.1,-2.1,-0.5,-1.7,0.68,0,-0.01,0.73
1697352326.41,-0.1,0.01,1.01,-3,-0.6,-1.8,0.68,0,-0.01,0.73
1697352326.42,-0.03,0.07,0.85,-2.2,-0.5,-1.8,0.68,0,-0.01,0.73
1697352326.43,0.13,0.06,0.67,-0.4,0,-1.3,0.68,0,-0.01,0.73
1697352326.44,-0.02,-0.01,1.09,0.4,0.4,-1.3,0.68,0,-0.01,0.73
1697352326.45,-0.09,-0.03,1.07,1.3,0.9,-1.3,0.68,0,-0.01,0.73
1697352326.46,-0.03,-0.13,1.11,1.8,0.8,-1.3,0.68,0,-0.01,0.73
1697352326.47,-0.03,-0.2,0.92,0.2,0.2,-1.4,0.68,0,-0.01,0.73
1697352326.48,0.01,-0.04,1.19,-0.1,0.2,-1.3,0.68,0,-0.01,0.73
1697352326.49,-0.08,0.02,1.25,0,-0.7,-1.2,0.68,0,-0.01,0.73
1697352326.5,-0.09,0.05,1.27,1.3,-1.5,-1.4,0.68,0,-0.01,0.73
1697352326.51,-0.06,-0.06,0.95,1.8,-1.7,-1.3,0.68,0,-0.01,0.73
1697352326.52,-0.01,-0.15,0.96,0.3,-1.4,-1.2,0.68,0,-0.01,0.73
1697352326.53,0.09,-0.04,0.78,-2,-0.6,-1,0.68,0,-0.01,0.73
1697352326.54,0.09,-0.04,0.78,-2,-0.6,-1,0.68,0,-0.01,0.73
1697352326.55,0.09,-0.04,0.78,-2,-0.6,-1,0.68,0,-0.01,0.73
1697352326.56,0.09,-0.04,0.78,-2,-0.6,-1,0.68,0,-0.01,0.73
1697352326.57,0.09,-0.04,0.78,-2,-0.6,-1,0.68,0,-0.01,0.73
1697352326.58,0.09,-0.04,0.78,-2,-0.6,-1,0.68,0,-0.01,0.73
1697352326.59,0.09,-0.04,0.78,-2,-0.6,-1,0.68,0,-0.01,0.73
1697352326.6,0.09,-0.04,0.78,-2,-0.6,-1,0.68,0,-0.01,0.73
1697352326.61,0.09,-0.04,0.78,-2,-0.6,-1,0.68,0,-0.01,0.73
1697352326.62,0.09,-0.04,0.78,-2,-0.6,-1,0.68,0,-0.01,0.73
1697352326.63,0.09,-0.04,0.78,-2,-0.6,-1,0.68,0,-0.01,0.73
1697352326.64,-0.07,-0.11,0.97,0.5,-0.7,-1.7,0.68,0,-0.01,0.73
1697352326.65,-0.07,-0.11,0.97,0.5,-0.7,-1.7,0.68,0,-0.01,0.73
1697352326.66,0.02,0.01,0.97,0.1,-0.5,-1.3,0.68,0,-0.01,0.73
1697352326.67,0.02,0.01,0.97,-1.3,-0.3,-1.3,0.68,0,-0.01,0.73
1697352326.68,-0.1,0.1,0.94,-2.3,-0.1,-1.1,0.68,0,-0.01,0.73
1697352326.69,-0.1,0.1,0.94,-0.7,0.5,-0.9,0.68,0,-0.01,0.73
1697352326.7,-0.05,-0.17,0.88,1.3,1.2,-0.7,0.68,0,-0.01,0.73
1697352326.71,-0.07,-0.1,1.03,2.4,1.7,-0.8,0.68,0,-0.01,0.73
1697352326.72,-0.07,-0.1,1.03,0.8,1.9,-1,0.68,0,-0.01,0.73
1697352326.73,-0.08,-0.03,0.92,-0.9,1.6,-0.9,0.68,0,-0.01,0.73
1697352326.74,-0.02,0.1,0.78,-1.8,1.6,-0.7,0.68,0,-0.01,0.73
1697352326.75,0.01,0.1,1.09,0,1.3,-0.5,0.68,0,-0.01,0.73
1697352326.76,0.18,-0.02,0.81,2.4,0.6,0.4,0.68,0,-0.01,0.73
1697352326.77,0.14,0.07,1,2.5,-0.6,1.1,0.68,0,-0.01,0.73
1697352326.78,0.05,-0.07,1.17,2.1,-1.4,0.6,0.68,0,-0.01,0.73
1697352326.79,-0.08,-0.06,1.17,0.1,-1.4,0.6,0.68,0,-0.01,0.73
1697352326.8,0,0.02,0.96,-2.6,-0.7,1.1,0.68,0,-0.01,0.73
1697352326.81,-0.09,0.15,1.03,-3.3,0.4,1,0.68,0,-0.01,0.73
1697352326.82,-0.13,0.22,1.17,-1.1,1.3,0.8,0.68,0,-0.01,0.73
1697352326.83,-0.06,0.12,0.87,1.3,2.2,1.3,0.68,0,-0.01,0.73
1697352326.84,-0.02,-0.03,0.97,2.2,2.5,1.5,0.68,0,-0.01,0.73
1697352326.85,-0.04,-0.08,0.84,0.8,2.8,1.4,0.68,0,-0.01,0.73
1697352326.86,-0.04,-0.07,0.82,-1.4,3.3,1.1,0.68,0,-0.01,0.73
1697352326.87,-0.02,0.15,0.92,-2.9,3.5,0.9,0.68,0,-0.01,0.73
1697352326.88,0.08,0.14,0.96,-2.4,3,1.2,0.68,0,-0.01,0.73
1697352326.89,0.21,0.12,0.78,-0.9,1.5,1.8,0.68,0,-0.01,0.73
1697352326.9,-0.03,0.32,1.36,0.5,0.7,1.5,0.68,0,-0.01,0.73
1697352326.91,0.1,0.08,0.9,3.2,0,2.2,0.68,0,-0.01,0.73
1697352326.92,-0.03,-0.13,1.04,3.2,-0.4,2.6,0.68,0,-0.01,0.73
1697352326.93,-0.07,-0.13,1.16,1.8,0,2.2,0.68,0,-0.01,0.73
1697352326.94,-0.07,-0.13,1.16,1.8,0,2.2,0.68,0,-0.01,0.73
1697352326.95,-0.12,0.23,0.97,-5,1.1,2.1,0.68,0,-0.01,0.73
1697352326.96,0.02,0.39,0.81,-4.2,2,2.8,0.68,0,-0.01,0.73
1697352326.97,0.04,0.18,0.97,0.4,2.3,3.9,0.68,0,-0.01,0.73
1697352326.98,0.13,0.1,1.09,3.8,1.8,4.1,0.68,0,-0.01,0.73
1697352326.99,0.15,0.03,1.05,3.4,0.7,4.5,0.68,0,-0.01,0.73
1697352327,0.23,-0.15,0.82,-0.6,-0.9,5.2,0.68,0,-0.01,0.73
1697352327.01,0.07,0.19,0.88,-3,-1.9,4.2,0.68,0,-0.01,0.73
1697352327.02,-0.03,0.05,0.9,-2.3,-2.4,3.5,0.68,0,-0.01,0.73
1697352327.03,-0.03,0.05,0.9,-2.3,-2.4,3.5,0.68,0,-0.01,0.73
1697352327.04,-0.03,0.05,0.9,-2.3,-2.4,3.5,0.68,0,-0.01,0.73
1697352327.05,-0.03,0.05,0.9,-2.3,-2.4,3.5,0.68,0,-0.01,0.73
1697352327.06,-0.03,0.05,0.9,-2.3,-2.4,3.5,0.68,0,-0.01,0.73
1697352327.07,-0.03,0.05,0.9,-2.3,-2.4,3.5,0.68,0,-0.01,0.73
1697352327.08,-0.03,0.05,0.9,-2.3,-2.4,3.5,0.68,0,-0.01,0.73
1697352327.09,-0.03,0.05,0.9,-2.3,-2.4,3.5,0.68,0,-0.01,0.73
1697352327.1,-0.03,0.05,0.9,-2.3,-2.4,3.5,0.68,0,-0.01,0.73
1697352327.11,-0.03,0.05,0.9,-2.3,-2.4,3.5,0.68,0,-0.01,0.73
1697352327.12,-0.03,0.05,0.9,-2.3,-2.4,3.5,0.68,0,-0.01,0.73
1697352327.13,-0.03,0.05,0.9,-2.3,-2.4,3.5,0.68,0,-0.01,0.73
1697352327.14,-0.03,0.05,0.9,-2.3,-2.4,3.5,0.68,0,-0.01,0.73
1697352327.15,-0.03,0.05,0.9,-2.3,-2.4,3.5,0.68,0,-0.01,0.73
1697352327.16,0.04,-0.02,0.8,-1.1,1,1.6,0.68,0,-0.01,0.73
1697352327.17,-0.08,0.01,1.05,-2.2,-0.1,1.2,0.68,0,-0.01,0.73
1697352327.18,-0.03,0.23,0.97,-4.7,-0.6,0.8,0.68,0,-0.01,0.73
1697352327.19,-0.14,0.06,1.19,-3.4,-1,0.6,0.68,0,-0.01,0.73
1697352327.2,-0.14,0.06,1.19,0.2,-1.7,0.6,0.68,0,-0.01,0.73
1697352327.21,0.03,-0.37,1.02,2.3,-2,0.7,0.68,0,-0.01,0.73
1697352327.22,0.03,-0.37,1.02,2.6,-1.5,0.2,0.68,0,-0.01,0.73
1697352327.23,0.04,-0.18,0.93,-1.4,-0.7,-0.5,0.68,0,-0.01,0.73
1697352327.24,-0.07,0,0.96,-5.8,0.1,-1,0.68,0,-0.01,0.73
1697352327.25,0.06,0.11,0.92,-5.5,1.1,-1.3,0.68,0,-0.01,0.73
1697352327.26,0.06,0.08,1.17,-1.5,1.4,-1.2,0.68,0,-0.01,0.73
1697352327.27,0.1,-0.08,0.95,2.1,1.1,-1.3,0.68,0,-0.01,0.73
1697352327.28,0,-0.18,0.99,2.8,0.6,-1.5,0.68,0,-0.01,0.73
1697352327.29,-0.03,-0.16,0.85,1.4,0.4,-1.7,0.68,0,-0.01,0.73
1697352327.3,-0.15,-0.19,1,-0.7,0.2,-2.2,0.68,0,-0.01,0.73
1697352327.31,-0.05,-0.14,0.96,-3.1,-0.2,-2.5,0.68,0,-0.01,0.73
1697352327.32,0.07,0.04,0.95,-2.8,-1.2,-2.6,0.68,0,-0.01,0.73
1697352327.33,-0.04,0.03,1.08,-1,-1.1,-2.7,0.68,0,-0.01,0.73
1697352327.34,-0.16,-0.03,1.21,0.9,-1.2,-3,0.68,0,-0.01,0.73
1697352327.35,-0.02,-0.14,1.03,2.2,-1.2,-3,0.68,0,-0.01,0.73
1697352327.36,-0.04,-0.28,1.19,0.4,-1.1,-3,0.68,0,-0.01,0.73
1697352327.37,-0.05,-0.1,1.04,-2.4,-0.8,-3.7,0.68,0,-0.01,0.73
1697352327.38,-0.08,0.02,0.93,-4.2,-0.4,-3.7,0.68,0,-0.01,0.73
1697352327.39,-0.07,0.05,0.94,-3.1,0.4,-3.3,0.68,0,-0.01,0.73
1697352327.4,0.03,-0.07,0.9,-0.4,1.4,-3.1,0.68,0,-0.01,0.73
1697352327.41,-0.1,-0.04,0.85,0.3,1.8,-2.9,0.68,0,-0.01,0.73
1697352327.42,-0.1,-0.04,0.85,0.2,2.2,-2.6,0.68,0,-0.01,0.73
1697352327.43,0.01,-0.1,0.9,1.4,1.5,-2.8,0.68,0,-0.01,0.73
1697352327.44,0.08,-0.16,0.93,1.9,0.6,-3.1,0.68,-0,-0.01,0.73
1697352327.45,0.03,-0.11,0.82,0.7,0.1,-3.3,0.68,0,-0.01,0.73
1697352327.46,-0.13,-0.08,1.19,-0.1,-0.9,-3.3,0.68,0,-0.01,0.73
1697352327.47,-0.15,-0.12,1.18,-0.8,-1.6,-3.5,0.68,0,-0.01,0.73
1697352327.48,-0.06,-0.09,0.9,-1.2,-1.8,-3.7,0.68,-0,-0.01,0.73
1697352327.49,-0.07,0.03,0.82,0.2,-0.9,-3.5,0.68,-0,-0.01,0.73
1697352327.5,-0.09,-0.12,1.09,0.2,0.4,-3.2,0.68,-0,-0.01,0.73
1697352327.51,-0.09,-0.12,1.09,0.2,0.4,-3.2,0.68,-0,-0.01,0.73
1697352327.52,0.07,-0.1,1.1,-0.9,1.2,-3,0.68,-0,-0.01,0.73
1697352327.53,-0.01,0.01,0.82,-1.4,1.3,-3.2,0.68,-0,-0.01,0.73
1697352327.54,-0.01,0.01,0.82,-1.5,1,-3.1,0.68,-0,-0.01,0.73
1697352327.55,-0.04,-0.03,0.99,-1.5,1.3,-3,0.68,-0,-0.01,0.73
1697352327.56,-0.04,-0.03,0.99,-1.5,1.3,-3,0.68,-0,-0.01,0.73
1697352327.57,-0.04,-0.03,0.99,-1.5,1.3,-3,0.68,-0,-0.01,0.73
1697352327.58,-0.04,-0.03,0.99,-1.5,1.3,-3,0.68,-0,-0.01,0.73
1697352327.59,-0.04,-0.03,0.99,-1.5,1.3,-3,0.68,-0,-0.01,0.73
1697352327.6,-0.04,-0.03,0.99,-1.5,1.3,-3,0.68,-0,-0.01,0.73
1697352327.61,-0.04,-0.03,0.99,-1.5,1.3,-3,0.68,-0,-0.01,0.73
1697352327.62,-0.04,-0.03,0.99,-1.5,1.3,-3,0.68,-0,-0.01,0.73
1697352327.63,-0.04,-0.03,0.99,-1.5,1.3,-3,0.68,-0,-0.01,0.73
1697352327.64,-0.04,-0.03,0.99,-1.5,1.3,-3,0.68,-0,-0.01,0.73
1697352327.65,-0.04,-0.03,0.99,-1.5,1.3,-3,0.68,-0,-0.01,0.73
1697352327.66,-0.04,-0.03,0.99,-1.5,1.3,-3,0.68,-0,-0.01,0.73
1697352327.67,-0.04,-0.03,0.99,-1.5,1.3,-3,0.68,-0,-0.01,0.73
1697352327.68,-0.04,-0.03,0.99,-1.5,1.3,-3,0.68,-0,-0.01,0.73
1697352327.69,0.01,-0.12,0.96,-1.5,0.9,-3.3,0.69,-0,-0.01,0.73
1697352327.7,0.05,-0.01,0.93,-2,1.6,-3.5,0.69,-0,-0.01,0.73
1697352327.71,0.12,-0.01,0.78,-0.7,1.6,-3.5,0.69,-0,-0.01,0.73
1697352327.72,0.12,-0.01,0.78,-0.7,1.6,-3.5,0.69,-0,-0.01,0.73
1697352327.73,-0.02,-0.12,1.16,2.5,1.1,-3.8,0.69,-0,-0.01,0.73
1697352327.74,-0.04,-0.17,0.94,1.9,0.4,-3.7,0.69,-0,-0.01,0.73
1697352327.75,-0.08,-0.21,1.07,1.9,0.1,-3.8,0.69,-0,-0.01,0.73
1697352327.76,-0.07,-0.22,1.3,1.9,0.1,-3.8,0.69,-0,-0.01,0.73
1697352327.77,0.01,-0.18,0.89,0.1,-0.2,-4,0.69,-0,-0.01,0.73
1697352327.78,-0.06,-0.02,0.94,-2.2,-0.2,-3.5,0.69,-0,-0.01,0.73
1697352327.79,-0.06,-0.02,0.94,-2.2,-0.2,-3.5,0.69,-0,-0.01,0.72
1697352327.8,-0.13,0.01,1.06,-1.6,0.4,-3.1,0.69,-0,-0.01,0.72
1697352327.81,-0.05,-0.1,0.88,0.1,1.1,-2.9,0.69,-0,-0.01,0.72
1697352327.82,-0.05,-0.1,0.88,1,1.8,-2.6,0.69,-0,-0.01,0.72
1697352327.83,0.15,-0.07,0.64,0.9,2.7,-2.7,0.69,-0,-0.01,0.72
1697352327.84,-0.01,-0.04,1.05,0.1,2.8,-2.8,0.69,-0,-0.01,0.72
1697352327.85,-0.11,0.01,1.09,-0.4,2.1,-2.7,0.69,-0,-0.01,0.72
1697352327.86,0.13,0,1.12,2.3,1.3,-2.9,0.69,-0,-0.01,0.72
1697352327.87,0.13,-0.12,0.78,2.9,0.7,-3.1,0.69,-0,-0.01,0.72
1697352327.88,-0.01,-0.09,1.07,1.5,0.6,-3.1,0.69,-0,-0.01,0.72
1697352327.89,-0.05,-0.12,1.14,0.4,0,-3.5,0.69,-0,-0.01,0.72
1697352327.9,-0.15,-0.11,1.16,-0.9,-0.5,-3.7,0.69,-0,-0.01,0.72
1697352327.91,-0.02,-0.05,1.05,-1.7,-1.2,-3.5,0.69,-0,-0.01,0.72
1697352327.92,0.06,-0.03,0.92,-1.9,-0.7,-3.5,0.69,-0,-0.01,0.72
1697352327.93,-0.02,0.02,1.06,-1.6,-0.1,-3.6,0.69,-0,-0.01,0.72
1697352327.94,-0.05,0.02,1.01,-1.4,0.6,-3.4,0.69,-0,-0.01,0.72
1697352327.95,-0.01,0,1.03,0.4,0.8,-3.3,0.69,-0,-0.01,0.72
1697352327.96,-0.11,-0.01,1.18,2.4,0.5,-3.5,0.69,-0,-0.01,0.72
1697352327.97,-0.1,-0.13,1.07,2.2,0.3,-3.3,0.69,-0,-0.01,0.72
1697352327.98,-0,-0.2,0.76,0.6,0.5,-3.3,0.69,-0.01,-0.01,0.72
1697352327.99,-0,-0.2,0.76,0.6,0.5,-3.3,0.69,-0.01,-0.01,0.72
1697352328,0.12,0.01,0.78,0.2,0.9,-3,0.69,-0.01,-0.01,0.72
1697352328.01,-0.03,-0.1,1.08,1.4,0.8,-3,0.69,-0.01,-0.01,0.72
1697352328.02,-0.04,-0.03,1.28,1.4,0.6,-2.8,0.69,-0.01,-0.01,0.72
1697352328.03,-0.13,-0.12,1.23,0.6,0.1,-2.7,0.69,-0.01,-0.01,0.72
1697352328.04,-0.17,-0.16,1.08,-0.1,0,-2.8,0.69,-0.01,-0.01,0.72
1697352328.05,-0.07,-0.01,1.34,-0.1,0,-2.8,0.69,-0.01,-0.01,0.72
1697352328.06,-0.07,-0.01,1.34,-0.1,0,-2.8,0.69,-0.01,-0.01,0.72
1697352328.07,-0.07,-0.01,1.34,-0.1,0,-2.8,0.69,-0.01,-0.01,0.72
1697352328.08,-0.07,-0.01,1.34,-0.1,0,-2.8,0.69,-0.01,-0.01,0.72
1697352328.09,-0.07,-0.01,1.34,-0.1,0,-2.8,0.69,-0.01,-0.01,0.72
1697352328.1,-0.07,-0.01,1.34,-0.1,0,-2.8,0.69,-0.01,-0.01,0.72
1697352328.11,-0.07,-0.01,1.34,-0.1,0,-2.8,0.69,-0.01,-0.01,0.72
1697352328.12,-0.07,-0.01,1.34,-0.1,0,-2.8,0.69,-0.01,-0.01,0.72
1697352328.13,-0.07,-0.01,1.34,-0.1,0,-2.8,0.69,-0.01,-0.01,0.72
1697352328.14,-0.07,-0.01,1.34,-0.1,0,-2.8,0.69,-0.01,-0.01,0.72
1697352328.15,-0.07,-0.01,1.34,-0.1,0,-2.8,0.69,-0.01,-0.01,0.72
1697352328.16,-0.07,-0.01,1.34,-0.1,0,-2.8,0.69,-0.01,-0.01,0.72
1697352328.17,-0.07,-0.01,1.34,-0.1,0,-2.8,0.69,-0.01,-0.01,0.72
1697352328.18,-0.07,-0.01,1.34,-0.1,0,-2.8,0.69,-0.01,-0.01,0.72
1697352328.19,-0.04,0.18,1.17,1.5,-0.8,-0.4,0.7,-0,-0.01,0.72
1697352328.2,-0.07,0.11,0.88,1.9,-0.6,0.6,0.7,-0,-0.01,0.72
1697352328.21,-0.07,0.1,1.25,0.4,-0.5,1.9,0.7,-0,-0.01,0.72
1697352328.22,-0.1,0.28,1.11,-1,-0.3,4.2,0.7,-0,-0.01,0.72
1697352328.23,-0.08,0.41,1.06,0.2,0,6.4,0.7,-0,-0.01,0.72
1697352328.24,-0.02,0.47,0.98,2.2,0.5,8.8,0.7,-0,-0.01,0.72
1697352328.25,-0.01,0.67,0.59,4.9,1.2,11.7,0.69,-0,-0.01,0.72
1697352328.26,-0.06,0.62,1.13,7.4,0.8,14.5,0.69,-0,-0.01,0.72
1697352328.27,0,0.68,0.87,7.6,0.5,18.1,0.69,-0,-0.01,0.72
1697352328.28,-0,0.6,1.08,6.9,0.2,21.8,0.69,-0,-0.01,0.72
1697352328.29,0.14,0.85,0.77,6.9,0.2,21.8,0.69,-0,-0.01,0.72
1697352328.3,-0.1,0.83,1.3,6.7,0.1,25.3,0.69,-0,-0,0.73
1697352328.31,-0.12,0.82,1.31,6.7,-0.5,28.3,0.69,-0,-0,0.73
1697352328.32,0.03,0.89,0.82,5.9,-1.2,30.8,0.68,-0,-0,0.73
1697352328.33,0,0.9,0.99,4.9,-1.9,35.4,0.68,-0,-0,0.73
1697352328.34,-0.06,0.83,0.99,4.9,-1.9,35.4,0.68,-0,-0,0.73
1697352328.35,-0.06,0.83,0.99,4,-1.8,37,0.68,-0,-0,0.73
1697352328.36,-0.12,0.81,1.26,2.1,-1.8,38,0.68,-0,-0,0.74
1697352328.37,-0.11,0.81,0.85,0.8,-1.4,38.7,0.67,-0,-0,0.74
1697352328.38,-0.03,0.89,0.96,0.3,-0.8,38.1,0.67,-0,-0,0.74
1697352328.39,-0.03,0.89,0.96,0.3,-0.8,38.1,0.67,-0,-0,0.74
1697352328.4,0.01,0.87,0.91,-0.2,-0.4,36.8,0.66,0,-0,0.75
1697352328.41,0.01,0.82,1.1,-1.1,-1,36.3,0.66,0,-0,0.75
1697352328.42,0.16,0.72,0.89,-1.1,-1,36.3,0.66,0,-0,0.75
1697352328.43,-0.06,0.92,1.03,-1.1,-0.7,35.3,0.66,0,-0,0.75
1697352328.44,-0.06,0.92,1.03,-0.5,0,35.3,0.66,-0,-0,0.75
1697352328.45,-0.07,0.71,1.04,0,1.3,35.2,0.65,-0,-0,0.76
1697352328.46,-0.07,0.71,1.04,-0.2,2.2,35.5,0.65,-0,-0,0.76
1697352328.47,-0.18,0.87,1.29,0,2,36.7,0.65,-0,-0,0.76
1697352328.48,-0.24,0.71,1.25,-0.1,1.4,37.8,0.65,-0,-0,0.76
1697352328.49,-0.04,0.7,0.97,-1,0.6,38.7,0.64,-0,-0,0.76
1697352328.5,0.1,0.68,0.96,-1.6,-0.3,39.3,0.64,-0,-0,0.77
1697352328.51,0.04,0.72,0.88,-1.4,-1.3,39.3,0.64,-0,-0,0.77
1697352328.52,-0.03,0.77,1.01,0.3,-2.1,38.7,0.64,-0,-0,0.77
1697352328.53,0.06,0.6,0.92,1.1,-2,37.6,0.63,-0,-0,0.77
1697352328.54,0.11,0.59,0.95,-0.3,-2.1,36.6,0.63,-0,-0,0.78
1697352328.55,0.08,0.56,0.81,-2.5,-2,35.7,0.63,-0,-0,0.78
1697352328.56,-0.15,0.76,1.11,-2.7,-1.4,34.9,0.63,-0,-0.01,0.78
1697352328.57,-0.16,0.84,0.98,-0.4,-1.1,34.7,0.62,-0,-0.01,0.78
1697352328.58,-0.16,0.84,0.98,-0.4,-1.1,34.7,0.62,-0,-0.01,0.78
1697352328.59,-0.16,0.84,0.98,-0.4,-1.1,34.7,0.62,-0,-0.01,0.78
1697352328.6,-0.16,0.84,0.98,-0.4,-1.1,34.7,0.62,-0,-0.01,0.78
1697352328.61,-0.16,0.84,0.98,-0.4,-1.1,34.7,0.62,-0,-0.01,0.78
1697352328.62,-0.16,0.84,0.98,-0.4,-1.1,34.7,0.62,-0,-0.01,0.78
1697352328.63,-0.16,0.84,0.98,-0.4,-1.1,34.7,0.62,-0,-0.01,0.78
1697352328.64,-0.16,0.84,0.98,-0.4,-1.1,34.7,0.62,-0,-0.01,0.78
1697352328.65,-0.16,0.84,0.98,-0.4,-1.1,34.7,0.62,-0,-0.01,0.78
1697352328.66,-0.16,0.84,0.98,-0.4,-1.1,34.7,0.62,-0,-0.01,0.78
1697352328.67,-0.16,0.84,0.98,-0.4,-1.1,34.7,0.62,-0,-0.01,0.78
1697352328.68,-0.16,0.84,0.98,-0.4,-1.1,34.7,0.62,-0,-0.01,0.78
1697352328.69,-0.16,0.84,0.98,-0.4,-1.1,34.7,0.62,-0,-0.01,0.78
1697352328.7,-0.16,0.84,0.98,-0.4,-1.1,34.7,0.62,-0,-0.01,0.78
1697352328.71,-0.14,0.6,1.04,-5.3,-3.5,29,0.59,-0,-0.01,0.81
1697352328.72,-0.14,0.6,1.04,-5.3,-3.5,29,0.59,-0,-0.01,0.81
1697352328.73,0.17,0.67,0.79,-0.9,-3.6,26.5,0.59,-0,-0.01,0.81
1697352328.74,0,0.33,1.02,-0.9,-3.6,26.5,0.59,-0,-0.01,0.81
1697352328.75,-0,0.23,0.88,2.4,-2.9,23.2,0.58,-0,-0.01,0.81
1697352328.76,-0.02,0.02,0.97,0.6,-1.8,21.3,0.58,-0,-0.01,0.81
1697352328.77,-0.02,0.02,0.97,0.6,-1.8,21.3,0.58,0,-0.01,0.81
1697352328.78,0.02,0.01,0.86,-1.5,-1.4,19.1,0.58,0,-0.01,0.82
1697352328.79,0.08,0.14,1.03,-2,-1.2,18.7,0.58,0,-0.01,0.82
1697352328.8,-0.01,0.38,0.9,-1.6,0.2,16.8,0.58,0,-0.01,0.82
1697352328.81,-0.01,0.38,0.9,-0.4,1.2,17,0.57,-0,-0.01,0.82
1697352328.82,-0.07,0.25,1,1.4,1.3,16.4,0.57,-0,-0.01,0.82
1697352328.83,0.11,0.17,0.99,1.7,1.4,15.7,0.57,-0,-0.01,0.82
1697352328.84,0.01,-0.02,0.97,-1.3,1.7,14.3,0.57,-0,-0.01,0.82
1697352328.85,0.12,-0.15,1.1,-6.6,1.7,12.4,0.57,-0,-0.01,0.82
1697352328.86,0.06,0.11,1.04,-6.9,1.4,9.8,0.57,-0,-0.01,0.82
1697352328.87,0.13,0.19,0.89,-2.6,0.5,8,0.57,-0,-0.01,0.82
1697352328.88,0.07,0.04,1.11,0,-0.1,6,0.57,-0,-0.01,0.82
1697352328.89,0.03,-0.11,1.07,0.6,-0.8,3.6,0.57,-0,-0.01,0.82
1697352328.9,0.07,-0.28,0.98,-0.5,-1.3,0.4,0.57,-0,-0.01,0.82
1697352328.91,0.07,-0.35,1.07,-2.6,-1.6,-2,0.57,-0,-0.01,0.82
1697352328.92,0.17,-0.32,0.84,-3.8,-1.5,-4.1,0.57,-0,-0.01,0.82
1697352328.93,0.36,-0.23,0.82,-4.1,-2,-5.8,0.57,-0,-0.01,0.82
1697352328.94,0.23,-0.2,0.89,-3.5,-2.2,-7.2,0.57,-0,-0.01,0.82
1697352328.95,0.01,-0.17,1.04,-2.3,-1.7,-7.7,0.57,-0,-0.01,0.82
1697352328.96,0.22,-0.18,0.85,-0.4,-1.6,-8.1,0.57,-0,-0.01,0.82
1697352328.97,0.19,-0.25,0.84,0,-1.5,-8.2,0.57,-0,-0.01,0.82
1697352328.98,0.07,-0.36,0.85,-1.7,-0.5,-8.2,0.57,-0,-0.01,0.82
1697352328.99,0.03,-0.31,1.08,-3.9,0.5,-7.7,0.57,-0,-0.01,0.82
1697352329,0.01,-0.23,0.98,-4.2,1.5,-6.8,0.57,-0,-0.01,0.82
1697352329.01,0.12,-0.1,0.81,-2,1.9,-6.3,0.57,-0,-0.01,0.82
1697352329.02,0.16,-0.06,0.97,0.5,2.1,-5.8,0.57,-0,-0.01,0.82
1697352329.03,0.2,-0.15,0.97,2.5,1.7,-5.6,0.57,-0,-0.01,0.82
1697352329.04,0.2,-0.15,0.97,2.5,1.7,-5.6,0.57,-0,-0.01,0.82
1697352329.05,0.16,-0.29,0.93,0.3,0,-6.3,0.57,-0,-0.01,0.82
1697352329.06,0.17,-0.27,0.89,0.3,0,-6.3,0.57,-0,-0.01,0.82
1697352329.07,0.17,-0.27,0.89,0.3,0,-6.3,0.57,-0,-0.01,0.82
1697352329.08,-0.02,-0.18,1,-1,-1.2,-8.1,0.58,-0,-0.01,0.82
1697352329.09,0,-0.27,0.92,-1,-1.2,-8.1,0.58,-0,-0.01,0.82
1697352329.1,0,-0.27,0.92,-0.6,-1,-8.9,0.58,-0,-0.01,0.82
1697352329.11,0,-0.27,0.92,-0.6,-1,-8.9,0.58,-0,-0.01,0.82
1697352329.12,0,-0.27,0.92,-0.6,-1,-8.9,0.58,-0,-0.01,0.82
1697352329.13,0,-0.27,0.92,-0.6,-1,-8.9,0.58,-0,-0.01,0.82
1697352329.14,0,-0.27,0.92,-0.6,-1,-8.9,0.58,-0,-0.01,0.82
1697352329.15,0,-0.27,0.92,-0.6,-1,-8.9,0.58,-0,-0.01,0.82
1697352329.16,0,-0.27,0.92,-0.6,-1,-8.9,0.58,-0,-0.01,0.82
1697352329.17,0,-0.27,0.92,-0.6,-1,-8.9,0.58,-0,-0.01,0.82
1697352329.18,0,-0.27,0.92,-0.6,-1,-8.9,0.58,-0,-0.01,0.82
1697352329.19,0,-0.27,0.92,-0.6,-1,-8.9,0.58,-0,-0.01,0.82
1697352329.2,0,-0.27,0.92,-0.6,-1,-8.9,0.58,-0,-0.01,0.82
1697352329.21,0,-0.27,0.92,-0.6,-1,-8.9,0.58,-0,-0.01,0.82
1697352329.22,0,-0.27,0.92,-0.6,-1,-8.9,0.58,-0,-0.01,0.82
1697352329.23,0.05,-0.48,1.04,-1.6,1.5,-18.4,0.59,-0,-0.02,0.8
1697352329.24,0.17,-0.4,0.77,-3.1,1.9,-18.1,0.59,-0,-0.02,0.8
1697352329.25,0,-0.36,1.19,-4.8,2.2,-17,0.6,-0.01,-0.02,0.8
1697352329.26,0.19,-0.42,0.92,-4.2,1.6,-16.6,0.6,-0.01,-0.02,0.8
1697352329.27,0.07,-0.42,0.66,-1.7,1.2,-16.8,0.6,-0.01,-0.02,0.8
1697352329.28,0.11,-0.55,0.77,0.6,0.9,-17.1,0.6,-0.01,-0.02,0.8
1697352329.29,-0.08,-0.66,1.16,0.5,0.9,-17.9,0.6,-0.01,-0.02,0.8
1697352329.3,-0.03,-0.66,0.93,-2.9,2,-21.9,0.6,-0.01,-0.02,0.8
1697352329.31,-0.08,-0.69,1.08,-4.5,2.3,-24.4,0.6,-0.01,-0.02,0.8
1697352329.32,0.08,-0.64,0.93,-3.9,2.7,-27.8,0.61,-0.01,-0.02,0.8
1697352329.33,0.02,-0.85,0.87,-3.9,1.9,-30.4,0.61,-0.01,-0.02,0.79
1697352329.34,-0.06,-0.82,1.09,-3.1,1.3,-33.1,0.61,-0.01,-0.02,0.79
1697352329.35,-0.05,-0.88,0.91,-3.7,0.3,-34.7,0.61,-0.01,-0.02,0.79
1697352329.36,-0.15,-1.06,1.13,-5.7,-0.4,-37.3,0.61,-0.01,-0.02,0.79
1697352329.37,0,-1.09,0.87,-7.7,-0.8,-39.6,0.62,-0.01,-0.02,0.79
1697352329.38,0.07,-0.98,1,-9,-1,-41.5,0.62,-0.01,-0.02,0.78
1697352329.39,-0.12,-0.86,1.01,-9,-1,-41.5,0.62,-0.01,-0.02,0.78
1697352329.4,-0.14,-0.89,0.84,-5.7,0.8,-44.4,0.62,-0.01,-0.02,0.78
1697352329.41,-0.04,-1.02,0.96,-3.2,1.8,-45.7,0.63,-0.01,-0.02,0.78
1697352329.42,-0.04,-0.93,0.91,-1.3,2.1,-46.7,0.63,-0.01,-0.02,0.77
1697352329.43,-0.02,-1.16,1.17,-1.4,2,-47.3,0.63,-0.01,-0.02,0.77
1697352329.44,-0.02,-1.16,1.17,-1.4,2,-47.3,0.64,-0.01,-0.02,0.77
1697352329.45,-0.16,-1.09,1.02,-2.1,1.5,-49.5,0.64,-0.01,-0.02,0.77
1697352329.46,-0.16,-1.09,1.02,-2.1,1.5,-49.5,0.64,-0.01,-0.02,0.77
1697352329.47,-0.16,-1.24,1.09,-3.1,1.4,-49.8,0.65,-0.01,-0.02,0.76
1697352329.48,-0.16,-1.24,1.09,-3.6,1.4,-50.6,0.65,-0.01,-0.02,0.76
1697352329.49,-0.12,-0.93,1.14,-3.8,1.5,-50.7,0.65,-0.01,-0.02,0.76
1697352329.5,-0.01,-1.04,0.9,-0.5,0,-50,0.66,-0.01,-0.02,0.75
1697352329.51,-0.06,-0.95,1.17,-0.5,0,-50,0.66,-0.01,-0.02,0.75
1697352329.52,-0.01,-0.99,1,0.4,-0.3,-49.2,0.66,-0.01,-0.02,0.75
1697352329.53,-0,-1.2,0.79,1,-0.7,-48.2,0.67,-0.01,-0.02,0.74
1697352329.54,-0.04,-1.09,0.8,-0.8,-0.8,-48.3,0.67,-0.01,-0.02,0.74
1697352329.55,0,-1.07,0.71,-3,-0.8,-48.1,0.67,-0.01,-0.02,0.74
1697352329.56,0,-0.81,0.99,-3,-0.5,-48,0.68,-0.01,-0.02,0.74
1697352329.57,-0.14,-0.78,0.88,-0.6,-0.6,-47.6,0.68,-0.01,-0.02,0.73
1697352329.58,-0.2,-0.94,0.91,3.7,0,-47,0.68,-0.01,-0.02,0.73
1697352329.59,-0.1,-1.02,0.87,5.7,1.7,-46.9,0.69,-0.01,-0.02,0.73
1697352329.6,0.07,-1.18,0.76,3.3,2.5,-47.1,0.69,-0.01,-0.02,0.72
1697352329.61,-0.05,-0.98,1.17,0.8,2.7,-47.4,0.69,-0.01,-0.02,0.72
1697352329.62,-0.05,-0.98,1.17,-1,3.2,-46.5,0.69,-0.01,-0.02,0.72
1697352329.63,-0.05,-0.98,1.17,-1,3.2,-46.5,0.69,-0.01,-0.02,0.72
1697352329.64,-0.05,-0.98,1.17,-1,3.2,-46.5,0.69,-0.01,-0.02,0.72
1697352329.65,-0.05,-0.98,1.17,-1,3.2,-46.5,0.69,-0.01,-0.02,0.72
1697352329.66,-0.05,-0.98,1.17,-1,3.2,-46.5,0.69,-0.01,-0.02,0.72
1697352329.67,-0.05,-0.98,1.17,-1,3.2,-46.5,0.69,-0.01,-0.02,0.72
1697352329.68,-0.05,-0.98,1.17,-1,3.2,-46.5,0.69,-0.01,-0.02,0.72
1697352329.69,-0.05,-0.98,1.17,-1,3.2,-46.5,0.69,-0.01,-0.02,0.72
1697352329.7,-0.05,-0.98,1.17,-1,3.2,-46.5,0.69,-0.01,-0.02,0.72
1697352329.71,-0.05,-0.98,1.17,-1,3.2,-46.5,0.69,-0.01,-0.02,0.72
1697352329.72,-0.05,-0.98,1.17,-1,3.2,-46.5,0.69,-0.01,-0.02,0.72
1697352329.73,-0.05,-0.98,1.17,-1,3.2,-46.5,0.69,-0.01,-0.02,0.72
1697352329.74,-0.05,-0.98,1.17,-1,3.2,-46.5,0.69,-0.01,-0.02,0.72
1697352329.75,0.1,-1.16,0.78,2.3,1,-51.3,0.73,-0.01,-0.02,0.68
1697352329.76,0.16,-1.19,0.84,0.6,0.2,-51.2,0.74,-0.01,-0.02,0.67
1697352329.77,0.03,-1.14,1.06,-1.8,0,-50.6,0.74,-0.01,-0.02,0.67
1697352329.78,0.02,-0.9,0.77,-2.3,0,-49.9,0.74,-0.01,-0.02,0.67
1697352329.79,-0.16,-0.88,0.86,-0.3,1,-49.9,0.74,-0.01,-0.02,0.67
1697352329.8,-0.18,-1.01,0.83,1.4,1.7,-49.2,0.75,-0.01,-0.02,0.66
1697352329.81,-0.18,-1.01,0.83,1.4,1.7,-49.2,0.75,-0.01,-0.02,0.66
1697352329.82,-0.24,-1.12,0.86,1.4,2.4,-48.6,0.75,-0.01,-0.02,0.66
1697352329.83,-0.15,-1.25,1.05,-0.7,3.4,-49.6,0.76,-0.01,-0.02,0.65
1697352329.84,-0.15,-1.25,1.05,-0.7,3.4,-49.6,0.76,-0.01,-0.02,0.65
1697352329.85,-0.01,-0.91,1.04,-1.6,2.8,-50.3,0.76,-0.01,-0.02,0.65
1697352329.86,-0.01,-0.91,1.04,-1.6,2.8,-50.3,0.76,-0.01,-0.02,0.64
1697352329.87,-0.01,-0.85,0.87,2.1,2.3,-49.8,0.77,-0.01,-0.02,0.64
1697352329.88,-0.01,-0.85,0.87,6.4,1.8,-49.6,0.77,-0.01,-0.02,0.64
1697352329.89,0.07,-0.97,0.85,7,1.7,-49.6,0.77,-0.01,-0.02,0.64
1697352329.9,0.02,-0.92,0.99,6.7,1.2,-48.9,0.77,-0.01,-0.02,0.63
1697352329.91,0.02,-0.86,0.99,4.5,0.2,-47.6,0.78,-0.01,-0.02,0.63
1697352329.92,0.04,-0.62,0.84,1.3,-0.2,-46.1,0.78,-0.01,-0.02,0.62
1697352329.93,0,-0.4,1.13,-0.5,-0.4,-43.9,0.78,-0.01,-0.02,0.62
1697352329.94,0.01,-0.27,0.85,2,-1.1,-40.5,0.79,-0.01,-0.02,0.62
1697352329.95,-0.14,-0.33,0.91,4.7,-1.4,-35.7,0.79,-0.01,-0.02,0.62
1697352329.96,0.1,-0.28,0.52,6.4,-1.6,-31.1,0.79,-0.01,-0.02,0.61
1697352329.97,-0.03,-0.39,0.95,7.7,-1.6,-26.9,0.79,-0.01,-0.02,0.61
1697352329.98,-0.04,-0.48,0.88,6,-1.2,-23.3,0.79,-0.01,-0.02,0.61
1697352329.99,-0.09,-0.05,0.94,3.2,-0.2,-20.4,0.79,-0.01,-0.02,0.61
1697352330,0.01,0.1,0.97,1.4,0.4,-16.8,0.79,-0.01,-0.02,0.61
1697352330.01,-0.16,0.24,1.17,4.9,1.3,-12.3,0.79,-0.01,-0.02,0.61
1697352330.02,-0.15,0.12,1.21,10,1.3,-9.3,0.79,-0.01,-0.02,0.61
1697352330.03,0.14,0.06,0.81,11.4,0.8,-6.5,0.79,-0,-0.01,0.61
1697352330.04,-0.05,0.08,1.14,10.1,0.1,-4.1,0.79,-0,-0.01,0.61
1697352330.05,0.06,0.18,0.92,8,-0.5,-2.5,0.79,-0,-0.01,0.61
1697352330.06,-0.07,0.47,1.14,4.4,-1.3,-0.7,0.79,-0,-0.01,0.61
1697352330.07,-0.05,0.58,1.11,1.8,-1.7,0.9,0.79,-0,-0.01,0.61
1697352330.08,-0.5,0.97,1.31,1.8,-1.7,3.4,0.79,-0,-0.01,0.61
1697352330.09,-0.5,0.97,1.31,1.8,-1.7,3.4,0.79,-0,-0.01,0.61
1697352330.1,-0.56,0.86,1.11,11,1.3,12.7,0.79,-0,-0.01,0.61
1697352330.11,-0.26,0.97,0.58,10.5,2.6,16.5,0.79,-0,-0.01,0.61
1697352330.12,-0.28,1.24,1.33,7.3,3.9,21.1,0.79,-0,-0.01,0.61
1697352330.13,0.08,1.45,0.94,8.4,3.6,27.4,0.79,-0,-0.01,0.61
1697352330.14,0.08,1.45,0.94,8.4,3.6,27.4,0.79,-0,-0.01,0.61
1697352330.15,0.08,1.45,0.94,8.4,3.6,27.4,0.79,-0,-0.01,0.61
1697352330.16,0.08,1.45,0.94,8.4,3.6,27.4,0.79,-0,-0.01,0.61
1697352330.17,0.08,1.45,0.94,8.4,3.6,27.4,0.79,-0,-0.01,0.61
1697352330.18,0.08,1.45,0.94,8.4,3.6,27.4,0.79,-0,-0.01,0.61
1697352330.19,0.08,1.45,0.94,8.4,3.6,27.4,0.79,-0,-0.01,0.61
1697352330.2,0.08,1.45,0.94,8.4,3.6,27.4,0.79,-0,-0.01,0.61
1697352330.21,0.08,1.45,0.94,8.4,3.6,27.4,0.79,-0,-0.01,0.61
1697352330.22,0.08,1.45,0.94,8.4,3.6,27.4,0.79,-0,-0.01,0.61
1697352330.23,0.08,1.45,0.94,8.4,3.6,27.4,0.79,-0,-0.01,0.61
1697352330.24,0.08,1.45,0.94,8.4,3.6,27.4,0.79,-0,-0.01,0.61
1697352330.25,0.08,1.45,0.94,8.4,3.6,27.4,0.79,-0,-0.01,0.61
1697352330.26,0.08,1.45,0.94,8.4,3.6,27.4,0.79,-0,-0.01,0.61
1697352330.27,-0.37,1.21,0.88,1.3,0.5,53,0.75,0,-0.01,0.66
1697352330.28,-0.21,1.38,0.78,1.1,2.3,53.7,0.75,0,-0.01,0.66
1697352330.29,-0.2,1.59,1.01,3,3.7,54.7,0.75,0,-0.01,0.67
1697352330.3,-0.29,1.33,1.11,5,4.6,56.8,0.74,0,-0.01,0.67
1697352330.31,-0.08,1.48,0.55,7.2,5.8,57.8,0.74,0,-0.01,0.67
1697352330.32,-0.39,1.28,1.35,4.5,6.5,62.5,0.73,0,-0.01,0.68
1697352330.33,-0.41,1.29,0.97,1.7,6.8,64.4,0.73,0,-0.01,0.68
1697352330.34,-0.26,1.39,0.69,-1.3,6.2,67.2,0.73,0,-0,0.69
1697352330.35,-0.47,1.36,1.04,-0.7,5.9,69,0.72,0,-0,0.69
1697352330.36,-0.29,1.45,0.66,1,4.5,71.9,0.72,0,-0,0.7
1697352330.37,-0.43,1.57,1.2,2.9,3.3,74.1,0.71,0,-0,0.7
1697352330.38,-0.34,1.41,0.9,4.1,1.4,76.3,0.71,0,-0,0.71
1697352330.39,-0.23,1.37,0.97,3.5,0.3,78.4,0.7,0,-0,0.71
1697352330.4,-0.17,1.36,0.76,3.2,-0.2,79.1,0.7,0,-0,0.72
1697352330.41,-0.26,1.17,1.03,2,-1.4,79.2,0.69,0,-0,0.72
1697352330.42,-0.17,1.17,0.87,1.1,-1.1,79,0.69,0,-0,0.73
1697352330.43,-0.31,1.55,0.68,-2.1,-1.3,78.2,0.68,0,-0,0.73
1697352330.44,-0.46,1.61,1.26,-2.3,-0.3,78.2,0.68,0,-0,0.73
1697352330.45,-0.27,1.28,1.06,-0.1,0.2,77.8,0.68,0,-0,0.74
1697352330.46,-0.34,1.62,0.87,2.2,0.7,77.6,0.67,0,-0,0.74
1697352330.47,-0.36,1.41,0.88,3.3,1.1,76.1,0.66,0,-0,0.75
1697352330.48,-0.34,1.52,0.87,2.6,2.8,75.7,0.66,0,-0,0.75
1697352330.49,-0.31,1.31,1.13,2.6,2.8,75.7,0.66,0,-0,0.75
1697352330.5,-0.37,1.25,1.33,2.1,4.1,73.9,0.65,0,-0,0.76
1697352330.51,-0.28,1.62,0.55,0,4.1,73.2,0.65,0,-0,0.76
1697352330.52,-0.35,1.58,0.9,-3.8,5.5,72.1,0.64,0,-0,0.77
1697352330.53,-0.38,1.93,1.44,-3.9,6.2,72.7,0.64,0,-0,0.77
1697352330.54,-0.38,1.93,1.44,-3.9,6.2,72.7,0.63,0,-0,0.77
1697352330.55,-0.35,1.53,1.37,2.2,4.3,74.1,0.62,0,-0,0.78
1697352330.56,-0.42,1.47,1.21,4.4,3.2,75,0.62,0,-0,0.78
1697352330.57,-0.26,1.12,0.95,3.9,1.9,76.4,0.62,0,-0,0.79
1697352330.58,-0.25,1.31,0.97,1.4,0.8,77.2,0.61,0,0,0.79
1697352330.59,-0.25,1.31,0.97,1.4,0.8,77.2,0.61,0,0,0.8
1697352330.6,-0.1,1.18,0.81,-2.1,0.2,77.6,0.6,0,-0,0.8
1697352330.61,-0.13,1.45,0.61,-6.5,-0.3,78.2,0.6,0,-0,0.8
1697352330.62,0,1.28,0.72,-6.6,0.3,77.9,0.59,0,-0,0.8
1697352330.63,-0.1,1.34,1.21,-5.2,0,77.5,0.58,-0,-0,0.81
1697352330.64,0.12,1.34,1.03,-3.2,0.1,76.1,0.58,-0,-0,0.82
1697352330.65,0.15,0.94,0.94,-0.6,-0.2,74.1,0.57,-0,-0,0.82
1697352330.66,0.21,0.5,0.92,-0.6,-0.2,74.1,0.57,-0,-0,0.82
1697352330.67,0.21,0.5,0.92,-0.6,-0.2,74.1,0.57,-0,-0,0.82
1697352330.68,0.21,0.5,0.92,-0.6,-0.2,74.1,0.57,-0,-0,0.82
1697352330.69,0.21,0.5,0.92,-0.6,-0.2,74.1,0.57,-0,-0,0.82
1697352330.7,0.21,0.5,0.92,-0.6,-0.2,74.1,0.57,-0,-0,0.82
1697352330.71,0.21,0.5,0.92,-0.6,-0.2,74.1,0.57,-0,-0,0.82
1697352330.72,0.21,0.5,0.92,-0.6,-0.2,74.1,0.57,-0,-0,0.82
1697352330.73,0.21,0.5,0.92,-0.6,-0.2,74.1,0.57,-0,-0,0.82
1697352330.74,0.21,0.5,0.92,-0.6,-0.2,74.1,0.57,-0,-0,0.82
1697352330.75,0.21,0.5,0.92,-0.6,-0.2,74.1,0.57,-0,-0,0.82
1697352330.76,0.21,0.5,0.92,-0.6,-0.2,74.1,0.57,-0,-0,0.82
1697352330.77,0.21,0.5,0.92,-0.6,-0.2,74.1,0.57,-0,-0,0.82
1697352330.78,0.21,0.5,0.92,-0.6,-0.2,74.1,0.57,-0,-0,0.82
1697352330.79,-0.02,-0.26,0.76,-6,0.7,15.9,0.54,-0.01,-0.01,0.84
1697352330.8,0.06,-0.37,0.64,-6,0.7,15.9,0.54,-0.01,-0.01,0.84
1697352330.81,0.13,-0.73,0.91,-7.7,0.4,14.4,0.54,-0.01,-0.01,0.84
1697352330.82,0.14,-0.57,1.64,-10.7,-0.1,11.2,0.54,-0.01,-0.01,0.84
1697352330.83,0.25,-0.33,1.04,-9.8,-1.2,4.3,0.54,-0.01,-0.01,0.84
1697352330.84,0.26,-0.34,0.91,-5.7,-2.1,0.8,0.54,-0.01,-0.01,0.84
1697352330.85,0.2,-0.32,1.32,-2.8,-2.9,-2.1,0.54,-0.01,-0.01,0.84
1697352330.86,0.29,-0.35,1.03,-2.8,-2.9,-2.1,0.54,-0.01,-0.01,0.84
1697352330.87,0.13,-0.4,0.95,-1.9,-2.6,-7.1,0.54,-0.01,-0.01,0.84
1697352330.88,0.06,-0.39,1.01,-4.2,-1.6,-9.2,0.54,-0.01,-0.01,0.84
1697352330.89,0.06,-0.39,1.01,-4.2,-1.6,-9.2,0.54,-0.01,-0.01,0.84
1697352330.9,-0,-0.45,1.25,-5.2,-1,-11,0.54,-0.01,-0.01,0.84
1697352330.91,-0,-0.45,1.25,-6.2,0,-12.6,0.54,-0.01,-0.01,0.84
1697352330.92,0.17,-0.52,1.53,-6.3,0.8,-13.8,0.54,-0.01,-0.01,0.84
1697352330.93,0.17,-0.52,1.53,-6.6,0.3,-16,0.54,-0.01,-0.01,0.84
1697352330.94,0.1,-0.68,1.29,-5.8,-0.3,-18.6,0.54,-0.01,-0.02,0.84
1697352330.95,0.34,-0.73,0.55,-6.5,-0.8,-20.9,0.54,-0.01,-0.02,0.84
1697352330.96,0.35,-0.92,0.84,-7.9,-2.1,-24.8,0.55,-0.01,-0.02,0.84
1697352330.97,0.32,-0.85,0.78,-8.2,-2,-26.9,0.55,-0.01,-0.02,0.84
1697352330.98,0.15,-0.77,1.05,-6.5,-2,-28.8,0.55,-0.01,-0.02,0.83
1697352330.99,0.04,-0.91,1.04,-3.1,-1.5,-30.9,0.55,-0.01,-0.02,0.83
1697352331,-0.07,-0.87,0.86,-1.8,-0.8,-33,0.56,-0.01,-0.02,0.83
1697352331.01,-0,-1.05,0.88,-1.7,0,-35.3,0.56,-0.01,-0.02,0.83
1697352331.02,-0.24,-1.1,1.46,-2,-0.1,-36,0.56,-0.01,-0.02,0.83
1697352331.03,0.22,-0.99,0.59,-3.9,0.5,-38.8,0.56,-0.01,-0.02,0.83
1697352331.04,-0.01,-1.01,1.1,-4.8,0.6,-41.4,0.57,-0.01,-0.02,0.82
1697352331.05,-0.18,-1,1.43,-5.3,0.5,-43.2,0.57,-0.01,-0.02,0.82
1697352331.06,0.04,-0.98,0.76,-4.8,0.1,-45.1,0.57,-0.01,-0.02,0.82
1697352331.07,0.04,-1.09,1.06,-3.7,0,-46.7,0.58,-0.01,-0.02,0.82
1697352331.08,0.15,-0.92,1.18,-2.8,-0.6,-48.3,0.58,-0.01,-0.02,0.81
1697352331.09,-0.21,-1.2,1.04,-2.1,-1,-49.3,0.58,-0.01,-0.02,0.81
1697352331.1,-0.19,-1.05,0.78,-2.5,-0.5,-50.9,0.59,-0.01,-0.02,0.81
1697352331.11,-0.26,-1.18,1.18,-3.8,0.3,-52.5,0.59,-0.01,-0.02,0.81
1697352331.12,-0.26,-1.15,0.98,-4.9,0.8,-54.3,0.6,-0.01,-0.02,0.8
1697352331.13,-0.25,-1.23,1.03,-3.4,1.7,-55.8,0.6,-0.01,-0.02,0.8
1697352331.14,-0.03,-1.24,1.2,-2.9,2.4,-56.9,0.6,-0.01,-0.02,0.8
1697352331.15,-0.12,-1.14,0.77,-2,2.4,-57.3,0.61,-0.01,-0.02,0.79
1697352331.16,-0.12,-1.14,0.77,-2,2.4,-57.3,0.61,-0.01,-0.02,0.79
1697352331.17,-0.34,-1.21,1.24,-0.7,2.4,-58.3,0.61,-0.01,-0.02,0.79
1697352331.18,-0.34,-1.21,1.24,-0.7,2.4,-58.3,0.61,-0.01,-0.02,0.79
1697352331.19,-0.34,-1.21,1.24,-0.7,2.4,-58.3,0.61,-0.01,-0.02,0.79
1697352331.2,-0.34,-1.21,1.24,-0.7,2.4,-58.3,0.61,-0.01,-0.02,0.79
1697352331.21,-0.34,-1.21,1.24,-0.7,2.4,-58.3,0.61,-0.01,-0.02,0.79
1697352331.22,-0.34,-1.21,1.24,-0.7,2.4,-58.3,0.61,-0.01,-0.02,0.79
1697352331.23,-0.34,-1.21,1.24,-0.7,2.4,-58.3,0.61,-0.01,-0.02,0.79
1697352331.24,-0.34,-1.21,1.24,-0.7,2.4,-58.3,0.61,-0.01,-0.02,0.79
1697352331.25,-0.34,-1.21,1.24,-0.7,2.4,-58.3,0.61,-0.01,-0.02,0.79
1697352331.26,-0.34,-1.21,1.24,-0.7,2.4,-58.3,0.61,-0.01,-0.02,0.79
1697352331.27,-0.34,-1.21,1.24,-0.7,2.4,-58.3,0.61,-0.01,-0.02,0.79
1697352331.28,-0.34,-1.21,1.24,-0.7,2.4,-58.3,0.61,-0.01,-0.02,0.79
1697352331.29,-0.34,-1.21,1.24,-0.7,2.4,-58.3,0.61,-0.01,-0.02,0.79
1697352331.3,-0.34,-1.21,1.24,-0.7,2.4,-58.3,0.61,-0.01,-0.02,0.79
1697352331.31,-0.34,-1.21,1.24,-0.7,2.4,-58.3,0.61,-0.01,-0.02,0.79
1697352331.32,-0.34,-1.21,1.24,-0.7,2.4,-58.3,0.61,-0.01,-0.02,0.79
1697352331.33,-0.34,-1.21,1.24,-0.7,2.4,-58.3,0.61,-0.01,-0.02,0.79
1697352331.34,-0.34,-1.21,1.24,-0.7,2.4,-58.3,0.61,-0.01,-0.02,0.79
1697352331.35,-0.34,-1.21,1.24,-0.7,2.4,-58.3,0.61,-0.01,-0.02,0.79
1697352331.36,-0.34,-1.21,1.24,-0.7,2.4,-58.3,0.61,-0.01,-0.02,0.79
1697352331.37,-0.34,-1.21,1.24,-0.7,2.4,-58.3,0.61,-0.01,-0.02,0.79
1697352331.38,-0.34,-1.21,1.24,-0.7,2.4,-58.3,0.61,-0.01,-0.02,0.79
1697352331.39,-0.34,-1.21,1.24,-0.7,2.4,-58.3,0.61,-0.01,-0.02,0.79
1697352331.4,-0.34,-1.21,1.24,-0.7,2.4,-58.3,0.61,-0.01,-0.02,0.79
1697352331.41,-0.34,-1.21,1.24,-0.7,2.4,-58.3,0.61,-0.01,-0.02,0.79
1697352331.42,-0.34,-1.21,1.24,-0.7,2.4,-58.3,0.61,-0.01,-0.02,0.79
1697352331.43,-0.34,-1.21,1.24,-0.7,2.4,-58.3,0.61,-0.01,-0.02,0.79
1697352331.44,-0.34,-1.21,1.24,-0.7,2.4,-58.3,0.61,-0.01,-0.02,0.79
1697352331.45,-0.34,-1.21,1.24,-0.7,2.4,-58.3,0.61,-0.01,-0.02,0.79
1697352331.46,-0.34,-1.21,1.24,-0.7,2.4,-58.3,0.61,-0.01,-0.02,0.79
1697352331.47,-0.34,-1.21,1.24,-0.7,2.4,-58.3,0.61,-0.01,-0.02,0.79
1697352331.48,-0.34,-1.21,1.24,-0.7,2.4,-58.3,0.61,-0.01,-0.02,0.79
1697352331.49,-0.34,-1.21,1.24,-0.7,2.4,-58.3,0.61,-0.01,-0.02,0.79
1697352331.5,-0.34,-1.21,1.24,-0.7,2.4,-58.3,0.61,-0.01,-0.02,0.79
1697352331.51,-0.34,-1.21,1.24,-0.7,2.4,-58.3,0.61,-0.01,-0.02,0.79
1697352331.52,-0.34,-1.21,1.24,-0.7,2.4,-58.3,0.61,-0.01,-0.02,0.79
1697352331.53,-0.34,-1.21,1.24,-0.7,2.4,-58.3,0.61,-0.01,-0.02,0.79
1697352331.54,-0.34,-1.21,1.24,-0.7,2.4,-58.3,0.61,-0.01,-0.02,0.79
1697352331.55,-0.34,-1.21,1.24,-0.7,2.4,-58.3,0.61,-0.01,-0.02,0.79
1697352331.56,-0.34,-1.21,1.24,-0.7,2.4,-58.3,0.61,-0.01,-0.02,0.79
1697352331.57,-0.34,-1.21,1.24,-0.7,2.4,-58.3,0.61,-0.01,-0.02,0.79
1697352331.58,-0.34,-1.21,1.24,-0.7,2.4,-58.3,0.61,-0.01,-0.02,0.79
1697352331.59,-0.34,-1.21,1.24,-0.7,2.4,-58.3,0.61,-0.01,-0.02,0.79
1697352331.6,-0.34,-1.21,1.24,-0.7,2.4,-58.3,0.61,-0.01,-0.02,0.79
1697352331.61,-0.34,-1.21,1.24,-0.7,2.4,-58.3,0.61,-0.01,-0.02,0.79
1697352331.62,-0.34,-1.21,1.24,-0.7,2.4,-58.3,0.61,-0.01,-0.02,0.79
1697352331.63,-0.34,-1.21,1.24,-0.7,2.4,-58.3,0.61,-0.01,-0.02,0.79
1697352331.64,-0.34,-1.21,1.24,-0.7,2.4,-58.3,0.61,-0.01,-0.02,0.79
1697352331.65,-0.34,-1.21,1.24,-0.7,2.4,-58.3,0.61,-0.01,-0.02,0.79
1697352331.66,-0.34,-1.21,1.24,-0.7,2.4,-58.3,0.61,-0.01,-0.02,0.79
1697352331.67,-0.34,-1.21,1.24,-0.7,2.4,-58.3,0.61,-0.01,-0.02,0.79
1697352331.68,-0.34,-1.21,1.24,-0.7,2.4,-58.3,0.61,-0.01,-0.02,0.79
1697352331.69,-0.34,-1.21,1.24,-0.7,2.4,-58.3,0.61,-0.01,-0.02,0.79
1697352331.7,-0.34,-1.21,1.24,-0.7,2.4,-58.3,0.61,-0.01,-0.02,0.79
1697352331.71,-0.34,-1.21,1.24,-0.7,2.4,-58.3,0.61,-0.01,-0.02,0.79
1697352331.72,-0.34,-1.21,1.24,-0.7,2.4,-58.3,0.61,-0.01,-0.02,0.79
1697352331.73,-0.34,-1.21,1.24,-0.7,2.4,-58.3,0.61,-0.01,-0.02,0.79
1697352331.74,-0.34,-1.21,1.24,-0.7,2.4,-58.3,0.61,-0.01,-0.02,0.79
1697352331.75,-0.34,-1.21,1.24,-0.7,2.4,-58.3,0.61,-0.01,-0.02,0.79
1697352331.76,-0.34,-1.21,1.24,-0.7,2.4,-58.3,0.61,-0.01,-0.02,0.79
1697352331.77,-0.34,-1.21,1.24,-0.7,2.4,-58.3,0.61,-0.01,-0.02,0.79
1697352331.78,-0.34,-1.21,1.24,-0.7,2.4,-58.3,0.61,-0.01,-0.02,0.79
1697352331.79,-0.34,-1.21,1.24,-0.7,2.4,-58.3,0.61,-0.01,-0.02,0.79
1697352331.8,-0.34,-1.21,1.24,-0.7,2.4,-58.3,0.61,-0.01,-0.02,0.79
1697352331.81,-0.34,-1.21,1.24,-0.7,2.4,-58.3,0.61,-0.01,-0.02,0.79
1697352331.82,-0.34,-1.21,1.24,-0.7,2.4,-58.3,0.61,-0.01,-0.02,0.79
1697352331.83,-0.34,-1.21,1.24,-0.7,2.4,-58.3,0.61,-0.01,-0.02,0.79
1697352331.84,-0.34,-1.21,1.24,-0.7,2.4,-58.3,0.61,-0.01,-0.02,0.79
1697352331.85,-0.34,-1.21,1.24,-0.7,2.4,-58.3,0.61,-0.01,-0.02,0.79
1697352331.86,-0.34,-1.21,1.24,-0.7,2.4,-58.3,0.61,-0.01,-0.02,0.79
1697352331.87,-0.34,-1.21,1.24,-0.7,2.4,-58.3,0.61,-0.01,-0.02,0.79
1697352331.88,-0.34,-1.21,1.24,-0.7,2.4,-58.3,0.61,-0.01,-0.02,0.79
1697352331.89,-0.34,-1.21,1.24,-0.7,2.4,-58.3,0.61,-0.01,-0.02,0.79
1697352331.9,-0.34,-1.21,1.24,-0.7,2.4,-58.3,0.61,-0.01,-0.02,0.79
1697352331.91,-0.34,-1.21,1.24,-0.7,2.4,-58.3,0.61,-0.01,-0.02,0.79
1697352331.92,-0.34,-1.21,1.24,-0.7,2.4,-58.3,0.61,-0.01,-0.02,0.79
1697352331.93,-0.34,-1.21,1.24,-0.7,2.4,-58.3,0.61,-0.01,-0.02,0.79
1697352331.94,-0.34,-1.21,1.24,-0.7,2.4,-58.3,0.61,-0.01,-0.02,0.79
1697352331.95,-0.34,-1.21,1.24,-0.7,2.4,-58.3,0.61,-0.01,-0.02,0.79
1697352331.96,-0.34,-1.21,1.24,-0.7,2.4,-58.3,0.61,-0.01,-0.02,0.79
1697352331.97,-0.34,-1.21,1.24,-0.7,2.4,-58.3,0.61,-0.01,-0.02,0.79
1697352331.98,-0.34,-1.21,1.24,-0.7,2.4,-58.3,0.61,-0.01,-0.02,0.79
1697352331.99,-0.34,-1.21,1.24,-0.7,2.4,-58.3,0.61,-0.01,-0.02,0.79
1697352332,-0.34,-1.21,1.24,-0.7,2.4,-58.3,0.61,-0.01,-0.02,0.79
1697352332.01,-0.34,-1.21,1.24,-0.7,2.4,-58.3,0.61,-0.01,-0.02,0.79
1697352332.02,-0.34,-1.21,1.24,-0.7,2.4,-58.3,0.61,-0.01,-0.02,0.79
1697352332.03,-0.34,-1.21,1.24,-0.7,2.4,-58.3,0.61,-0.01,-0.02,0.79
1697352332.04,-0.34,-1.21,1.24,-0.7,2.4,-58.3,0.61,-0.01,-0.02,0.79
1697352332.05,-0.34,-1.21,1.24,-0.7,2.4,-58.3,0.61,-0.01,-0.02,0.79
1697352332.06,-0.34,-1.21,1.24,-0.7,2.4,-58.3,0.61,-0.01,-0.02,0.79
1697352332.07,-0.34,-1.21,1.24,-0.7,2.4,-58.3,0.61,-0.01,-0.02,0.79
1697352332.08,-0.34,-1.21,1.24,-0.7,2.4,-58.3,0.61,-0.01,-0.02,0.79
1697352332.09,-0.34,-1.21,1.24,-0.7,2.4,-58.3,0.61,-0.01,-0.02,0.79
1697352332.1,-0.34,-1.21,1.24,-0.7,2.4,-58.3,0.61,-0.01,-0.02,0.79
1697352332.11,-0.34,-1.21,1.24,-0.7,2.4,-58.3,0.61,-0.01,-0.02,0.79
1697352332.12,-0.34,-1.21,1.24,-0.7,2.4,-58.3,0.61,-0.01,-0.02,0.79
1697352332.13,-0.34,-1.21,1.24,-0.7,2.4,-58.3,0.61,-0.01,-0.02,0.79
1697352332.14,0.13,0.69,0.76,-3.7,1.5,37.2,0.73,0,-0.01,0.68
1697352332.15,0.13,1.02,0.56,-6.7,0.4,37.5,0.73,0,-0.02,0.68
1697352332.16,0.13,0.81,0.94,-5.8,-0.2,37.6,0.73,0,-0.02,0.69
1697352332.17,0.08,1.01,1.14,-2.8,0.2,37.8,0.72,0,-0.02,0.69
1697352332.18,0.25,0.64,0.82,5.3,0.4,37,0.72,0,-0.02,0.69
1697352332.19,0.21,0.43,1.06,4.2,0.9,35.5,0.72,0,-0.01,0.69
1697352332.2,0.23,0.38,1.1,1.5,0.7,34,0.72,0,-0.01,0.7
1697352332.21,0.25,0.45,0.7,1.5,0.7,34,0.72,0,-0.01,0.7
1697352332.22,0.08,0.68,1.08,-2.5,0.8,33.1,0.71,0,-0.01,0.7
1697352332.23,-0.07,0.55,0.9,-2.5,0.8,33.1,0.71,0,-0.01,0.7
1697352332.24,0.07,0.69,0.73,0.2,1.4,33.2,0.71,0,-0.01,0.7
1697352332.25,0.07,0.69,0.73,0.2,1.4,33.2,0.71,0,-0.01,0.7
1697352332.26,0.11,0.62,1.23,0.7,1.2,32.9,0.71,-0,-0.01,0.71
1697352332.27,0.21,0.63,0.72,0.7,1.2,32.9,0.71,-0,-0.01,0.71
1697352332.28,0.27,0.43,0.98,-0.9,-0.2,32.3,0.7,-0,-0.01,0.71
1697352332.29,0.29,0.58,0.62,-2.1,-1.6,31,0.7,-0,-0.01,0.71
1697352332.3,0.31,0.48,0.55,-2.7,-2.3,30.1,0.7,-0,-0.01,0.71
1697352332.31,-0.03,0.77,1.2,-3.7,-2.2,29,0.7,-0,-0.02,0.72
1697352332.32,-0.02,0.58,0.81,-1.4,-1.6,28,0.7,-0,-0.02,0.72
1697352332.33,-0.06,0.43,0.96,1.1,0,27.3,0.69,-0,-0.02,0.72
1697352332.34,-0.01,0.27,1.06,1.1,0,27.3,0.69,-0,-0.02,0.72
1697352332.35,-0.01,0.29,1.21,1.5,3.2,25.9,0.69,-0,-0.02,0.72
1697352332.36,-0.01,0.29,1.21,1.5,3.2,25.9,0.69,-0,-0.01,0.72
1697352332.37,0.08,0.34,1.05,-1.3,5.7,24,0.69,-0,-0.01,0.73
1697352332.38,0.08,0.34,1.05,-1.3,5.7,24,0.69,-0,-0.01,0.73
1697352332.39,0.31,0.44,0.7,-1.2,5.6,23.4,0.68,-0,-0.01,0.73
1697352332.4,0.13,0.28,1.15,-0.3,4.4,22.6,0.68,-0,-0.01,0.73
1697352332.41,0.13,0.28,1.15,0.7,2.9,21.7,0.68,-0,-0.01,0.73
1697352332.42,0.16,0.21,0.81,0.7,1.3,20.3,0.68,-0,-0.01,0.73
1697352332.43,0.11,0.2,1.09,0.1,-0.1,19.1,0.68,-0,-0.01,0.73
1697352332.44,0.29,0.28,0.88,-1.7,-0.9,18.1,0.68,-0,-0.01,0.73
1697352332.45,0.21,0.31,0.82,-2.8,-2,16.2,0.68,-0,-0.01,0.74
1697352332.46,0.01,0.33,1.24,-1.9,-2,15.5,0.68,-0,-0.01,0.74
1697352332.47,0.05,0.21,1.01,-0.4,-1.2,14.8,0.68,-0,-0.01,0.74
1697352332.48,0.17,0.15,0.86,-0.1,-0.2,14.2,0.67,-0,-0.01,0.74
1697352332.49,0.2,0.14,0.8,-0.6,0.8,13.3,0.67,-0,-0.01,0.74
1697352332.5,0.11,0.1,1.07,-1.6,1.8,12.6,0.67,-0,-0.01,0.74
1697352332.51,0.05,0.18,1.02,-2,2.3,12.4,0.67,-0,-0.01,0.74
1697352332.52,0.09,0.22,1.02,-2.3,3.1,12.3,0.67,-0,-0.01,0.74
1697352332.53,0.09,0.22,1.02,-2.3,3.1,12.3,0.67,-0,-0.01,0.74
1697352332.54,0.09,0.22,1.02,-2.3,3.1,12.3,0.67,-0,-0.01,0.74
1697352332.55,0.09,0.22,1.02,-2.3,3.1,12.3,0.67,-0,-0.01,0.74
1697352332.56,0.09,0.22,1.02,-2.3,3.1,12.3,0.67,-0,-0.01,0.74
1697352332.57,0.09,0.22,1.02,-2.3,3.1,12.3,0.67,-0,-0.01,0.74
1697352332.58,0.09,0.22,1.02,-2.3,3.1,12.3,0.67,-0,-0.01,0.74
1697352332.59,0.09,0.22,1.02,-2.3,3.1,12.3,0.67,-0,-0.01,0.74
1697352332.6,0.09,0.22,1.02,-2.3,3.1,12.3,0.67,-0,-0.01,0.74
1697352332.61,0.09,0.22,1.02,-2.3,3.1,12.3,0.67,-0,-0.01,0.74
1697352332.62,0.09,0.22,1.02,-2.3,3.1,12.3,0.67,-0,-0.01,0.74
1697352332.63,0.09,0.22,1.02,-2.3,3.1,12.3,0.67,-0,-0.01,0.74
1697352332.64,0.09,0.22,1.02,-2.3,3.1,12.3,0.67,-0,-0.01,0.74
1697352332.65,0.09,0.22,1.02,-2.3,3.1,12.3,0.67,-0,-0.01,0.74
1697352332.66,0.06,0.3,1,0.9,1.4,14.9,0.66,0,-0.01,0.75
1697352332.67,0.04,0.47,1.27,0.7,0.4,16,0.66,0,-0.01,0.75
1697352332.68,0.22,0.47,0.9,1,-0.7,17.4,0.66,0,-0.01,0.75
1697352332.69,0.07,0.48,0.99,1,-0.7,17.4,0.66,0,-0.01,0.75
1697352332.7,0.11,0.46,0.94,2.2,-2.5,17.9,0.66,0.01,-0.01,0.75
1697352332.71,0,0.29,1.1,0.6,-3.2,18.4,0.65,0.01,-0.01,0.76
1697352332.72,0.08,0.35,0.63,-0.2,-3.4,17.8,0.65,0.01,-0.01,0.76
1697352332.73,0.11,0.44,0.72,-0.5,-2.3,17.9,0.65,0.01,-0.01,0.76
1697352332.74,-0.01,0.41,0.92,-0.5,-2.3,17.9,0.65,0.01,-0.01,0.76
1697352332.75,-0.03,0.49,0.89,0.9,0,18,0.65,0.01,-0.01,0.76
1697352332.76,0.08,0.47,0.84,0.9,0,18,0.65,0.01,-0.01,0.76
1697352332.77,-0.01,0.57,1.05,1.2,1.7,19.9,0.65,0.01,-0.01,0.76
1697352332.78,0,0.48,0.97,1.2,1.7,19.9,0.65,0.01,-0.01,0.76
1697352332.79,0,0.48,0.97,1.7,2.5,20.8,0.64,0.01,-0.01,0.76
1697352332.8,0.03,0.38,0.77,1.1,2.5,21.5,0.64,0.01,-0.01,0.77
1697352332.81,-0.04,0.46,1.06,-0.3,2.3,22.1,0.64,0.01,-0.01,0.77
1697352332.82,0.14,0.57,0.92,-1.2,1.9,22.3,0.64,0.01,-0.01,0.77
1697352332.83,0.07,0.54,1.13,-0.3,1.1,22.4,0.64,0.01,-0.01,0.77
1697352332.84,0.17,0.57,1.09,0.7,-0.1,22.4,0.64,0.01,-0.01,0.77
1697352332.85,0.16,0.54,1.21,1.5,-1.7,22.4,0.64,0.01,-0.01,0.77
1697352332.86,0.05,0.49,0.93,0.7,-2.7,22.5,0.64,0.01,-0.01,0.77
1697352332.87,-0.19,0.52,0.99,0.4,-3.5,22.4,0.63,0.01,-0.01,0.77
1697352332.88,-0.14,0.55,0.89,0.5,-3.2,22.8,0.63,0.01,-0.01,0.77
1697352332.89,-0.06,0.63,0.86,0.2,-2.7,23.9,0.63,0.01,-0.01,0.78
1697352332.9,-0.09,0.64,0.96,-0.2,-2.2,25.1,0.63,0.01,-0.01,0.78
1697352332.91,-0.09,0.64,0.96,-0.2,-2.2,25.1,0.63,0.01,-0.01,0.78
1697352332.92,-0.09,0.64,0.96,-0.2,-2.2,25.1,0.63,0.01,-0.01,0.78
1697352332.93,-0.04,0.87,1.04,-0.3,-0.5,26.4,0.62,0.01,-0.01,0.78
1697352332.94,0.01,0.79,1.2,1.9,2.5,33.6,0.62,0.01,-0.01,0.79
1697352332.95,0.05,0.77,1.19,1.2,1.9,35.5,0.62,0.01,-0.01,0.79
1697352332.96,0.17,0.85,0.64,1.7,0.9,37.2,0.62,0.01,-0.01,0.79
1697352332.97,0.01,0.85,1.25,1.7,0.9,37.2,0.61,0.01,-0.01,0.79
1697352332.98,-0.03,0.85,1.15,1.4,-1.3,39.3,0.61,0.01,-0.01,0.79
1697352332.99,0.02,0.81,0.83,2.3,-2.1,39.9,0.61,0.01,-0.01,0.79
1697352333,-0.06,0.72,1,2.2,-2.4,39.7,0.6,0.01,-0.01,0.8
1697352333.01,-0.06,0.72,1,2.2,-2.4,39.7,0.6,0.01,-0.01,0.8
1697352333.02,0.07,0.78,0.89,0.3,-2.1,38.8,0.6,0.01,-0.01,0.8
1697352333.03,0.07,0.78,0.89,0.3,-2.1,38.8,0.6,0.01,-0.01,0.8
1697352333.04,-0.07,0.71,0.85,-0.1,-1.6,38.2,0.59,0.01,-0.01,0.8
1697352333.05,-0.07,0.71,0.85,-1.3,-0.8,37.1,0.59,0.01,-0.01,0.81
1697352333.06,-0.07,0.71,0.85,-1.3,-0.8,37.1,0.59,0.01,-0.01,0.81
1697352333.07,-0.07,0.71,0.85,-1.3,-0.8,37.1,0.59,0.01,-0.01,0.81
1697352333.08,-0.07,0.71,0.85,-1.3,-0.8,37.1,0.59,0.01,-0.01,0.81
1697352333.09,-0.07,0.71,0.85,-1.3,-0.8,37.1,0.59,0.01,-0.01,0.81
1697352333.1,-0.07,0.71,0.85,-1.3,-0.8,37.1,0.59,0.01,-0.01,0.81
1697352333.11,-0.07,0.71,0.85,-1.3,-0.8,37.1,0.59,0.01,-0.01,0.81
1697352333.12,-0.07,0.71,0.85,-1.3,-0.8,37.1,0.59,0.01,-0.01,0.81
1697352333.13,-0.07,0.71,0.85,-1.3,-0.8,37.1,0.59,0.01,-0.01,0.81
1697352333.14,-0.07,0.71,0.85,-1.3,-0.8,37.1,0.59,0.01,-0.01,0.81
1697352333.15,-0.07,0.71,0.85,-1.3,-0.8,37.1,0.59,0.01,-0.01,0.81
1697352333.16,-0.07,0.71,0.85,-1.3,-0.8,37.1,0.59,0.01,-0.01,0.81
1697352333.17,-0.07,0.71,0.85,-1.3,-0.8,37.1,0.59,0.01,-0.01,0.81
1697352333.18,0.09,0.43,0.95,-0.9,1.1,23.8,0.56,0.01,-0.01,0.83
1697352333.19,0.05,0.52,1.19,-2.3,1.6,22.9,0.56,0.01,-0.01,0.83
1697352333.2,0.11,0.55,1.08,-2,1.8,22.4,0.56,0.01,-0.01,0.83
1697352333.21,0.05,0.54,1.14,-0.5,2.3,22.1,0.56,0.01,-0.01,0.83
1697352333.22,0.1,0.44,1,1.2,2.7,22.3,0.55,0.01,-0.01,0.83
1697352333.23,0.07,0.34,0.98,0.5,2.8,22.9,0.55,0.01,-0.01,0.83
1697352333.24,0.04,0.46,0.76,-1.5,2.7,23,0.55,0.01,-0.01,0.83
1697352333.25,0.01,0.51,0.96,-2.5,1.9,23.7,0.55,0.01,-0.01,0.84
1697352333.26,0.05,0.62,0.85,-2.2,1.1,24.9,0.55,0.01,-0.01,0.84
1697352333.27,-0.01,0.56,0.98,0.3,0.8,25.4,0.55,0.01,-0.01,0.84
1697352333.28,-0.02,0.42,0.89,2.6,-0.1,25.9,0.54,0.01,-0.01,0.84
1697352333.29,-0.03,0.39,0.83,3.1,-0.3,25.8,0.54,0.01,-0.01,0.84
1697352333.3,-0.04,0.41,0.91,2,-0.2,25.8,0.54,0.01,-0.01,0.84
1697352333.31,-0.02,0.4,0.85,0.9,0.1,25,0.54,0.01,-0.01,0.84
1697352333.32,-0.02,0.4,1,0.2,1.4,24.2,0.54,0.01,-0.01,0.84
1697352333.33,0.04,0.47,0.78,-0.7,2.4,23.2,0.53,0.01,-0.01,0.85
1697352333.34,-0.02,0.64,1.03,-1.3,3.2,22.6,0.53,0.01,-0.01,0.85
1697352333.35,0.08,0.66,0.99,-0.9,4.1,23.2,0.53,0,-0.01,0.85
1697352333.36,-0,0.64,1.05,0.7,4.8,24.4,0.53,0,-0.01,0.85
1697352333.37,-0.01,0.64,1,-0.5,4.3,25.4,0.53,0,-0.01,0.85
1697352333.38,-0.05,0.61,0.83,-0.5,4.3,25.4,0.53,0,-0.01,0.85
1697352333.39,0.02,0.71,0.81,-1.3,3.3,28.1,0.53,0,-0.01,0.85
1697352333.4,0.12,0.73,0.79,0,3.2,28.6,0.52,0,-0.01,0.85
1697352333.41,-0.01,0.56,1.19,0.5,2.9,29.1,0.52,0,-0.01,0.85
1697352333.42,0,0.57,1.11,-0.9,2.9,29.2,0.52,0,-0.01,0.85
1697352333.43,0,0.57,1.11,-0.9,2.9,29.2,0.52,0,-0.01,0.86
1697352333.44,0.03,0.59,0.85,0.5,3.5,28.4,0.51,0,-0.01,0.86
1697352333.45,0.07,0.54,0.79,1,4.1,28.5,0.51,0,-0.01,0.86
1697352333.46,0.02,0.48,0.94,-0.2,4.3,28.4,0.51,0,-0,0.86
1697352333.47,0,0.63,0.92,-2.3,4.6,28.6,0.51,0,-0,0.86
1697352333.48,0,0.63,0.92,-2.3,4.6,28.6,0.51,0,-0,0.86
1697352333.49,-0.01,0.66,0.67,-1.8,4.1,30,0.5,0,-0,0.86
1697352333.5,-0.02,0.52,0.8,-0.6,2.3,30.4,0.5,-0,-0,0.87
1697352333.51,-0.02,0.52,0.8,-0.6,2.3,30.4,0.5,-0,-0,0.87
1697352333.52,0.03,0.67,1.07,-0.9,0.2,30.1,0.5,-0,-0,0.87
1697352333.53,0.03,0.67,1.07,-0.9,0.2,30.1,0.49,-0,-0,0.87
1697352333.54,0.06,0.62,0.93,2.1,-1.5,28.7,0.49,-0,-0,0.87
1697352333.55,0.06,0.62,0.93,2.1,-1.5,28.7,0.49,-0,-0,0.87
1697352333.56,0.01,0.55,1.05,2.7,-1.6,28.1,0.49,-0,-0,0.87
1697352333.57,-0.01,0.5,0.82,2.6,-0.9,27.3,0.49,-0,-0,0.87
1697352333.58,-0.01,0.5,0.82,2.6,-0.9,27.3,0.49,-0,-0,0.87
1697352333.59,-0.01,0.5,0.82,2.6,-0.9,27.3,0.49,-0,-0,0.87
1697352333.6,-0.01,0.5,0.82,2.6,-0.9,27.3,0.49,-0,-0,0.87
1697352333.61,-0.01,0.5,0.82,2.6,-0.9,27.3,0.49,-0,-0,0.87
1697352333.62,-0.01,0.5,0.82,2.6,-0.9,27.3,0.49,-0,-0,0.87
1697352333.63,-0.01,0.5,0.82,2.6,-0.9,27.3,0.49,-0,-0,0.87
1697352333.64,-0.01,0.5,0.82,2.6,-0.9,27.3,0.49,-0,-0,0.87
1697352333.65,-0.01,0.5,0.82,2.6,-0.9,27.3,0.49,-0,-0,0.87
1697352333.66,-0.01,0.5,0.82,2.6,-0.9,27.3,0.49,-0,-0,0.87
1697352333.67,-0.01,0.5,0.82,2.6,-0.9,27.3,0.49,-0,-0,0.87
1697352333.68,-0.01,0.5,0.82,2.6,-0.9,27.3,0.49,-0,-0,0.87
1697352333.69,-0.01,0.5,0.82,2.6,-0.9,27.3,0.49,-0,-0,0.87
1697352333.7,-0.14,0.72,0.98,6.1,-3.8,33.6,0.45,0,-0,0.89
1697352333.71,-0.2,0.59,1.39,6.3,-5.2,34.2,0.45,0,-0,0.89
1697352333.72,-0.08,0.85,0.91,3.7,-4.7,34.4,0.45,0,-0,0.89
1697352333.73,-0.18,0.97,0.89,2.8,-3.8,34.7,0.45,0,-0,0.9
1697352333.74,-0.19,0.99,1.17,3.3,-2.2,36.2,0.44,0,0,0.9
1697352333.75,-0.13,1.09,1.06,4.2,-1,37.9,0.44,0,0,0.9
1697352333.76,-0.13,1.13,0.9,5.7,-0.2,39.9,0.44,0,0,0.9
1697352333.77,-0.07,1.08,1.26,6.6,0,43.1,0.43,0,0,0.9
1697352333.78,-0.19,1.08,1.27,4.9,-0.4,47.5,0.43,0,0,0.9
1697352333.79,-0.18,1.08,1.21,4.3,-0.7,49,0.42,0,0,0.91
1697352333.8,-0.21,1.03,1.03,5.5,-1.1,49.7,0.42,0,0,0.91
1697352333.81,-0.15,1,1.42,3.6,-1.4,50.2,0.42,0,0,0.91
1697352333.82,-0.08,0.86,1.33,0,-1.6,49.5,0.41,0,0,0.91
1697352333.83,-0.06,1.04,1.13,-1.7,-1.4,49.2,0.41,0,0,0.91
1697352333.84,0.1,1.22,0.96,-0.3,-1.6,49,0.4,0,0,0.91
1697352333.85,0.03,0.94,1.1,0.8,-1.2,48.1,0.4,0,0,0.92
1697352333.86,-0.18,1.24,0.99,0.8,-1.2,48.1,0.4,0,0,0.92
1697352333.87,-0.15,1.07,1.13,0.7,-0.1,48.3,0.39,0,0,0.92
1697352333.88,-0.13,0.92,0.82,-2.1,0.6,48.1,0.39,0,0,0.92
1697352333.89,-0.07,1.05,0.96,-5.1,1.1,48.2,0.38,0,0,0.92
1697352333.9,-0.1,1.1,0.92,-5.1,1.1,48.2,0.38,0,0,0.92
1697352333.91,-0.1,1.1,0.92,-4.9,2,48.6,0.38,0,0,0.92
1697352333.92,0.01,1.33,0.59,3.3,2.6,47.8,0.37,0,0,0.93
1697352333.93,0.01,1.33,0.59,3.3,2.6,47.8,0.37,0,0,0.93
1697352333.94,-0.05,0.85,1.33,4.9,2.7,47.4,0.37,0,0,0.93
1697352333.95,-0.05,0.85,1.33,2.2,2.4,48,0.36,0,0,0.93
1697352333.96,0.02,0.86,0.83,-1.3,1.8,48.2,0.36,0,0,0.93
1697352333.97,0.04,1.07,1.02,-2.9,1.2,48.5,0.36,0,0,0.93
1697352333.98,-0.12,1.11,0.98,-2.6,0.6,49.4,0.35,0,0,0.94
1697352333.99,-0.08,1.25,1.2,-0.2,-0.1,51,0.35,0,0,0.94
1697352334,-0.07,1.01,0.91,2.5,-0.9,50.8,0.34,0,0,0.94
1697352334.01,0.07,0.74,0.8,1,-1.1,49.3,0.34,0,0,0.94
1697352334.02,-0.1,0.82,1.08,-2.8,0,47.9,0.33,0,0,0.94
1697352334.03,-0.05,1,1.08,-5.2,0.6,47.5,0.33,0,0,0.94
1697352334.04,-0.02,1.2,0.89,-7.3,2.1,46.4,0.33,0,0,0.95
1697352334.05,0.03,1.27,0.87,2.7,4.2,45,0.32,0,0,0.95
1697352334.06,-0.05,0.97,0.78,6.1,5.1,44.9,0.32,0,0,0.95
1697352334.07,-0.05,1.01,1.04,7.1,5.2,44.2,0.32,0,0,0.95
1697352334.08,-0.05,1.01,1.04,7.1,5.2,44.2,0.32,0,0,0.95
1697352334.09,-0.07,0.43,0.94,-1.5,2.9,42.7,0.31,0,0,0.95
1697352334.1,-0.07,0.43,0.94,-1.5,2.9,42.7,0.31,0,0,0.95
1697352334.11,-0.07,0.43,0.94,-1.5,2.9,42.7,0.31,0,0,0.95
1697352334.12,-0.07,0.43,0.94,-1.5,2.9,42.7,0.31,0,0,0.95
1697352334.13,-0.07,0.43,0.94,-1.5,2.9,42.7,0.31,0,0,0.95
1697352334.14,-0.07,0.43,0.94,-1.5,2.9,42.7,0.31,0,0,0.95
1697352334.15,-0.07,0.43,0.94,-1.5,2.9,42.7,0.31,0,0,0.95
1697352334.16,-0.07,0.43,0.94,-1.5,2.9,42.7,0.31,0,0,0.95
1697352334.17,-0.07,0.43,0.94,-1.5,2.9,42.7,0.31,0,0,0.95
1697352334.18,-0.07,0.43,0.94,-1.5,2.9,42.7,0.31,0,0,0.95
1697352334.19,-0.07,0.43,0.94,-1.5,2.9,42.7,0.31,0,0,0.95
1697352334.2,-0.07,0.43,0.94,-1.5,2.9,42.7,0.31,0,0,0.95
1697352334.21,-0.07,0.43,0.94,-1.5,2.9,42.7,0.31,0,0,0.95
1697352334.22,0,0.78,1.07,2.4,-0.4,48.5,0.26,-0,0,0.97
1697352334.23,0,0.78,1.07,2.4,-0.4,48.5,0.26,-0,0,0.97
1697352334.24,0.03,1.01,0.81,-5.1,-0.2,48.4,0.25,-0,0,0.97
1697352334.25,-0.09,1.21,1.07,-5.1,-0.2,48.4,0.25,-0,0,0.97
1697352334.26,-0.14,1.36,1.11,-5.1,0.3,48.4,0.24,-0,0,0.97
1697352334.27,-0.14,1.36,1.11,-1.4,1.3,49.2,0.24,-0,0,0.97
1697352334.28,-0.09,1.21,1.02,4.4,1.5,49.7,0.24,-0,0,0.97
1697352334.29,-0.05,1.07,0.93,7.7,1.9,50.2,0.23,-0,0,0.97
1697352334.3,-0.07,0.86,1.02,8.3,2,50,0.23,-0,0,0.97
1697352334.31,0.01,1.03,0.91,4.8,2.7,49.5,0.23,-0,0,0.97
1697352334.32,-0.21,1.28,1.53,1.7,3.5,50.4,0.22,-0,0,0.98
1697352334.33,-0.16,0.82,0.95,0.9,3.3,51.5,0.22,-0,0,0.98
1697352334.34,-0.1,1.22,0.6,-0.6,4.7,50.8,0.21,-0,0.01,0.98
1697352334.35,-0.13,1.3,1.35,-0.6,5.7,51.8,0.2,-0,0.01,0.98
1697352334.36,-0.07,1.33,0.82,-0.2,6.1,53.4,0.2,-0,0.01,0.98
1697352334.37,-0.17,1.26,1.35,2.2,6.1,54.6,0.2,-0,0.01,0.98
1697352334.38,-0.03,1.37,0.69,3.8,4.8,55.5,0.19,-0,0.01,0.98
1697352334.39,0.01,0.97,0.92,3.5,3.6,57.6,0.19,-0,0.01,0.98
1697352334.4,-0.08,1.27,1.27,2.9,1.7,58.8,0.18,-0.01,0.01,0.98
1697352334.41,-0.04,1.21,0.97,1.5,0.6,59.9,0.17,-0.01,0.01,0.98
1697352334.42,-0.05,1.1,1.05,1.2,-1.3,60.7,0.17,-0.01,0.01,0.99
1697352334.43,-0.05,1.1,1.05,1.2,-1.3,60.7,0.17,-0.01,0.01,0.99
1697352334.44,-0.09,0.9,0.93,1.6,-2.5,59.4,0.16,-0,0.01,0.99
1697352334.45,-0.11,0.98,1.04,0,-1.5,57.1,0.15,-0,0.01,0.99
1697352334.46,-0.2,1.2,0.78,0.6,-0.3,55.3,0.15,-0,0.01,0.99
1697352334.47,-0.13,1,1.11,-0.7,0.1,53.9,0.15,-0,0.01,0.99
1697352334.48,-0.13,1,1.11,-0.7,0.1,53.9,0.14,-0,0.01,0.99
1697352334.49,-0.08,0.95,1.11,0,1.1,50.8,0.14,-0,0.01,0.99
1697352334.5,0.07,1.36,1.06,-2.3,1.6,48.6,0.13,-0,0.01,0.99
1697352334.51,-0.16,1.09,0.86,-3.1,2.1,48.2,0.13,-0,0.01,0.99
1697352334.52,-0.04,1.08,0.94,-0.5,1.6,47.4,0.13,-0,0.01,0.99
1697352334.53,-0.03,1.14,1.25,-0.6,1.5,46.6,0.12,-0,0.01,0.99
1697352334.54,-0.05,1.05,1.02,0.3,1.9,45.9,0.12,-0,0.01,0.99
1697352334.55,-0.14,1.02,1.1,1,2.6,45.2,0.11,-0,0.01,0.99
1697352334.56,-0.14,1.02,1.1,1,2.6,45.2,0.11,-0.01,0.01,0.99
1697352334.57,0.09,0.89,0.53,2.2,4.1,44.7,0.1,-0.01,0.01,0.99
1697352334.58,0.09,0.89,0.53,2.2,4.1,44.7,0.1,-0.01,0.01,0.99
1697352334.59,-0.04,0.89,1.06,-2.7,5.5,44.4,0.1,-0.01,0.01,1
1697352334.6,-0.04,0.89,1.06,-2.7,5.5,44.4,0.09,-0.01,0.01,1
1697352334.61,-0.04,0.89,1.06,-2.7,5.5,44.4,0.09,-0.01,0.01,1
1697352334.62,-0.04,0.89,1.06,-2.7,5.5,44.4,0.09,-0.01,0.01,1
1697352334.63,-0.04,0.89,1.06,-2.7,5.5,44.4,0.09,-0.01,0.01,1
1697352334.64,-0.04,0.89,1.06,-2.7,5.5,44.4,0.09,-0.01,0.01,1
1697352334.65,-0.04,0.89,1.06,-2.7,5.5,44.4,0.09,-0.01,0.01,1
1697352334.66,-0.04,0.89,1.06,-2.7,5.5,44.4,0.09,-0.01,0.01,1
1697352334.67,-0.04,0.89,1.06,-2.7,5.5,44.4,0.09,-0.01,0.01,1
1697352334.68,-0.04,0.89,1.06,-2.7,5.5,44.4,0.09,-0.01,0.01,1
1697352334.69,-0.04,0.89,1.06,-2.7,5.5,44.4,0.09,-0.01,0.01,1
1697352334.7,-0.04,0.89,1.06,-2.7,5.5,44.4,0.09,-0.01,0.01,1
1697352334.71,-0.04,0.89,1.06,-2.7,5.5,44.4,0.09,-0.01,0.01,1
1697352334.72,-0.04,0.89,1.06,-2.7,5.5,44.4,0.09,-0.01,0.01,1
1697352334.73,-0.04,0.89,1.06,-2.7,5.5,44.4,0.09,-0.01,0.01,1
1697352334.74,-0.04,0.89,1.06,-2.7,5.5,44.4,0.09,-0.01,0.01,1
1697352334.75,-0.08,0.95,0.9,0.9,5.2,45.9,0.03,-0.01,0.01,1
1697352334.76,-0.15,1.01,1.12,-1.4,5.4,46.5,0.03,-0.01,0.01,1
1697352334.77,-0.07,1.14,0.97,-3,4.8,47.4,0.03,-0.01,0.01,1
1697352334.78,-0.08,1.15,0.88,-4.1,3.7,48.8,0.02,-0.01,0.01,1
1697352334.79,-0.02,1.25,1.07,-3.5,2.3,49.9,0.02,-0.01,0.01,1
1697352334.8,0.03,1.13,1.06,-1.1,0.5,51.3,0.01,-0.01,0.01,1
1697352334.81,-0.06,1.07,1.16,0.6,-1.6,51.9,0.01,-0.01,0.01,1
1697352334.82,0.03,1.06,0.7,2.3,-2.1,52,0,-0.01,0.01,1
1697352334.83,0.03,0.66,0.2,2.3,-4.2,51.6,0,0.01,-0.01,-1
1697352334.84,-0.3,0.85,1.14,-0.4,-3.6,49.6,0.01,0.01,-0.01,-1
1697352334.85,-0.19,0.97,0.96,-1.9,-3,49,0.01,0.01,-0.01,-1
1697352334.86,-0.05,1.13,0.44,-2.6,-1.4,47.5,0.01,0.01,-0.01,-1
1697352334.87,-0.14,1.07,1.03,-0.5,0.5,46.3,0.02,0.01,-0.01,-1
1697352334.88,-0.09,1.04,1.04,0.1,1.3,46,0.02,0.01,-0.01,-1
1697352334.89,-0.02,0.97,0.94,0,2.4,45.2,0.03,0.01,-0.01,-1
1697352334.9,-0.02,0.97,0.94,0,2.4,45.2,0.03,0.01,-0.01,-1
1697352334.91,-0.06,1.04,1.15,-2,5.2,44.5,0.04,0.01,-0.01,-1
1697352334.92,-0.17,1.07,1.29,-1.1,5.7,44.6,0.04,0.01,-0.01,-1
1697352334.93,0.01,1.08,0.81,-0.4,6.2,45,0.04,0.01,-0.01,-1
1697352334.94,0.02,1.02,0.94,0.5,6.4,46.1,0.05,0.01,-0.01,-1
1697352334.95,-0.3,0.75,0.97,0.5,6.4,46.1,0.05,0.01,-0.01,-1
1697352334.96,-0.3,0.75,0.97,0.9,7,46.6,0.05,0.01,-0.01,-1
1697352334.97,0.04,1.24,0.99,-0.5,8,47.3,0.06,0.01,-0.01,-1
1697352334.98,0.04,1.24,0.99,-0.5,8,47.3,0.06,0.01,-0.01,-1
1697352334.99,0.12,1.07,0.99,0.4,4.1,49.1,0.07,0.01,-0.01,-1
1697352335,0.12,1.07,0.99,0.4,4.1,49.1,0.07,0.01,-0.01,-1
1697352335.01,0.01,0.95,0.95,0.7,2.3,49.6,0.08,0.01,-0.01,-1
1697352335.02,0.02,0.94,0.94,0.6,0.6,49.7,0.08,0.01,-0.01,-1
1697352335.03,0.03,0.86,0.8,0,-0.1,49.6,0.08,0.01,-0.01,-1
1697352335.04,0.03,0.92,0.7,-1.3,-1,49,0.09,0.01,-0.01,-1
1697352335.05,-0.09,1.02,0.87,-1.2,-1,48,0.09,0.01,-0.01,-1
1697352335.06,-0.15,0.87,0.89,0.5,-0.4,47.2,0.1,0.01,-0.01,-1
1697352335.07,-0.07,1,0.59,1.9,1.7,45.3,0.1,0.01,-0.01,-0.99
1697352335.08,-0.28,0.73,1,3.2,3.4,43.9,0.1,0.01,-0.01,-0.99
1697352335.09,-0.04,0.98,0.45,3.5,4.4,42.5,0.11,0.01,-0.01,-0.99
1697352335.1,-0.1,0.92,1.04,-1.5,5.1,43.1,0.11,0.01,-0.01,-0.99
1697352335.11,-0.21,1.18,1.18,-2.9,5.2,42.9,0.12,0.01,-0.01,-0.99
1697352335.12,-0.01,1.08,1.01,-2,5.2,43.2,0.12,0.01,-0.01,-0.99
1697352335.13,-0.01,1.08,1.01,-2,5.2,43.2,0.12,0.01,-0.01,-0.99
1697352335.14,-0.11,1.06,1.11,-1.5,5.2,44.2,0.12,0.02,-0.01,-0.99
1697352335.15,-0.11,1.06,1.11,-1.5,5.2,44.2,0.12,0.02,-0.01,-0.99
1697352335.16,-0.11,1.06,1.11,-1.5,5.2,44.2,0.12,0.02,-0.01,-0.99
1697352335.17,-0.11,1.06,1.11,-1.5,5.2,44.2,0.12,0.02,-0.01,-0.99
1697352335.18,-0.11,1.06,1.11,-1.5,5.2,44.2,0.12,0.02,-0.01,-0.99
1697352335.19,-0.11,1.06,1.11,-1.5,5.2,44.2,0.12,0.02,-0.01,-0.99
1697352335.2,-0.11,1.06,1.11,-1.5,5.2,44.2,0.12,0.02,-0.01,-0.99
1697352335.21,-0.11,1.06,1.11,-1.5,5.2,44.2,0.12,0.02,-0.01,-0.99
1697352335.22,-0.11,1.06,1.11,-1.5,5.2,44.2,0.12,0.02,-0.01,-0.99
1697352335.23,-0.11,1.06,1.11,-1.5,5.2,44.2,0.12,0.02,-0.01,-0.99
1697352335.24,-0.11,1.06,1.11,-1.5,5.2,44.2,0.12,0.02,-0.01,-0.99
1697352335.25,-0.11,1.06,1.11,-1.5,5.2,44.2,0.12,0.02,-0.01,-0.99
1697352335.26,-0.11,1.06,1.11,-1.5,5.2,44.2,0.12,0.02,-0.01,-0.99
1697352335.27,-0.03,0.83,0.93,-1.7,-1.8,39.1,0.18,0.01,-0.01,-0.98
1697352335.28,-0.03,0.83,0.93,-1.7,-1.8,39.1,0.18,0.01,-0.01,-0.98
1697352335.29,-0.12,0.81,0.84,-3.6,0.6,38.4,0.19,0.01,-0.01,-0.98
1697352335.3,-0.09,1,1.03,-3.6,1.2,38.3,0.19,0.01,-0.01,-0.98
1697352335.31,-0.11,1.01,0.99,-2.2,3.6,38.6,0.19,0.01,-0.01,-0.98
1697352335.32,-0.12,1.09,0.9,-0.6,5.2,39.6,0.2,0.01,-0.01,-0.98
1697352335.33,-0.17,0.98,0.97,1.2,6.8,41.4,0.2,0.01,-0.01,-0.98
1697352335.34,-0.09,0.87,0.75,3.5,8,42.4,0.2,0.01,-0.01,-0.98
1697352335.35,-0.11,0.63,0.83,2.9,8.7,43.3,0.21,0.01,-0.01,-0.98
1697352335.36,0.01,0.89,0.82,-0.9,7.9,43.3,0.21,0.01,-0.01,-0.98
1697352335.37,0.08,0.94,0.51,-3.1,7,43.7,0.22,0.02,-0.01,-0.98
1697352335.38,0.13,1.2,0.45,1,6.6,43.4,0.22,0.02,-0.01,-0.98
1697352335.39,0.01,1.2,0.93,5.4,6,43.6,0.22,0.02,-0.01,-0.97
1697352335.4,0.02,0.72,0.62,5.8,5.5,42.7,0.23,0.02,-0.01,-0.97
1697352335.41,-0.07,0.76,0.69,2.1,5.5,41.8,0.23,0.02,-0.01,-0.97
1697352335.42,-0.02,0.81,0.71,-1.5,5.8,41.4,0.23,0.02,-0.01,-0.97
1697352335.43,-0.09,0.94,0.94,-2.8,6.1,41.3,0.24,0.02,-0.01,-0.97
1697352335.44,-0.1,1.05,0.77,-0.7,6,41.5,0.24,0.02,-0.01,-0.97
1697352335.45,0.03,1.19,0.71,2,5.8,42.4,0.25,0.02,-0.01,-0.97
1697352335.46,-0.12,1.12,0.85,7,5.4,43.2,0.25,0.02,-0.01,-0.97
1697352335.47,-0.01,0.91,0.61,5.8,5.2,43.8,0.25,0.02,-0.01,-0.97
1697352335.48,-0.01,0.91,0.61,5.8,5.2,43.8,0.25,0.02,-0.01,-0.97
1697352335.49,-0.09,0.78,0.93,-2.6,4.3,43.2,0.26,0.02,-0.01,-0.97
1697352335.5,0.03,0.94,0.91,-4.3,2.9,43.5,0.26,0.02,-0.01,-0.96
1697352335.51,-0.02,1.11,1.09,-4.5,1.8,44.2,0.26,0.02,-0.01,-0.96
1697352335.52,-0.01,1.26,0.88,0.4,0.6,44.8,0.27,0.02,-0.01,-0.96
1697352335.53,0.06,1.06,0.75,5.3,-0.4,45,0.27,0.02,-0.01,-0.96
1697352335.54,0.03,0.84,0.79,4.1,-1.4,45,0.28,0.02,-0.01,-0.96
1697352335.55,0.03,0.84,0.79,4.1,-1.4,45,0.28,0.02,-0.01,-0.96
1697352335.56,-0.03,0.72,1.19,3.2,-1.7,44.9,0.28,0.02,-0.01,-0.96
1697352335.57,-0.16,0.88,1.05,-5.5,-2.2,43.3,0.29,0.02,-0.01,-0.96
1697352335.58,-0.16,0.88,1.05,-5.5,-2.2,43.3,0.29,0.02,-0.01,-0.96
1697352335.59,-0.22,1.22,1,-5.7,-0.7,42.7,0.29,0.02,-0.01,-0.96
1697352335.6,-0.22,1.22,1,-5.7,-0.7,42.7,0.3,0.02,-0.01,-0.95
1697352335.61,-0.21,1.05,1.11,0.8,0.9,42.6,0.3,0.02,-0.01,-0.95
1697352335.62,-0.03,0.93,0.82,4.1,2,42.6,0.31,0.02,-0.01,-0.95
1697352335.63,-0.02,0.79,0.88,3.3,2.7,42.8,0.31,0.02,-0.01,-0.95
1697352335.64,0.01,0.89,0.93,-1.9,1.7,42.4,0.31,0.02,-0.01,-0.95
1697352335.65,0.01,0.89,0.93,-1.9,1.7,42.4,0.31,0.02,-0.01,-0.95
1697352335.66,0.01,0.89,0.93,-1.9,1.7,42.4,0.31,0.02,-0.01,-0.95
1697352335.67,0.01,0.89,0.93,-1.9,1.7,42.4,0.31,0.02,-0.01,-0.95
1697352335.68,0.01,0.89,0.93,-1.9,1.7,42.4,0.31,0.02,-0.01,-0.95
1697352335.69,0.01,0.89,0.93,-1.9,1.7,42.4,0.31,0.02,-0.01,-0.95
1697352335.7,0.01,0.89,0.93,-1.9,1.7,42.4,0.31,0.02,-0.01,-0.95
1697352335.71,0.01,0.89,0.93,-1.9,1.7,42.4,0.31,0.02,-0.01,-0.95
1697352335.72,0.01,0.89,0.93,-1.9,1.7,42.4,0.31,0.02,-0.01,-0.95
1697352335.73,0.01,0.89,0.93,-1.9,1.7,42.4,0.31,0.02,-0.01,-0.95
1697352335.74,0.01,0.89,0.93,-1.9,1.7,42.4,0.31,0.02,-0.01,-0.95
1697352335.75,0.01,0.89,0.93,-1.9,1.7,42.4,0.31,0.02,-0.01,-0.95
1697352335.76,0.01,0.89,0.93,-1.9,1.7,42.4,0.31,0.02,-0.01,-0.95
1697352335.77,0.1,1.09,0.83,-0.2,4.5,46,0.36,0.02,-0.01,-0.93
1697352335.78,0.1,1.09,0.83,-0.2,4.5,46,0.36,0.02,-0.01,-0.93
1697352335.79,0.02,1.24,0.99,6.2,3.5,47.7,0.37,0.02,-0.01,-0.93
1697352335.8,-0.01,1.15,1.06,6.2,3.5,47.7,0.37,0.02,-0.01,-0.93
1697352335.81,-0.02,1.02,0.97,7.3,1.7,48.9,0.37,0.02,-0.01,-0.93
1697352335.82,-0.05,0.96,1.03,7.3,1.7,48.9,0.38,0.02,-0.01,-0.93
1697352335.83,-0.15,1.01,1.06,5.8,0.6,49.2,0.39,0.02,-0.01,-0.92
1697352335.84,-0.15,1.01,1.06,5.8,0.6,49.2,0.39,0.02,-0.01,-0.92
1697352335.85,-0.08,0.97,1.08,4.8,0,48.9,0.39,0.02,-0.01,-0.92
1697352335.86,-0.08,0.97,1.08,4.8,0,48.9,0.39,0.02,-0.01,-0.92
1697352335.87,-0.03,0.79,0.81,6.8,0,48.4,0.4,0.03,-0.01,-0.91
1697352335.88,-0.07,0.98,1.08,6.8,0,48.4,0.4,0.03,-0.01,-0.91
1697352335.89,-0.05,1.07,1.11,3,1.6,47,0.41,0.03,-0.01,-0.91
1697352335.9,-0.06,1.11,0.97,0.7,1.7,47.6,0.41,0.03,-0.01,-0.91
1697352335.91,-0.06,1.11,0.97,0.7,1.7,47.6,0.41,0.03,-0.01,-0.91
1697352335.92,-0.1,1.39,0.82,-0.8,0.7,47.9,0.42,0.03,-0.01,-0.91
1697352335.93,-0.1,1.39,0.82,-0.7,0.6,48.4,0.42,0.03,-0.01,-0.91
1697352335.94,-0.1,1.25,0.67,0.8,1.3,49.5,0.43,0.03,-0.01,-0.9
1697352335.95,-0.15,1.21,1.3,4.9,2.1,49.7,0.43,0.03,-0.01,-0.9
1697352335.96,-0.06,1,0.84,5.2,2.4,50.2,0.43,0.03,-0.01,-0.9
1697352335.97,-0.07,0.89,1.03,3.4,2.8,50.3,0.44,0.03,-0.01,-0.9
1697352335.98,-0.01,1.08,0.91,1.2,3.5,49.5,0.44,0.03,-0.01,-0.9
1697352335.99,-0.12,1.25,1.04,3.3,4.4,48.8,0.45,0.03,-0.01,-0.89
1697352336,0.08,1.22,0.65,5.4,3.6,49.3,0.45,0.03,-0.02,-0.89
1697352336.01,-0.07,0.96,1.2,5.5,2.6,48.7,0.46,0.03,-0.02,-0.89
1697352336.02,0.06,0.99,0.74,4.3,2.9,48.7,0.46,0.03,-0.02,-0.89
1697352336.03,-0.05,0.98,0.95,5,3.3,48.9,0.46,0.03,-0.02,-0.89
1697352336.04,-0.07,1,1.15,5,2.4,48.5,0.47,0.03,-0.02,-0.88
1697352336.05,-0.13,0.83,0.99,2,3.5,47.1,0.47,0.03,-0.02,-0.88
1697352336.06,-0.15,1.18,1.02,1.3,5,47.3,0.47,0.03,-0.02,-0.88
1697352336.07,-0.12,1.24,1.05,2.9,5.5,47.8,0.48,0.03,-0.02,-0.88
1697352336.08,-0.01,1.08,0.96,5,5.4,46.6,0.48,0.03,-0.02,-0.88
1697352336.09,0.05,1.04,0.86,2.3,5,46.2,0.48,0.03,-0.02,-0.87
1697352336.1,-0.05,0.94,1.09,-0.5,4.9,47.1,0.49,0.03,-0.02,-0.87
1697352336.11,-0.04,0.94,1.22,-0.5,4.9,47.1,0.49,0.03,-0.02,-0.87
1697352336.12,-0.07,1.2,1.17,-3.1,4,47.3,0.49,0.03,-0.02,-0.87
1697352336.13,-0.01,0.99,1.16,-4.3,2.5,47.7,0.5,0.03,-0.02,-0.87
1697352336.14,0.08,1.16,0.74,-1.7,0.9,47.4,0.5,0.03,-0.02,-0.86
1697352336.15,0.08,1.16,0.74,-1.7,0.9,47.4,0.5,0.03,-0.02,-0.86
1697352336.16,0.08,1.16,0.74,-1.7,0.9,47.4,0.5,0.03,-0.02,-0.86
1697352336.17,0.08,1.16,0.74,-1.7,0.9,47.4,0.5,0.03,-0.02,-0.86
1697352336.18,0.08,1.16,0.74,-1.7,0.9,47.4,0.5,0.03,-0.02,-0.86
1697352336.19,0.08,1.16,0.74,-1.7,0.9,47.4,0.5,0.03,-0.02,-0.86
1697352336.2,0.08,1.16,0.74,-1.7,0.9,47.4,0.5,0.03,-0.02,-0.86
1697352336.21,0.08,1.16,0.74,-1.7,0.9,47.4,0.5,0.03,-0.02,-0.86
1697352336.22,0.08,1.16,0.74,-1.7,0.9,47.4,0.5,0.03,-0.02,-0.86
1697352336.23,0.08,1.16,0.74,-1.7,0.9,47.4,0.5,0.03,-0.02,-0.86
1697352336.24,0.08,1.16,0.74,-1.7,0.9,47.4,0.5,0.03,-0.02,-0.86
1697352336.25,0.08,1.16,0.74,-1.7,0.9,47.4,0.5,0.03,-0.02,-0.86
1697352336.26,0.08,1.16,0.74,-1.7,0.9,47.4,0.5,0.03,-0.02,-0.86
1697352336.27,0.08,1.16,0.74,-1.7,0.9,47.4,0.5,0.03,-0.02,-0.86
1697352336.28,0.07,0.75,1.07,-1.3,2.4,32.7,0.54,0.03,-0.02,-0.84
1697352336.29,-0.01,0.79,0.94,1.2,1.6,33.4,0.54,0.03,-0.02,-0.84
1697352336.3,0.08,0.5,0.72,1.5,0.1,32.9,0.55,0.03,-0.02,-0.84
1697352336.31,0.12,0.46,0.72,-4.1,-0.2,32.1,0.55,0.03,-0.02,-0.84
1697352336.32,0.03,0.63,1.05,-7.7,-0.5,31.8,0.55,0.03,-0.02,-0.83
1697352336.33,0.1,0.73,0.75,-7.6,-0.9,31,0.55,0.03,-0.02,-0.83
1697352336.34,0.14,0.94,0.97,-4.4,-1.5,30.4,0.56,0.03,-0.02,-0.83
1697352336.35,0.13,0.76,1.36,-0.4,-2.5,30.4,0.56,0.03,-0.02,-0.83
1697352336.36,0.11,1.03,0.8,3.1,-1.9,30.6,0.56,0.03,-0.02,-0.83
1697352336.37,0.11,0.7,0.73,4.6,-0.9,29.8,0.56,0.03,-0.02,-0.83
1697352336.38,-0.06,0.43,0.96,2.1,-0.8,29,0.56,0.03,-0.02,-0.82
1697352336.39,-0.11,0.44,1.09,-2.9,0.4,28.8,0.57,0.03,-0.02,-0.82
1697352336.4,-0.05,0.5,1.18,-6.1,2.3,28.8,0.57,0.03,-0.02,-0.82
1697352336.41,-0.04,0.88,0.93,-4.1,3.2,29.4,0.57,0.03,-0.02,-0.82
1697352336.42,-0.1,1.01,1.27,1.8,4.4,30.2,0.57,0.03,-0.02,-0.82
1697352336.43,0,0.81,1.54,5.3,3.8,31.1,0.57,0.03,-0.02,-0.82
1697352336.44,0.12,0.67,0.96,2.7,2,31.8,0.58,0.03,-0.02,-0.82
1697352336.45,0.03,0.58,1.37,0.9,0.7,30.9,0.58,0.03,-0.02,-0.82
1697352336.46,0.12,0.56,0.82,-3.1,-0.6,30.5,0.58,0.03,-0.02,-0.81
1697352336.47,-0.05,0.65,0.96,-5.3,-2,29.7,0.58,0.03,-0.02,-0.81
1697352336.48,0.07,0.86,0.63,-5.3,-2,29.7,0.58,0.03,-0.02,-0.81
1697352336.49,0.02,1.01,0.99,3.2,-3.1,29.3,0.59,0.03,-0.02,-0.81
1697352336.5,-0.07,0.78,1,7.1,-2.5,29.5,0.59,0.03,-0.02,-0.81
1697352336.51,0.04,0.55,0.89,8.2,-2.4,29.1,0.59,0.03,-0.02,-0.81
1697352336.52,-0.1,0.43,0.99,4.2,-1.1,28.7,0.59,0.03,-0.02,-0.8
1697352336.53,-0.1,0.43,0.99,4.2,-1.1,28.7,0.59,0.03,-0.02,-0.8
1697352336.54,-0.18,0.12,1.05,-0.8,0,27.6,0.6,0.03,-0.02,-0.8
1697352336.55,-0.18,0.12,1.05,-0.8,0,27.6,0.6,0.03,-0.02,-0.8
