time,accel_x,accel_y,accel_z,gyro_x,gyro_y,gyro_z,quat_w,quat_x,quat_y,quat_z
1697353152.75,-0.21,0.54,1,-1.5,0.4,56.6,0.94,0.04,-0,-0.33
1697353152.76,-0.21,0.54,1,-1.5,0.4,56.6,0.94,0.04,-0,-0.33
1697353152.77,-0.21,0.54,1,-1.5,0.4,56.6,0.94,0.04,-0,-0.33
1697353152.78,-0.21,0.54,1,-1.5,0.4,56.6,0.94,0.04,-0,-0.33
1697353152.79,-0.21,0.54,1,-1.5,0.4,56.6,0.94,0.04,-0,-0.33
1697353152.8,-0.21,0.54,1,-1.5,0.4,56.6,0.94,0.04,-0,-0.33
1697353152.81,-0.21,0.54,1,-1.5,0.4,56.6,0.94,0.04,-0,-0.33
1697353152.82,-0.21,0.54,1,-1.5,0.4,56.6,0.94,0.04,-0,-0.33
1697353152.83,-0.21,0.54,1,-1.5,0.4,56.6,0.94,0.04,-0,-0.33
1697353152.84,-0.21,0.54,1,-1.5,0.4,56.6,0.99,0.04,-0,-0.1
1697353152.85,-0.12,0.4,1.06,-1.8,4.4,51.5,0.99,0.04,-0,-0.1
1697353152.86,-0.13,0.45,0.87,-1.4,4,51.2,0.99,0.04,-0,-0.09
1697353152.87,-0.16,0.41,1.11,-0.2,4,51,1,0.04,-0,-0.09
1697353152.88,-0.13,0.36,0.87,-0.2,4,51,1,0.04,-0,-0.08
1697353152.89,-0.11,0.33,0.77,-0.2,4.3,50.5,1,0.04,-0,-0.08
1697353152.9,-0.14,0.37,1.02,-0.2,4.3,50.5,1,0.04,0,-0.07
1697353152.91,-0.14,0.37,1.02,-1.4,4.7,50.4,1,0.04,0,-0.07
1697353152.92,-0.11,0.4,0.9,-2,5,50.4,1,0.04,0,-0.06
1697353152.93,-0.09,0.38,0.91,-1.5,5.3,50.3,1,0.04,0,-0.06
1697353152.94,-0.16,0.36,1.02,-1.5,5.3,50.3,1,0.04,0,-0.05
1697353152.95,-0.1,0.28,0.99,-1,5.3,50.1,1,0.04,0,-0.05
1697353152.96,-0.11,0.33,0.91,-1.2,4.7,49.8,1,0.04,0,-0.05
1697353152.97,-0.12,0.35,0.94,-1.5,4.3,49.5,1,0.04,0,-0.04
1697353152.98,-0.07,0.39,0.95,-2.2,4,49.3,1,0.04,0,-0.04
1697353152.99,-0.12,0.39,1.01,-1.8,3.4,49.1,1,0.05,0,-0.03
1697353153,-0.13,0.35,1.07,-0.8,2.7,49.1,1,0.05,0,-0.03
1697353153.01,-0.13,0.3,0.96,0,2.2,49,1,0.05,0,-0.02
1697353153.02,-0.1,0.3,0.89,-0.2,1.8,49,1,0.05,0,-0.02
1697353153.03,-0.17,0.29,1.06,-0.8,1.6,49,1,0.05,0.01,-0.01
1697353153.04,-0.15,0.34,1.03,-1.6,1.6,49,1,0.05,0.01,-0.01
1697353153.05,-0.14,0.31,0.98,-1.6,1.6,49,1,0.05,0.01,-0.01
1697353153.06,-0.12,0.3,0.9,-0.8,1.5,49,1,0.05,0.01,-0
1697353153.07,-0.12,0.3,0.9,-0.8,1.5,49,1,0.05,0.01,-0
1697353153.08,-0.16,0.29,0.9,-0.4,1.6,48.7,1,0.05,0.01,0.01
1697353153.09,-0.16,0.29,0.9,-0.4,1.9,48.6,1,0.05,0.01,0.01
1697353153.1,-0.14,0.33,1.09,-0.6,2.1,48.4,1,0.05,0.01,0.01
1697353153.11,-0.14,0.33,1.09,-0.6,2.3,48.3,1,0.05,0.01,0.02
1697353153.12,-0.11,0.32,0.86,-0.6,2.3,48.3,1,0.05,0.01,0.02
1697353153.13,-0.1,0.34,1.11,-0.4,2.4,48.2,1,0.05,0.01,0.03
1697353153.14,-0.09,0.32,0.88,0.2,1.6,48.1,1,0.05,0.01,0.03
1697353153.15,-0.09,0.32,0.88,0.2,1.3,47.9,1,0.05,0.01,0.03
1697353153.16,-0.1,0.3,0.96,0.1,0.8,47.7,1,0.05,0.01,0.04
1697353153.17,-0.1,0.3,1.11,-0.7,0,47.7,1,0.05,0.01,0.04
1697353153.18,-0.13,0.3,1.21,-0.8,0.1,47.6,1,0.05,0.01,0.05
1697353153.19,-0.14,0.31,1.1,-1,-0.8,47.5,1,0.05,0,0.05
1697353153.2,-0.1,0.34,0.98,-0.8,-0.8,47.5,1,0.05,0,0.06
1697353153.21,-0.12,0.31,0.94,-0.6,-1.1,47.5,1,0.05,0,0.06
1697353153.22,-0.09,0.32,0.94,-0.2,-1,47.5,1,0.05,0,0.06
1697353153.23,-0.03,0.32,1.04,-0.3,-0.8,47.4,1,0.05,0,0.07
1697353153.24,-0.03,0.32,1.04,-0.3,-0.8,47.4,1,0.05,0,0.07
1697353153.25,-0.03,0.32,1.04,-0.3,-0.8,47.4,1,0.05,0,0.07
1697353153.26,-0.03,0.32,1.04,-0.3,-0.8,47.4,1,0.05,0,0.07
1697353153.27,-0.03,0.32,1.04,-0.3,-0.8,47.4,1,0.05,0,0.07
1697353153.28,-0.03,0.32,1.04,-0.3,-0.8,47.4,1,0.05,0,0.07
1697353153.29,-0.03,0.32,1.04,-0.3,-0.8,47.4,1,0.05,0,0.07
1697353153.3,-0.03,0.32,1.04,-0.3,-0.8,47.4,1,0.05,0,0.07
1697353153.31,-0.03,0.32,1.04,-0.3,-0.8,47.4,1,0.05,0,0.07
1697353153.32,-0.03,0.32,1.04,-0.3,-0.8,47.4,1,0.05,0,0.07
1697353153.33,-0.03,0.32,1.04,-0.3,-0.8,47.4,1,0.05,0,0.07
1697353153.34,-0.03,0.32,1.04,-0.3,-0.8,47.4,1,0.05,0,0.07
1697353153.35,-0.03,0.32,1.04,-0.3,-0.8,47.4,1,0.05,0,0.07
1697353153.36,-0.03,0.32,1.04,-0.3,-0.8,47.4,1,0.05,0,0.07
1697353153.37,-0.03,0.32,1.04,-0.3,-0.8,47.4,1,0.05,0,0.07
1697353153.38,0.14,0.35,1.02,0.5,-3.4,47.2,0.99,0.05,-0,0.13
1697353153.39,0.09,0.31,0.84,0.3,-3.6,46.1,0.99,0.05,-0,0.14
1697353153.4,0.04,0.37,0.72,0.1,-3.4,45.3,0.99,0.05,-0,0.14
1697353153.41,-0.12,0.38,0.77,0,-2.5,45.3,0.99,0.05,-0,0.14
1697353153.42,-0.28,0.36,1.17,-0.4,-1.4,46,0.99,0.05,-0,0.14
1697353153.43,-0.21,0.34,1,-0.4,-1.4,46,0.99,0.05,-0,0.15
1697353153.44,-0.21,0.34,1,-1.4,-0.2,46.9,0.99,0.05,-0,0.15
1697353153.45,-0.08,0.29,0.99,-1.7,0.6,48,0.99,0.05,-0,0.16
1697353153.46,-0.08,0.32,0.95,-1.8,1.7,49.1,0.99,0.05,-0,0.16
1697353153.47,-0.08,0.32,0.95,-0.9,1.5,49.6,0.99,0.05,-0,0.16
1697353153.48,0.01,0.26,0.86,0.2,0.8,49.7,0.98,0.05,-0,0.17
1697353153.49,0.01,0.26,0.86,1.2,0,49.6,0.98,0.05,-0,0.17
1697353153.5,-0.02,0.24,0.96,1.9,-0.6,49.2,0.98,0.05,-0,0.18
1697353153.51,-0.02,0.21,1.07,1.9,-1.5,48.5,0.98,0.05,-0,0.18
1697353153.52,0.02,0.28,1,1.3,-2.4,47.7,0.98,0.05,-0,0.19
1697353153.53,-0.01,0.36,1.06,0.6,-2.7,47,0.98,0.05,-0,0.19
1697353153.54,-0.06,0.38,1.01,0.9,-2.5,46.6,0.98,0.05,-0,0.19
1697353153.55,-0.19,0.35,1.07,0.7,-1.8,46.8,0.98,0.05,-0,0.2
1697353153.56,-0.19,0.33,1.02,0.2,-0.3,47,0.98,0.05,-0,0.2
1697353153.57,-0.25,0.3,1.08,-0.6,1,47.4,0.98,0.05,-0,0.21
1697353153.58,-0.16,0.27,1.03,-1.9,2.2,47.6,0.98,0.05,-0,0.21
1697353153.59,-0.12,0.29,1.11,-3.3,2.8,47.6,0.98,0.05,-0,0.22
1697353153.6,-0.05,0.36,0.98,-3.6,2.8,47.5,0.97,0.05,-0,0.22
1697353153.61,-0.1,0.37,0.97,-2.9,2.7,47.4,0.97,0.05,-0,0.22
1697353153.62,-0.09,0.31,1.04,-1.4,2.2,47.2,0.97,0.05,-0,0.23
1697353153.63,-0.02,0.3,0.88,0.2,1.8,46.7,0.97,0.05,-0,0.23
1697353153.64,-0.08,0.22,0.85,0.2,1.8,46.7,0.97,0.05,-0,0.23
1697353153.65,-0.23,0.16,1.19,0.9,0.7,45.6,0.97,0.05,-0,0.24
1697353153.66,-0.21,0.21,0.98,-0.2,0.8,45,0.97,0.05,-0,0.24
1697353153.67,-0.3,0.25,0.95,-1.2,1,44.3,0.97,0.05,-0,0.25
1697353153.68,-0.29,0.31,0.96,-1.2,1,44.3,0.97,0.05,-0,0.25
1697353153.69,-0.26,0.31,0.97,-0.9,1.2,43.6,0.97,0.05,-0.01,0.26
1697353153.7,-0.06,0.29,0.77,-0.2,1.4,43.9,0.96,0.05,-0.01,0.26
1697353153.71,-0.08,0.23,1.08,-0.1,1.4,44.6,0.96,0.05,-0.01,0.26
1697353153.72,-0.07,0.22,1.12,-0.6,1.2,45.1,0.96,0.05,-0.01,0.26
1697353153.73,-0.09,0.22,1.08,-1.6,1.4,45.7,0.96,0.05,-0.01,0.27
1697353153.74,-0.04,0.23,0.86,-1,1.3,45.5,0.96,0.05,-0.01,0.28
1697353153.75,-0.08,0.23,1.06,-1,1.3,45.5,0.96,0.05,-0.01,0.28
1697353153.76,-0.06,0.24,1.2,0,0.6,45.5,0.96,0.05,-0.01,0.28
1697353153.77,-0.06,0.24,1.2,0,0.6,45.5,0.96,0.05,-0.01,0.28
1697353153.78,-0.06,0.24,1.2,0,0.6,45.5,0.96,0.05,-0.01,0.28
1697353153.79,-0.06,0.24,1.2,0,0.6,45.5,0.96,0.05,-0.01,0.28
1697353153.8,-0.06,0.24,1.2,0,0.6,45.5,0.96,0.05,-0.01,0.28
1697353153.81,-0.06,0.24,1.2,0,0.6,45.5,0.96,0.05,-0.01,0.28
1697353153.82,-0.06,0.24,1.2,0,0.6,45.5,0.96,0.05,-0.01,0.28
1697353153.83,-0.06,0.24,1.2,0,0.6,45.5,0.96,0.05,-0.01,0.28
1697353153.84,-0.06,0.24,1.2,0,0.6,45.5,0.96,0.05,-0.01,0.28
1697353153.85,-0.06,0.24,1.2,0,0.6,45.5,0.96,0.05,-0.01,0.28
1697353153.86,-0.06,0.24,1.2,0,0.6,45.5,0.96,0.05,-0.01,0.28
1697353153.87,-0.06,0.24,1.2,0,0.6,45.5,0.96,0.05,-0.01,0.28
1697353153.88,-0.06,0.24,1.2,0,0.6,45.5,0.96,0.05,-0.01,0.28
1697353153.89,-0.05,0.27,0.95,1.5,4.4,45.7,0.94,0.05,-0.01,0.33
1697353153.9,-0.1,0.23,0.99,1.4,3.9,45.4,0.94,0.05,-0.01,0.33
1697353153.91,-0.04,0.26,0.85,1.3,3.1,44.9,0.94,0.05,-0.01,0.34
1697353153.92,-0.06,0.25,1,0.8,2.3,44.1,0.94,0.05,-0.01,0.34
1697353153.93,-0.01,0.27,0.87,1,1.9,43.6,0.94,0.05,-0.01,0.34
1697353153.94,-0.09,0.25,1.16,1.2,1.4,43.1,0.94,0.05,-0.01,0.35
1697353153.95,-0.07,0.25,1,1.6,1.4,42.8,0.94,0.05,-0.01,0.35
1697353153.96,-0.07,0.24,1.03,1,1.1,42.6,0.93,0.05,-0.01,0.35
1697353153.97,-0.11,0.21,1.17,0.2,1.7,42.6,0.93,0.05,-0.01,0.36
1697353153.98,0,0.27,0.96,0,1.6,42.6,0.93,0.05,-0.01,0.36
1697353153.99,-0.08,0.25,0.94,0,2.3,42.6,0.93,0.05,-0.01,0.36
1697353154,-0.12,0.2,1.15,-0.1,2.5,42.8,0.93,0.05,-0.01,0.37
1697353154.01,-0.07,0.24,0.92,-0.4,2.8,43.1,0.93,0.05,-0.01,0.37
1697353154.02,-0.09,0.21,1.01,-0.4,3.1,43.1,0.93,0.05,-0.01,0.38
1697353154.03,-0.04,0.27,0.93,-0.1,2.8,43.2,0.92,0.05,-0.01,0.38
1697353154.04,-0.09,0.26,1.03,0.2,2.5,43.4,0.92,0.05,-0.01,0.38
1697353154.05,-0.01,0.28,0.94,0.9,1.6,43.1,0.92,0.05,-0.01,0.38
1697353154.06,-0.06,0.21,1.02,1.2,0.7,43.2,0.92,0.05,-0.01,0.38
1697353154.07,-0.04,0.22,0.93,1,-0.4,43.2,0.92,0.05,-0.01,0.39
1697353154.08,-0.04,0.26,0.97,0.3,-1.2,42.8,0.92,0.05,-0.01,0.4
1697353154.09,-0.07,0.25,0.91,-0.2,-1.9,42.6,0.91,0.05,-0.01,0.4
1697353154.1,-0.15,0.24,0.91,-1.2,-2.4,42.5,0.91,0.05,-0.01,0.4
1697353154.11,-0.19,0.32,1.07,-1.9,-2.2,42.4,0.91,0.05,-0.01,0.41
1697353154.12,-0.19,0.32,1.07,-1.9,-2.2,42.4,0.91,0.05,-0.01,0.41
1697353154.13,-0.34,0.26,0.89,-1.1,-0.2,42.2,0.91,0.05,-0,0.41
1697353154.14,-0.34,0.26,0.89,-1.1,-0.2,42.2,0.91,0.05,-0,0.41
1697353154.15,-0.25,0.13,0.89,-0.5,1.2,41.4,0.91,0.05,-0,0.42
1697353154.16,-0.25,0.13,0.89,-0.2,2.9,40.8,0.91,0.05,-0,0.42
1697353154.17,-0.16,0.2,1.14,-1,3.2,40.6,0.9,0.05,-0,0.42
1697353154.18,-0.06,0.14,1.02,-1.1,2.4,41.1,0.9,0.05,-0,0.43
1697353154.19,-0.08,0.18,1.12,-1.2,1.5,41.7,0.9,0.05,-0,0.43
1697353154.2,-0.04,0.21,1.08,-0.4,0.6,42.3,0.9,0.05,-0,0.43
1697353154.21,0.01,0.24,0.85,0.4,-0.3,42.7,0.9,0.05,-0,0.44
1697353154.22,-0.02,0.19,0.98,1.2,-0.5,42.7,0.9,0.05,-0,0.44
1697353154.23,-0.02,0.19,0.88,1.5,-0.5,42.6,0.89,0.05,-0,0.44
1697353154.24,-0.09,0.17,0.97,1.3,-0.5,42.2,0.89,0.05,-0,0.45
1697353154.25,-0.06,0.19,0.91,1.6,-0.1,41.7,0.89,0.05,-0,0.45
1697353154.26,-0.1,0.23,0.95,2.3,0.6,41.2,0.89,0.05,-0,0.45
1697353154.27,-0.12,0.21,1.04,2.3,0.7,40.9,0.89,0.05,-0,0.46
1697353154.28,-0.04,0.18,0.89,2.1,0.9,40.3,0.89,0.05,-0,0.46
1697353154.29,-0.04,0.18,0.89,2.1,0.9,40.3,0.89,0.05,-0,0.46
1697353154.3,-0.04,0.18,0.89,2.1,0.9,40.3,0.89,0.05,-0,0.46
1697353154.31,-0.04,0.18,0.89,2.1,0.9,40.3,0.89,0.05,-0,0.46
1697353154.32,-0.04,0.18,0.89,2.1,0.9,40.3,0.89,0.05,-0,0.46
1697353154.33,-0.04,0.18,0.89,2.1,0.9,40.3,0.89,0.05,-0,0.46
1697353154.34,-0.04,0.18,0.89,2.1,0.9,40.3,0.89,0.05,-0,0.46
1697353154.35,-0.04,0.18,0.89,2.1,0.9,40.3,0.89,0.05,-0,0.46
1697353154.36,-0.04,0.18,0.89,2.1,0.9,40.3,0.89,0.05,-0,0.46
1697353154.37,-0.04,0.18,0.89,2.1,0.9,40.3,0.89,0.05,-0,0.46
1697353154.38,-0.04,0.18,0.89,2.1,0.9,40.3,0.89,0.05,-0,0.46
1697353154.39,-0.04,0.18,0.89,2.1,0.9,40.3,0.89,0.05,-0,0.46
1697353154.4,-0.04,0.18,0.89,2.1,0.9,40.3,0.89,0.05,-0,0.46
1697353154.41,-0.04,0.24,1.07,1.4,2.1,40.2,0.86,0.06,0.01,0.5
1697353154.42,-0.06,0.22,0.99,2,1.7,40.2,0.86,0.06,0.01,0.5
1697353154.43,-0.12,0.22,1.04,2.2,1.3,40.2,0.86,0.06,0.01,0.51
1697353154.44,-0.11,0.19,1.03,2.4,0.9,40.1,0.86,0.06,0.01,0.51
1697353154.45,-0.14,0.17,1.07,2.2,0.6,40,0.86,0.06,0.01,0.51
1697353154.46,-0.19,0.14,0.99,1.7,0.4,39.8,0.86,0.06,0.01,0.51
1697353154.47,-0.19,0.14,0.99,1.7,0.4,39.8,0.85,0.06,0.01,0.52
1697353154.48,-0.24,0.17,1.07,1,0.4,39.6,0.85,0.06,0.01,0.52
1697353154.49,-0.18,0.18,0.96,0.5,0.5,39.1,0.85,0.06,0.01,0.52
1697353154.5,-0.18,0.18,0.96,0.3,0.7,39,0.85,0.06,0.01,0.53
1697353154.51,-0.1,0.23,0.9,0.3,0.6,39.1,0.85,0.06,0.01,0.53
1697353154.52,-0.1,0.2,1.15,0.4,0.5,39,0.84,0.06,0.01,0.53
1697353154.53,-0.08,0.2,0.85,0.4,0.5,39,0.84,0.06,0.01,0.53
1697353154.54,-0.08,0.17,1.11,-0.2,0.4,39,0.84,0.06,0.01,0.54
1697353154.55,-0.08,0.15,1.01,-1.1,0.4,38.7,0.84,0.06,0.01,0.54
1697353154.56,-0.12,0.19,1.14,-1.4,0.4,38.6,0.84,0.06,0.01,0.54
1697353154.57,-0.06,0.22,1.09,-1.9,0.6,38.5,0.84,0.06,0.01,0.55
1697353154.58,-0.1,0.22,1,-1.4,1.1,38.3,0.83,0.06,0.01,0.55
1697353154.59,-0.12,0.2,0.97,-1.5,1.3,38.4,0.83,0.06,0.01,0.55
1697353154.6,-0.07,0.17,0.89,-1.7,1.5,38.3,0.83,0.06,0.01,0.56
1697353154.61,-0.08,0.14,1.04,-2,1.4,38.2,0.83,0.06,0.02,0.56
1697353154.62,-0.12,0.16,1.11,-2.6,1.4,38.3,0.83,0.05,0.02,0.56
1697353154.63,-0.08,0.15,0.91,-3,1.8,38.2,0.82,0.05,0.02,0.56
1697353154.64,-0.12,0.15,1.09,-3.3,1.6,38.3,0.82,0.05,0.02,0.57
1697353154.65,-0.06,0.21,0.86,-3.1,1.3,38.4,0.82,0.05,0.02,0.57
1697353154.66,-0.12,0.17,1,-2.7,0.8,38.6,0.82,0.05,0.02,0.57
1697353154.67,-0.08,0.25,1.1,-1.7,0.6,38.8,0.82,0.05,0.02,0.58
1697353154.68,-0.05,0.21,0.93,-0.7,0.6,38.9,0.81,0.05,0.02,0.58
1697353154.69,-0.09,0.19,1.03,-0.7,0.6,38.9,0.81,0.05,0.02,0.58
1697353154.7,-0.09,0.18,0.97,-0.3,0.3,39,0.81,0.05,0.02,0.58
1697353154.71,-0.09,0.14,1.07,-0.1,0.5,39,0.81,0.05,0.02,0.59
1697353154.72,-0.08,0.16,0.97,0,0.6,38.9,0.81,0.05,0.02,0.59
1697353154.73,-0.11,0.18,1.23,0,0.6,38.9,0.81,0.05,0.02,0.59
1697353154.74,-0.06,0.16,1.01,1.1,0,38.8,0.8,0.05,0.02,0.59
1697353154.75,-0.09,0.16,1.1,1.1,0,38.8,0.8,0.05,0.02,0.59
1697353154.76,-0.08,0.14,1.01,2.4,-1.4,38.4,0.8,0.05,0.02,0.6
1697353154.77,-0.15,0.1,1.11,2.4,-1.4,38.4,0.8,0.05,0.02,0.6
1697353154.78,-0.15,0.12,0.84,2.4,-1.9,37.6,0.79,0.06,0.02,0.61
1697353154.79,-0.21,0.11,1.1,1.5,-1.3,37.3,0.79,0.06,0.02,0.61
1697353154.8,-0.21,0.11,1.1,1.5,-1.3,37.3,0.79,0.06,0.02,0.61
1697353154.81,-0.21,0.11,1.1,1.5,-1.3,37.3,0.79,0.06,0.02,0.61
1697353154.82,-0.21,0.11,1.1,1.5,-1.3,37.3,0.79,0.06,0.02,0.61
1697353154.83,-0.21,0.11,1.1,1.5,-1.3,37.3,0.79,0.06,0.02,0.61
1697353154.84,-0.21,0.11,1.1,1.5,-1.3,37.3,0.79,0.06,0.02,0.61
1697353154.85,-0.21,0.11,1.1,1.5,-1.3,37.3,0.79,0.06,0.02,0.61
1697353154.86,-0.21,0.11,1.1,1.5,-1.3,37.3,0.79,0.06,0.02,0.61
1697353154.87,-0.21,0.11,1.1,1.5,-1.3,37.3,0.79,0.06,0.02,0.61
1697353154.88,-0.21,0.11,1.1,1.5,-1.3,37.3,0.79,0.06,0.02,0.61
1697353154.89,-0.21,0.11,1.1,1.5,-1.3,37.3,0.79,0.06,0.02,0.61
1697353154.9,-0.21,0.11,1.1,1.5,-1.3,37.3,0.79,0.06,0.02,0.61
1697353154.91,-0.21,0.11,1.1,1.5,-1.3,37.3,0.79,0.06,0.02,0.61
1697353154.92,-0.21,0.11,1.1,1.5,-1.3,37.3,0.79,0.06,0.02,0.61
1697353154.93,-0.21,0.11,1.1,1.5,-1.3,37.3,0.79,0.06,0.02,0.61
1697353154.94,-0.12,0.14,1.05,0.7,-2.2,36.2,0.76,0.06,0.02,0.64
1697353154.95,-0.11,0.12,1.15,0.5,-2,35.9,0.76,0.06,0.02,0.65
1697353154.96,-0.1,0.09,1.03,0.3,-1.6,35.9,0.76,0.06,0.02,0.65
1697353154.97,-0.11,0.12,0.98,-0.1,-1.1,35.8,0.76,0.06,0.02,0.65
1697353154.98,-0.07,0.15,0.91,-1.1,-0.4,35.6,0.75,0.06,0.02,0.65
1697353154.99,-0.09,0.17,0.91,-1.8,0,35.7,0.75,0.06,0.02,0.66
1697353155,-0.06,0.24,0.8,-2.6,0.9,35.8,0.75,0.06,0.02,0.66
1697353155.01,-0.11,0.24,0.86,-2.1,1.8,35.9,0.75,0.06,0.02,0.66
1697353155.02,-0.08,0.24,0.97,-1,2,36.3,0.75,0.06,0.02,0.66
1697353155.03,-0.02,0.17,0.93,0,1.8,36.3,0.74,0.06,0.02,0.67
1697353155.04,-0.03,0.11,1.02,1.6,0.8,36.1,0.74,0.06,0.02,0.67
1697353155.05,-0.02,0.09,0.88,1.4,-0.1,35.8,0.74,0.06,0.02,0.67
1697353155.06,-0.06,0.07,1.03,0.4,-0.8,35.4,0.74,0.06,0.02,0.67
1697353155.07,-0.05,0.14,1.09,0.4,-0.8,35.4,0.74,0.06,0.02,0.67
1697353155.08,0.01,0.1,1.13,-0.9,-2.1,35.2,0.73,0.06,0.02,0.68
1697353155.09,0.24,0.17,0.84,-0.9,-2.1,35.2,0.73,0.06,0.02,0.68
1697353155.1,0.24,0.16,1.21,0,-2.6,34.3,0.73,0.06,0.02,0.68
1697353155.11,0.24,0.16,1.21,0,-2.6,34.3,0.73,0.06,0.02,0.68
1697353155.12,0.2,0.13,0.9,0.2,-2.3,32.9,0.73,0.06,0.02,0.68
1697353155.13,-0.11,0.17,1.06,0.1,0.2,34.4,0.72,0.06,0.02,0.69
1697353155.14,-0.15,0.25,0.83,-0.3,1.7,35.9,0.72,0.06,0.02,0.69
1697353155.15,-0.19,0.22,1.06,-0.3,1.7,35.9,0.72,0.06,0.02,0.69
1697353155.16,-0.13,0.2,0.95,-0.7,2.9,38.6,0.72,0.06,0.02,0.7
1697353155.17,-0.13,0.2,0.95,-0.7,2.9,38.6,0.72,0.06,0.02,0.7
1697353155.18,-0.03,0.14,1.06,-1.2,1.6,39.2,0.71,0.06,0.02,0.7
1697353155.19,-0.03,0.14,1.06,-1.2,1.6,39.2,0.71,0.06,0.02,0.7
1697353155.2,0.09,0.14,0.89,-1,0.1,38.4,0.71,0.06,0.02,0.7
1697353155.21,0.13,0.08,1.08,-0.6,-1.1,37.3,0.71,0.06,0.02,0.71
1697353155.22,0.31,0.14,0.89,-0.6,-1.1,37.3,0.71,0.06,0.02,0.71
1697353155.23,0.39,0.13,0.74,-0.1,-2.8,35.4,0.7,0.06,0.01,0.71
1697353155.24,0.34,0.15,0.96,-0.4,-4.3,33.9,0.7,0.06,0.01,0.71
1697353155.25,0.21,0.33,1,-0.3,-5,32,0.7,0.06,0.01,0.71
1697353155.26,0.08,0.27,0.96,-0.8,-4.6,31.6,0.7,0.06,0.01,0.72
1697353155.27,-0.06,0.33,1.02,-0.1,-3.4,32.1,0.69,0.06,0.01,0.72
1697353155.28,-0.16,0.25,0.79,0,-1.6,33.3,0.69,0.06,0.01,0.72
1697353155.29,-0.18,0.25,1.1,-0.1,0.6,36,0.69,0.06,0.01,0.72
1697353155.3,-0.04,0.19,1.01,-1.1,2.5,38.3,0.69,0.06,0.01,0.72
1697353155.31,0.01,0.17,1.05,-1.3,3,39.9,0.68,0.06,0.01,0.73
1697353155.32,0.01,0.17,1.05,-1.3,3,39.9,0.68,0.06,0.01,0.73
1697353155.33,0.01,0.17,1.05,-1.3,3,39.9,0.68,0.06,0.01,0.73
1697353155.34,0.01,0.17,1.05,-1.3,3,39.9,0.68,0.06,0.01,0.73
1697353155.35,0.01,0.17,1.05,-1.3,3,39.9,0.68,0.06,0.01,0.73
1697353155.36,0.01,0.17,1.05,-1.3,3,39.9,0.68,0.06,0.01,0.73
1697353155.37,0.01,0.17,1.05,-1.3,3,39.9,0.68,0.06,0.01,0.73
1697353155.38,0.01,0.17,1.05,-1.3,3,39.9,0.68,0.06,0.01,0.73
1697353155.39,0.01,0.17,1.05,-1.3,3,39.9,0.68,0.06,0.01,0.73
1697353155.4,0.01,0.17,1.05,-1.3,3,39.9,0.68,0.06,0.01,0.73
1697353155.41,0.01,0.17,1.05,-1.3,3,39.9,0.68,0.06,0.01,0.73
1697353155.42,0.01,0.17,1.05,-1.3,3,39.9,0.68,0.06,0.01,0.73
1697353155.43,0.01,0.17,1.05,-1.3,3,39.9,0.68,0.06,0.01,0.73
1697353155.44,0.01,0.17,1.05,-1.3,3,39.9,0.68,0.06,0.01,0.73
1697353155.45,-0.02,0.13,1.34,-0.8,-0.3,38,0.65,0.06,0.01,0.76
1697353155.46,-0.02,0.29,1.33,0.1,-1.4,37.3,0.64,0.06,0.01,0.76
1697353155.47,0.05,0.25,0.97,0.1,-1.4,37.3,0.64,0.06,0.01,0.76
1697353155.48,0.16,0.27,0.95,1.4,-1.9,38,0.64,0.06,0.01,0.77
1697353155.49,-0.18,0.22,1.08,0.2,-1.5,39.4,0.64,0.06,0.01,0.77
1697353155.5,-0.09,0.2,0.92,-1.2,-0.9,40.6,0.64,0.06,0.01,0.77
1697353155.51,-0.16,0.23,1.06,-1.2,-0.9,40.6,0.63,0.06,0.01,0.77
1697353155.52,-0.16,0.23,1.06,-2.1,-0.4,41.6,0.63,0.06,0.01,0.77
1697353155.53,-0.09,0.29,1,-1.6,-0.1,42.7,0.63,0.06,0.01,0.78
1697353155.54,-0.01,0.21,1.06,-0.2,0,42.8,0.62,0.06,0.01,0.78
1697353155.55,0.03,0.18,1.07,0.8,-0.4,42.4,0.62,0.06,0.01,0.78
1697353155.56,0.11,0.12,1.08,0.7,-0.9,41.4,0.62,0.06,0.01,0.78
1697353155.57,0.21,0.14,1.11,0.1,-1.3,40.5,0.62,0.06,0.01,0.79
1697353155.58,0.25,0.13,0.93,-0.3,-1.5,39.5,0.61,0.06,0.01,0.79
1697353155.59,0.08,0.24,0.86,-0.4,-1.5,39.3,0.61,0.06,0.01,0.79
1697353155.6,-0.08,0.35,0.86,-0.9,-1.6,39,0.61,0.06,0.01,0.79
1697353155.61,-0.15,0.32,1.02,-0.5,-1.5,39.1,0.6,0.06,0.01,0.79
1697353155.62,-0.1,0.27,0.88,-0.5,-1.1,39.7,0.6,0.06,0.01,0.8
1697353155.63,-0.12,0.25,1.09,-0.7,-0.5,40.7,0.6,0.06,0.01,0.8
1697353155.64,-0.04,0.17,0.86,-1.3,0,41.6,0.6,0.06,0.01,0.8
1697353155.65,-0.09,0.2,1.01,-1.6,0.3,42.3,0.59,0.06,0.01,0.8
1697353155.66,-0.05,0.18,1.02,-2.1,0.7,42.6,0.59,0.06,0.01,0.8
1697353155.67,0.01,0.22,0.99,-1.9,0.8,42.5,0.59,0.06,0.01,0.81
1697353155.68,-0.02,0.17,1.02,-1,1.1,42.2,0.58,0.06,0.01,0.81
1697353155.69,0.02,0.15,1.02,1.2,0.7,41.4,0.58,0.06,0.01,0.81
1697353155.7,0.02,0.13,0.94,2.3,0.4,40.8,0.58,0.06,0.01,0.81
1697353155.71,-0.08,0.18,1.07,2.4,0.2,40.2,0.57,0.06,0.01,0.82
1697353155.72,-0.1,0.18,0.91,2.1,0,39.8,0.57,0.06,0.01,0.82
1697353155.73,-0.2,0.21,0.95,0.7,0.1,39.8,0.57,0.06,0.01,0.82
1697353155.74,-0.2,0.21,0.95,0.7,0.1,39.8,0.57,0.06,0.01,0.82
1697353155.75,-0.15,0.22,1.07,-1.6,1.9,40.7,0.57,0.06,0.01,0.82
1697353155.76,-0.15,0.34,0.99,-2.6,3.3,41.3,0.56,0.06,0.01,0.82
1697353155.77,-0.13,0.29,1.12,-2.3,4.1,41.3,0.56,0.06,0.01,0.82
1697353155.78,-0.05,0.2,0.89,-2.3,4.1,41.3,0.56,0.06,0.01,0.83
1697353155.79,-0.03,0.18,0.92,-0.8,4.7,41,0.55,0.06,0.01,0.83
1697353155.8,-0.06,0.14,1.11,-0.8,4.7,41,0.55,0.06,0.01,0.83
1697353155.81,-0.09,0.14,1.14,-1.5,2.1,38.6,0.55,0.06,0.01,0.83
1697353155.82,-0.09,0.14,1.14,-1.5,2.1,38.6,0.55,0.06,0.01,0.84
1697353155.83,-0.21,0.15,0.89,-1.6,1.3,37,0.54,0.06,0.01,0.84
1697353155.84,-0.21,0.15,0.89,-1.6,1.3,37,0.54,0.06,0.01,0.84
1697353155.85,-0.21,0.15,0.89,-1.6,1.3,37,0.54,0.06,0.01,0.84
1697353155.86,-0.21,0.15,0.89,-1.6,1.3,37,0.54,0.06,0.01,0.84
1697353155.87,-0.21,0.15,0.89,-1.6,1.3,37,0.54,0.06,0.01,0.84
1697353155.88,-0.21,0.15,0.89,-1.6,1.3,37,0.54,0.06,0.01,0.84
1697353155.89,-0.21,0.15,0.89,-1.6,1.3,37,0.54,0.06,0.01,0.84
1697353155.9,-0.21,0.15,0.89,-1.6,1.3,37,0.54,0.06,0.01,0.84
1697353155.91,-0.21,0.15,0.89,-1.6,1.3,37,0.54,0.06,0.01,0.84
1697353155.92,-0.21,0.15,0.89,-1.6,1.3,37,0.54,0.06,0.01,0.84
1697353155.93,-0.21,0.15,0.89,-1.6,1.3,37,0.54,0.06,0.01,0.84
1697353155.94,-0.21,0.15,0.89,-1.6,1.3,37,0.54,0.06,0.01,0.84
1697353155.95,-0.21,0.15,0.89,-1.6,1.3,37,0.54,0.06,0.01,0.84
1697353155.96,-0.21,0.15,0.89,-1.6,1.3,37,0.54,0.06,0.01,0.84
1697353155.97,0,0.09,0.91,-0.8,1.2,33.3,0.5,0.05,0.01,0.86
1697353155.98,-0.06,0.04,0.97,-0.7,1.1,32.6,0.5,0.05,0.01,0.86
1697353155.99,-0.01,0.12,0.82,-0.4,0.8,31.8,0.5,0.05,0.01,0.86
1697353156,-0.08,0.04,1.07,-0.4,0.6,31.2,0.5,0.05,0.01,0.87
1697353156.01,-0.02,0.06,0.89,-0.7,0.4,30.8,0.49,0.05,0.01,0.87
1697353156.02,-0.03,0.06,1.05,-1.2,0.3,30.4,0.49,0.05,0.01,0.87
1697353156.03,-0.02,0.03,0.88,-2,0.6,30,0.49,0.05,0.01,0.87
1697353156.04,-0.02,0.05,1,-2.2,0.4,29.4,0.49,0.05,0.01,0.87
1697353156.05,-0.06,0.01,1.11,-2.4,0.6,28.8,0.49,0.05,0.01,0.87
1697353156.06,-0.01,0.02,0.96,-1.9,0.8,27.9,0.48,0.05,0.01,0.87
1697353156.07,-0.03,0.01,1.16,-1.5,0.6,26.9,0.48,0.05,0.01,0.88
1697353156.08,0.08,-0.02,0.92,-0.8,0.2,25.8,0.48,0.05,0.01,0.88
1697353156.09,0.05,-0.04,1.09,-0.6,0,24.9,0.48,0.05,0.01,0.88
1697353156.1,0.13,-0.04,1.01,0,-0.2,23.6,0.47,0.05,0.01,0.88
1697353156.11,0.14,-0.09,0.99,0.5,-0.6,22.2,0.47,0.05,0.01,0.88
1697353156.12,0.09,-0.1,1.07,0.5,-0.6,22.2,0.47,0.05,0.01,0.88
1697353156.13,0.08,-0.11,1.08,0.6,-0.5,19.5,0.47,0.05,0.01,0.88
1697353156.14,0.08,-0.11,1.08,0.6,-0.5,19.5,0.47,0.05,0.01,0.88
1697353156.15,0.11,-0.1,1.17,0.5,-0.3,17.5,0.47,0.05,0,0.88
1697353156.16,0.11,0.04,0.92,0.5,-0.3,17.5,0.47,0.05,0,0.88
1697353156.17,0.11,0.04,0.92,0,0,16.8,0.47,0.05,0,0.88
1697353156.18,0.05,-0.13,1.19,0,0.2,15.7,0.46,0.05,0,0.88
1697353156.19,0.15,-0.17,0.82,0.7,0.1,13.3,0.46,0.05,0,0.89
1697353156.2,0.2,-0.2,0.91,0.4,0,11.3,0.46,0.05,0,0.89
1697353156.21,0.13,-0.21,1.09,-0.4,0,9.4,0.46,0.05,0,0.89
1697353156.22,0.13,-0.21,1.09,-0.4,0,9.4,0.46,0.05,0,0.89
1697353156.23,0.12,-0.21,1.17,-0.9,0,6.8,0.46,0.05,0,0.89
1697353156.24,0.15,-0.19,0.91,-0.9,0.1,4.9,0.46,0.05,0,0.89
1697353156.25,0.14,-0.2,1.18,-1.3,0.2,3.3,0.46,0.05,0,0.89
1697353156.26,0.12,-0.23,0.86,-1.6,0.4,1.6,0.46,0.05,0,0.89
1697353156.27,0.06,-0.17,1.04,-2.1,0.6,0.3,0.46,0.05,0,0.89
1697353156.28,0.09,-0.23,0.98,-2,1,-1,0.46,0.05,0,0.89
1697353156.29,0.09,-0.27,0.97,-1.9,0.9,-2.6,0.46,0.05,0,0.89
1697353156.3,0.08,-0.29,0.93,-1.9,1,-3,0.46,0.05,0,0.89
1697353156.31,0.11,-0.42,1.07,-1.7,1,-4.4,0.46,0.05,0,0.89
1697353156.32,0.14,-0.37,1,-1,0.6,-6.3,0.46,0.05,0,0.89
1697353156.33,0.11,-0.33,0.96,-1.3,0.3,-8.1,0.46,0.05,0,0.89
1697353156.34,0.09,-0.34,1.04,-2.1,-0.3,-9.7,0.46,0.05,0,0.89
1697353156.35,0.08,-0.29,1.05,-2.5,-1,-11.1,0.46,0.05,0,0.89
1697353156.36,0.07,-0.23,1.01,-2.7,-1.3,-12.3,0.46,0.05,0,0.89
1697353156.37,0.07,-0.23,1.01,-2.7,-1.3,-12.3,0.46,0.05,0,0.89
1697353156.38,0.07,-0.23,1.01,-2.7,-1.3,-12.3,0.46,0.05,0,0.89
1697353156.39,0.07,-0.23,1.01,-2.7,-1.3,-12.3,0.46,0.05,0,0.89
1697353156.4,0.07,-0.23,1.01,-2.7,-1.3,-12.3,0.46,0.05,0,0.89
1697353156.41,0.07,-0.23,1.01,-2.7,-1.3,-12.3,0.46,0.05,0,0.89
1697353156.42,0.07,-0.23,1.01,-2.7,-1.3,-12.3,0.46,0.05,0,0.89
1697353156.43,0.07,-0.23,1.01,-2.7,-1.3,-12.3,0.46,0.05,0,0.89
1697353156.44,0.07,-0.23,1.01,-2.7,-1.3,-12.3,0.46,0.05,0,0.89
1697353156.45,0.07,-0.23,1.01,-2.7,-1.3,-12.3,0.46,0.05,0,0.89
1697353156.46,0.07,-0.23,1.01,-2.7,-1.3,-12.3,0.46,0.05,0,0.89
1697353156.47,0.07,-0.23,1.01,-2.7,-1.3,-12.3,0.46,0.05,0,0.89
1697353156.48,0.07,-0.23,1.01,-2.7,-1.3,-12.3,0.46,0.05,0,0.89
1697353156.49,0.04,-0.22,0.99,-2.7,-0.8,-27.3,0.48,0.04,-0,0.87
1697353156.5,0.09,-0.17,0.93,-1.2,-1.8,-28.1,0.49,0.04,-0,0.87
1697353156.51,0.03,-0.12,0.9,-1.2,-1.8,-28.1,0.49,0.04,-0,0.87
1697353156.52,0.03,-0.12,0.9,0.2,-1.4,-27.8,0.49,0.04,-0,0.87
1697353156.53,0.04,-0.3,1.03,0.6,-1.5,-28,0.49,0.04,-0,0.87
1697353156.54,0.11,-0.29,0.95,1.2,-0.9,-28.5,0.49,0.04,-0,0.87
1697353156.55,0.03,-0.41,1.09,0.1,-0.6,-28.5,0.5,0.04,-0,0.87
1697353156.56,0.06,-0.33,1.02,-1.4,-0.4,-29.1,0.5,0.04,-0,0.87
1697353156.57,0.12,-0.21,0.93,0,-0.6,-29.2,0.5,0.04,-0,0.86
1697353156.58,0.09,-0.22,1.03,1.5,-0.7,-29.4,0.5,0.04,-0,0.86
1697353156.59,0.1,-0.22,0.98,2.6,-0.7,-29.9,0.51,0.04,-0,0.86
1697353156.6,0.13,-0.24,0.97,2.6,-0.6,-30.2,0.51,0.04,-0,0.86
1697353156.61,0.14,-0.3,1.08,1.9,-0.7,-30.8,0.51,0.04,-0,0.86
1697353156.62,0.07,-0.24,1.14,1.2,-0.8,-31.4,0.51,0.04,-0,0.86
1697353156.63,0.1,-0.24,0.91,1.5,-0.7,-31.6,0.51,0.05,-0,0.86
1697353156.64,0.09,-0.2,1.01,2.2,-0.9,-32,0.52,0.05,-0,0.85
1697353156.65,0.06,-0.2,1.14,2.9,-1.3,-32.4,0.52,0.05,-0,0.85
1697353156.66,0.08,-0.27,1.14,2.6,-1.2,-33.1,0.52,0.05,0,0.85
1697353156.67,0.07,-0.31,0.94,0.7,-0.4,-33.4,0.52,0.05,0,0.85
1697353156.68,0.04,-0.33,1.02,-0.9,0,-33.5,0.53,0.05,0,0.85
1697353156.69,0.09,-0.29,0.96,-0.9,0,-33.5,0.53,0.05,0,0.85
1697353156.7,0.19,-0.23,0.82,-1.2,0.8,-33.7,0.53,0.05,0,0.85
1697353156.71,0.08,-0.22,1.15,-0.3,0.5,-34.1,0.54,0.05,0,0.84
1697353156.72,0.09,-0.27,1.04,0.6,0.1,-34.1,0.54,0.05,-0,0.84
1697353156.73,0.13,-0.3,0.88,0.5,0.1,-34.4,0.54,0.04,-0,0.84
1697353156.74,0.09,-0.27,1.05,-0.2,-0.1,-34.6,0.54,0.04,-0,0.84
1697353156.75,0.12,-0.31,1.02,-0.7,-0.8,-34.8,0.55,0.04,-0,0.84
1697353156.76,0.12,-0.27,1.12,0.2,-1.1,-34.9,0.55,0.04,-0,0.83
1697353156.77,0.09,-0.29,1.26,1.3,-1.3,-34.9,0.55,0.04,-0,0.83
1697353156.78,0.04,-0.28,1.06,1.6,-1.1,-34.9,0.55,0.05,-0,0.83
1697353156.79,0.04,-0.28,1.06,1.6,-1.1,-34.9,0.55,0.05,-0,0.83
1697353156.8,-0,-0.34,1.08,-0.4,-0.7,-35.2,0.56,0.05,-0,0.83
1697353156.81,-0,-0.34,1.08,-0.4,-0.7,-35.2,0.56,0.05,-0,0.83
1697353156.82,0.13,-0.29,0.99,-1.1,-0.5,-35.4,0.56,0.05,-0,0.83
1697353156.83,0.06,-0.27,1.04,-1,-0.2,-35.5,0.56,0.05,-0,0.82
1697353156.84,0.06,-0.27,1.04,-1,-0.2,-35.5,0.57,0.05,-0,0.82
1697353156.85,0.12,-0.19,1,-0.4,-0.1,-35.5,0.57,0.05,-0,0.82
1697353156.86,0.14,-0.25,0.97,0.1,-0.3,-35.7,0.57,0.04,-0,0.82
1697353156.87,0.06,-0.3,0.9,0.1,-0.8,-36.1,0.57,0.04,-0,0.82
1697353156.88,0.1,-0.32,0.89,0,-0.9,-36.5,0.58,0.04,-0,0.82
1697353156.89,0.1,-0.32,0.89,0,-0.9,-36.5,0.58,0.04,-0,0.82
1697353156.9,0.1,-0.32,0.89,0,-0.9,-36.5,0.58,0.04,-0,0.82
1697353156.91,0.1,-0.32,0.89,0,-0.9,-36.5,0.58,0.04,-0,0.82
1697353156.92,0.1,-0.32,0.89,0,-0.9,-36.5,0.58,0.04,-0,0.82
1697353156.93,0.1,-0.32,0.89,0,-0.9,-36.5,0.58,0.04,-0,0.82
1697353156.94,0.1,-0.32,0.89,0,-0.9,-36.5,0.58,0.04,-0,0.82
1697353156.95,0.1,-0.32,0.89,0,-0.9,-36.5,0.58,0.04,-0,0.82
1697353156.96,0.1,-0.32,0.89,0,-0.9,-36.5,0.58,0.04,-0,0.82
1697353156.97,0.1,-0.32,0.89,0,-0.9,-36.5,0.58,0.04,-0,0.82
1697353156.98,0.1,-0.32,0.89,0,-0.9,-36.5,0.58,0.04,-0,0.82
1697353156.99,0.1,-0.32,0.89,0,-0.9,-36.5,0.58,0.04,-0,0.82
1697353157,0.1,-0.32,0.89,0,-0.9,-36.5,0.58,0.04,-0,0.82
1697353157.01,-0.02,-0.32,0.95,0.9,-0.7,-37.8,0.61,0.04,-0,0.79
1697353157.02,-0,-0.28,0.86,1.1,-0.8,-38,0.61,0.04,-0,0.79
1697353157.03,-0.07,-0.33,0.86,0.7,-0.6,-38.2,0.62,0.04,-0,0.79
1697353157.04,-0.03,-0.27,1,0.7,-0.6,-38.2,0.62,0.04,-0,0.79
1697353157.05,-0.01,-0.32,1.02,1.2,0.2,-38.7,0.62,0.04,-0,0.78
1697353157.06,-0,-0.33,1.01,1.2,0.2,-38.7,0.62,0.04,-0,0.78
1697353157.07,0.03,-0.3,0.99,0.3,0.9,-39,0.63,0.04,-0,0.78
1697353157.08,-0.02,-0.36,1,0.5,0.7,-39.2,0.63,0.04,-0,0.78
1697353157.09,-0.09,-0.31,1.12,0.3,0.5,-39.4,0.63,0.04,-0,0.77
1697353157.1,-0.02,-0.33,0.97,0.8,0.1,-39.3,0.63,0.04,-0,0.77
1697353157.11,-0.01,-0.31,1.09,0.8,0.1,-39.3,0.64,0.04,-0,0.77
1697353157.12,-0.01,-0.32,1.1,0.9,-0.5,-39.4,0.64,0.04,-0,0.77
1697353157.13,-0,-0.37,1.07,0.1,-0.4,-39.2,0.64,0.04,0,0.77
1697353157.14,-0.07,-0.3,1.2,0,-0.1,-39.3,0.65,0.04,0,0.76
1697353157.15,-0.06,-0.28,0.89,-0.2,-0.1,-39.2,0.65,0.04,0,0.76
1697353157.16,0.03,-0.33,0.92,-1.1,0,-39.1,0.65,0.04,0,0.76
1697353157.17,0.03,-0.33,0.92,-1.1,0,-39.1,0.65,0.04,0,0.76
1697353157.18,0,-0.24,1.02,-1.4,0.2,-39.3,0.66,0.04,0,0.75
1697353157.19,-0.01,-0.31,0.96,-1.6,-0.2,-39.1,0.66,0.04,0,0.75
1697353157.2,0.07,-0.27,0.73,-1.6,-0.8,-39.5,0.66,0.04,0,0.75
1697353157.21,0.07,-0.27,0.73,-1.2,-1.6,-39.2,0.66,0.04,0,0.75
1697353157.22,0.09,-0.27,0.92,0.8,-2.1,-39.2,0.67,0.04,0,0.74
1697353157.23,0.02,-0.37,0.98,2.6,-2.6,-39.7,0.67,0.04,0,0.74
1697353157.24,-0.02,-0.41,0.98,2.2,-2.5,-40.1,0.67,0.04,0,0.74
1697353157.25,0.06,-0.42,1.13,-0.3,-1.3,-40.3,0.67,0.04,0,0.74
1697353157.26,0.04,-0.32,1.07,-2.5,-1,-40.4,0.68,0.04,0,0.73
1697353157.27,-0.01,-0.21,1.19,-2.6,-0.3,-40.3,0.68,0.04,0,0.73
1697353157.28,0.03,-0.24,1.27,0.2,-0.3,-40.3,0.68,0.04,0,0.73
1697353157.29,0.01,-0.36,1.13,1.2,0.1,-40.2,0.68,0.04,0,0.73
1697353157.3,0.01,-0.35,1.15,1,0.3,-40.2,0.69,0.04,0,0.73
1697353157.31,0,-0.42,1.13,0.1,0.4,-40.3,0.69,0.04,0,0.73
1697353157.32,0.05,-0.38,1.04,-0.9,0.5,-40.4,0.69,0.04,0,0.72
1697353157.33,0.1,-0.33,0.86,-1.4,0.8,-40.5,0.69,0.04,0,0.72
1697353157.34,0.08,-0.28,0.86,-1.2,0.8,-40.7,0.7,0.04,0,0.72
1697353157.35,0.09,-0.28,0.93,-0.5,0.5,-40.9,0.7,0.04,0,0.72
1697353157.36,0.11,-0.35,0.88,0.8,0.5,-41.1,0.7,0.04,0,0.71
1697353157.37,0.12,-0.32,0.89,1.2,0.3,-41.2,0.7,0.04,0,0.71
1697353157.38,0.04,-0.42,1.07,0.6,0.2,-41.4,0.71,0.04,0,0.71
1697353157.39,0.1,-0.43,1.07,-0.4,0.4,-41.5,0.71,0.04,0,0.7
1697353157.4,0.08,-0.35,1.11,-1.4,0.7,-41.8,0.71,0.04,0,0.7
1697353157.41,0.08,-0.35,1.11,-1.4,0.7,-41.8,0.71,0.04,0,0.7
1697353157.42,0.08,-0.35,1.11,-1.4,0.7,-41.8,0.71,0.04,0,0.7
1697353157.43,0.08,-0.35,1.11,-1.4,0.7,-41.8,0.71,0.04,0,0.7
1697353157.44,0.08,-0.35,1.11,-1.4,0.7,-41.8,0.71,0.04,0,0.7
1697353157.45,0.08,-0.35,1.11,-1.4,0.7,-41.8,0.71,0.04,0,0.7
1697353157.46,0.08,-0.35,1.11,-1.4,0.7,-41.8,0.71,0.04,0,0.7
1697353157.47,0.08,-0.35,1.11,-1.4,0.7,-41.8,0.71,0.04,0,0.7
1697353157.48,0.08,-0.35,1.11,-1.4,0.7,-41.8,0.71,0.04,0,0.7
1697353157.49,0.08,-0.35,1.11,-1.4,0.7,-41.8,0.71,0.04,0,0.7
1697353157.5,0.08,-0.35,1.11,-1.4,0.7,-41.8,0.71,0.04,0,0.7
1697353157.51,0.08,-0.35,1.11,-1.4,0.7,-41.8,0.71,0.04,0,0.7
1697353157.52,0.08,-0.35,1.11,-1.4,0.7,-41.8,0.71,0.04,0,0.7
1697353157.53,0.08,-0.35,1.11,-1.4,0.7,-41.8,0.71,0.04,0,0.7
1697353157.54,0.08,-0.35,1.11,-1.4,0.7,-41.8,0.71,0.04,0,0.7
1697353157.55,0.08,-0.35,1.11,-1.4,0.7,-41.8,0.71,0.04,0,0.7
1697353157.56,0.08,-0.35,1.11,-1.4,0.7,-41.8,0.71,0.04,0,0.7
1697353157.57,0.08,-0.35,1.11,-1.4,0.7,-41.8,0.71,0.04,0,0.7
1697353157.58,0.08,-0.35,1.11,-1.4,0.7,-41.8,0.71,0.04,0,0.7
1697353157.59,0.08,-0.35,1.11,-1.4,0.7,-41.8,0.71,0.04,0,0.7
1697353157.6,0.08,-0.35,1.11,-1.4,0.7,-41.8,0.71,0.04,0,0.7
1697353157.61,0.08,-0.35,1.11,-1.4,0.7,-41.8,0.71,0.04,0,0.7
1697353157.62,0.08,-0.35,1.11,-1.4,0.7,-41.8,0.71,0.04,0,0.7
1697353157.63,0.08,-0.35,1.11,-1.4,0.7,-41.8,0.71,0.04,0,0.7
1697353157.64,0.08,-0.35,1.11,-1.4,0.7,-41.8,0.71,0.04,0,0.7
1697353157.65,0.08,-0.35,1.11,-1.4,0.7,-41.8,0.71,0.04,0,0.7
1697353157.66,0.08,-0.35,1.11,-1.4,0.7,-41.8,0.71,0.04,0,0.7
1697353157.67,0.08,-0.35,1.11,-1.4,0.7,-41.8,0.71,0.04,0,0.7
1697353157.68,0.08,-0.35,1.11,-1.4,0.7,-41.8,0.71,0.04,0,0.7
1697353157.69,0.08,-0.35,1.11,-1.4,0.7,-41.8,0.71,0.04,0,0.7
1697353157.7,0.08,-0.35,1.11,-1.4,0.7,-41.8,0.71,0.04,0,0.7
1697353157.71,0.08,-0.35,1.11,-1.4,0.7,-41.8,0.71,0.04,0,0.7
1697353157.72,0.08,-0.35,1.11,-1.4,0.7,-41.8,0.71,0.04,0,0.7
1697353157.73,0.08,-0.35,1.11,-1.4,0.7,-41.8,0.71,0.04,0,0.7
1697353157.74,0.08,-0.35,1.11,-1.4,0.7,-41.8,0.71,0.04,0,0.7
1697353157.75,0.08,-0.37,1.27,-1.4,0.2,-45.4,0.8,0.04,0,0.6
1697353157.76,0.15,-0.35,1.08,0.2,-0.6,-45.3,0.8,0.04,0,0.6
1697353157.77,0.09,-0.48,1.08,1.3,-1.8,-45.4,0.8,0.04,0,0.6
1697353157.78,0.12,-0.53,0.76,0.2,-2.1,-45.2,0.81,0.04,0,0.59
1697353157.79,0.04,-0.49,0.89,-1.8,-1.6,-45.4,0.81,0.04,0,0.59
1697353157.8,-0.02,-0.32,0.94,-2.8,-0.9,-45.4,0.81,0.04,0,0.59
1697353157.81,0.06,-0.36,0.84,-1.9,0.2,-45,0.81,0.04,0,0.58
1697353157.82,0.02,-0.3,0.9,0.6,1.1,-45.2,0.81,0.03,0,0.58
1697353157.83,0.06,-0.42,1.06,2.6,2.5,-45,0.82,0.03,0,0.58
1697353157.84,0.06,-0.53,1.05,2.6,2.5,-45,0.82,0.03,0,0.58
1697353157.85,0.07,-0.53,0.96,2.6,2.5,-45,0.82,0.04,0,0.57
1697353157.86,0.1,-0.51,1.06,1.6,3.1,-45.8,0.82,0.03,0.01,0.57
1697353157.87,0.13,-0.43,1.01,-1.1,2.3,-46.5,0.83,0.03,0.01,0.56
1697353157.88,0.09,-0.34,1.07,-0.9,1.5,-46.6,0.83,0.03,0.01,0.56
1697353157.89,0.06,-0.43,1.35,-0.9,1.5,-46.6,0.83,0.03,0.01,0.56
1697353157.9,0.15,-0.42,0.85,0.3,0.6,-46.6,0.83,0.03,0.01,0.55
1697353157.91,0.08,-0.42,1.03,1.5,-0.6,-46.9,0.84,0.03,0.01,0.55
1697353157.92,0.12,-0.45,1.1,1.5,-0.6,-46.9,0.84,0.03,0.01,0.55
1697353157.93,0.16,-0.53,1.08,0.3,-1.1,-47.1,0.84,0.03,0.01,0.54
1697353157.94,0.16,-0.43,0.91,-1.1,-1,-47.1,0.84,0.03,0.01,0.54
1697353157.95,0.1,-0.48,1.06,-1.9,-1,-47.3,0.85,0.03,0.01,0.53
1697353157.96,0.15,-0.37,0.87,-2.1,-1,-47.4,0.85,0.03,0.01,0.53
1697353157.97,0.16,-0.41,0.93,-1.2,-1,-47.3,0.85,0.03,0.01,0.53
1697353157.98,0.07,-0.49,1.05,0,-1.1,-47.4,0.85,0.03,0.01,0.52
1697353157.99,0.11,-0.46,0.86,0.3,-0.9,-47.5,0.85,0.03,0.01,0.52
1697353158,0.05,-0.5,1.15,-0.1,-0.5,-47.7,0.86,0.03,0.01,0.51
1697353158.01,0.11,-0.47,0.94,-2.2,0,-48,0.86,0.03,0.01,0.51
1697353158.02,0.08,-0.48,1.11,-3,0,-48.1,0.86,0.03,0.01,0.51
1697353158.03,0.13,-0.33,0.94,-2.8,0.5,-48.2,0.86,0.03,0.01,0.51
1697353158.04,0.02,-0.38,1.17,-1.2,0.5,-48,0.86,0.03,0.01,0.5
1697353158.05,0.13,-0.37,1.09,1.1,0.6,-47.9,0.87,0.03,0.01,0.5
1697353158.06,0.18,-0.42,1.08,2.9,1,-47.7,0.87,0.03,0.01,0.5
1697353158.07,0.18,-0.42,1.08,3.2,1.5,-47.5,0.87,0.03,0.01,0.49
1697353158.08,0.02,-0.57,1.16,1.5,1.7,-47.7,0.87,0.03,0.01,0.49
1697353158.09,0.14,-0.57,0.88,-1.7,1.3,-47.7,0.87,0.03,0.01,0.49
1697353158.1,0.12,-0.45,1,-2.5,0.7,-47.5,0.88,0.03,0.01,0.48
1697353158.11,0.19,-0.37,0.71,0.1,0,-47.1,0.88,0.03,0.01,0.48
1697353158.12,0.12,-0.29,1.05,4,-1,-46.5,0.88,0.03,0.01,0.47
1697353158.13,0.17,-0.48,0.95,7,-1.9,-46,0.88,0.03,0.01,0.47
1697353158.14,0.17,-0.48,0.95,7,-1.9,-46,0.88,0.03,0.01,0.47
1697353158.15,0.17,-0.48,0.95,7,-1.9,-46,0.88,0.03,0.01,0.47
1697353158.16,0.17,-0.48,0.95,7,-1.9,-46,0.88,0.03,0.01,0.47
1697353158.17,0.17,-0.48,0.95,7,-1.9,-46,0.88,0.03,0.01,0.47
1697353158.18,0.17,-0.48,0.95,7,-1.9,-46,0.88,0.03,0.01,0.47
1697353158.19,0.17,-0.48,0.95,7,-1.9,-46,0.88,0.03,0.01,0.47
1697353158.2,0.17,-0.48,0.95,7,-1.9,-46,0.88,0.03,0.01,0.47
1697353158.21,0.17,-0.48,0.95,7,-1.9,-46,0.88,0.03,0.01,0.47
1697353158.22,0.17,-0.48,0.95,7,-1.9,-46,0.88,0.03,0.01,0.47
1697353158.23,0.17,-0.48,0.95,7,-1.9,-46,0.88,0.03,0.01,0.47
1697353158.24,0.17,-0.48,0.95,7,-1.9,-46,0.88,0.03,0.01,0.47
1697353158.25,0.17,-0.48,0.95,7,-1.9,-46,0.88,0.03,0.01,0.47
1697353158.26,0.17,-0.48,0.95,7,-1.9,-46,0.88,0.03,0.01,0.47
1697353158.27,0.19,-0.32,1.04,3.7,-0.2,-41.1,0.91,0.03,0.01,0.42
1697353158.28,0.14,-0.42,0.97,3.3,0,-40,0.91,0.03,0.01,0.42
1697353158.29,0.19,-0.39,0.83,3.3,0,-40,0.91,0.03,0.01,0.42
1697353158.3,0.14,-0.36,0.81,1.8,0.2,-39.3,0.91,0.04,0.01,0.41
1697353158.31,0.05,-0.22,1.2,0.6,0.1,-38.5,0.91,0.04,0.01,0.41
1697353158.32,0.11,-0.16,1.07,0.3,0.1,-37.8,0.91,0.03,0.01,0.41
1697353158.33,0.12,-0.16,0.99,0.5,0.3,-36.8,0.91,0.03,0.01,0.4
1697353158.34,0.15,-0.21,0.84,1.8,0.6,-36,0.92,0.03,0.01,0.4
1697353158.35,0.12,-0.47,1.06,3.1,0.9,-35.4,0.92,0.03,0.01,0.4
1697353158.36,0.16,-0.34,1.23,3.4,0.9,-34.7,0.92,0.03,0.01,0.39
1697353158.37,0.23,-0.17,1.16,2.4,1,-34.8,0.92,0.03,0.01,0.39
1697353158.38,0.2,-0.3,1.02,0,1.1,-34.9,0.92,0.03,0.01,0.39
1697353158.39,0.16,-0.22,1.01,-1.6,0.3,-34.4,0.92,0.03,0.01,0.39
1697353158.4,0.13,-0.34,1.16,-0.3,-0.9,-34.4,0.92,0.03,0.01,0.38
1697353158.41,0.13,-0.34,1.16,2.5,-2.4,-34.7,0.92,0.03,0.01,0.38
1697353158.42,0.13,-0.45,1.15,3.5,-3,-35.1,0.93,0.03,0.01,0.38
1697353158.43,0.13,-0.49,0.77,0.6,-2.4,-35.1,0.93,0.03,0.01,0.37
1697353158.44,0.13,-0.49,0.77,-2.7,-1.3,-35.1,0.93,0.03,0.01,0.37
1697353158.45,0.1,-0.36,1.31,-5,0.4,-35.2,0.93,0.03,0.01,0.37
1697353158.46,0.17,-0.16,1.16,-6.8,2.4,-34.8,0.93,0.03,0.01,0.36
1697353158.47,0.17,-0.16,1.16,-6.3,4.5,-34.3,0.93,0.03,0.01,0.36
1697353158.48,0.07,-0.1,1.1,-5.3,5.9,-34.1,0.93,0.03,0.01,0.36
1697353158.49,0.14,-0.3,0.78,-5.3,5.9,-34.1,0.93,0.03,0.01,0.36
1697353158.5,0.14,-0.22,0.79,-0.3,6.5,-33.6,0.93,0.03,0.01,0.36
1697353158.51,0.14,-0.22,0.79,-0.3,6.5,-33.6,0.93,0.03,0.01,0.35
1697353158.52,0.2,-0.63,0.82,1.4,4.8,-33.6,0.94,0.03,0.01,0.35
1697353158.53,0.2,-0.63,0.82,0.9,3.2,-34.1,0.94,0.03,0.01,0.35
1697353158.54,0.28,-0.27,1.16,0.1,1.9,-34.1,0.94,0.03,0.01,0.34
1697353158.55,0.29,-0.41,1.09,0.1,1.9,-34.1,0.94,0.03,0.01,0.34
1697353158.56,0.25,-0.33,0.71,0.9,-0.6,-33.4,0.94,0.03,0.01,0.34
1697353158.57,0.13,-0.28,0.92,1.1,-1.2,-32.8,0.94,0.03,0.01,0.34
1697353158.58,0.19,-0.49,1.22,1.1,-1.2,-32.8,0.94,0.03,0.01,0.34
1697353158.59,0.14,-0.24,0.9,1.4,-1.4,-32,0.94,0.03,0.01,0.33
1697353158.6,0.19,-0.33,0.88,2,-0.9,-31.6,0.94,0.03,0.01,0.33
1697353158.61,0.03,-0.42,1.47,3.4,0.8,-31,0.94,0.03,0.01,0.33
1697353158.62,0.1,-0.14,1.29,3,2.9,-30.1,0.95,0.03,0.01,0.32
1697353158.63,0.05,-0.26,0.84,3,2.9,-30.1,0.95,0.03,0.01,0.32
1697353158.64,0.1,-0.39,1.09,4.6,4.7,-30.1,0.95,0.03,0.01,0.32
1697353158.65,0.21,-0.56,1.27,6.6,6,-29.6,0.95,0.03,0.01,0.32
1697353158.66,0.3,-0.24,1.08,6.9,6.9,-29.4,0.95,0.03,0.01,0.32
1697353158.67,0.3,-0.24,1.08,6.9,6.9,-29.4,0.95,0.03,0.01,0.32
1697353158.68,0.3,-0.24,1.08,6.9,6.9,-29.4,0.95,0.03,0.01,0.32
1697353158.69,0.3,-0.24,1.08,6.9,6.9,-29.4,0.95,0.03,0.01,0.32
1697353158.7,0.3,-0.24,1.08,6.9,6.9,-29.4,0.95,0.03,0.01,0.32
1697353158.71,0.3,-0.24,1.08,6.9,6.9,-29.4,0.95,0.03,0.01,0.32
1697353158.72,0.3,-0.24,1.08,6.9,6.9,-29.4,0.95,0.03,0.01,0.32
1697353158.73,0.3,-0.24,1.08,6.9,6.9,-29.4,0.95,0.03,0.01,0.32
1697353158.74,0.3,-0.24,1.08,6.9,6.9,-29.4,0.95,0.03,0.01,0.32
1697353158.75,0.3,-0.24,1.08,6.9,6.9,-29.4,0.95,0.03,0.01,0.32
1697353158.76,0.3,-0.24,1.08,6.9,6.9,-29.4,0.95,0.03,0.01,0.32
1697353158.77,0.3,-0.24,1.08,6.9,6.9,-29.4,0.95,0.03,0.01,0.32
1697353158.78,0.3,-0.24,1.08,6.9,6.9,-29.4,0.95,0.03,0.01,0.32
1697353158.79,0.3,-0.24,1.08,6.9,6.9,-29.4,0.95,0.03,0.01,0.32
1697353158.8,0.13,-0.21,1.43,1.5,2.3,-19.8,0.96,0.03,0.02,0.28
1697353158.81,0.06,-0.38,0.79,2.1,3,-21.3,0.96,0.03,0.02,0.28
1697353158.82,0.17,0.02,1.2,1.3,3.1,-20.9,0.96,0.03,0.02,0.28
1697353158.83,0.19,0.21,1.11,-1.3,2.8,-18.1,0.96,0.03,0.02,0.28
1697353158.84,0.19,0.21,1.11,-1.3,2.8,-18.1,0.96,0.03,0.02,0.28
1697353158.85,0.26,-0.22,1.08,-0.3,1.2,-16.2,0.96,0.03,0.02,0.28
1697353158.86,0.26,0.04,0.87,1.4,0.6,-15.9,0.96,0.03,0.02,0.28
1697353158.87,0.29,-0.16,0.99,0.4,-0.7,-14.9,0.96,0.03,0.02,0.27
1697353158.88,0.26,-0.18,0.88,0.4,-0.7,-14.9,0.96,0.03,0.02,0.27
1697353158.89,0.31,-0.02,0.62,-0.4,-1.4,-13.5,0.96,0.03,0.02,0.27
1697353158.9,0.22,-0.22,1.13,-0.7,-2.2,-13.8,0.96,0.03,0.02,0.27
1697353158.91,0.21,-0.13,0.92,-1.6,-2.7,-13.3,0.96,0.03,0.02,0.27
1697353158.92,0.18,0.06,0.84,-1.2,-2.5,-12.8,0.96,0.03,0.02,0.27
1697353158.93,0.14,-0.26,1.02,0.8,-2.1,-13.9,0.96,0.03,0.02,0.27
1697353158.94,0.14,-0.22,0.83,1.2,-1.2,-13,0.96,0.03,0.02,0.27
1697353158.95,0.12,-0.1,1.21,1.6,-0.4,-14,0.96,0.03,0.02,0.26
1697353158.96,0.17,-0.24,0.82,0.7,0.2,-14.4,0.96,0.03,0.02,0.26
1697353158.97,0.16,0.01,1.15,-0.9,0.9,-13.9,0.96,0.03,0.02,0.26
1697353158.98,0.15,-0.38,1.07,0.2,1.7,-14.6,0.96,0.03,0.02,0.26
1697353158.99,0.25,-0.03,0.96,-0.7,2.5,-13.5,0.96,0.03,0.02,0.26
1697353159,0.21,-0.24,1.04,0,2.8,-14.5,0.96,0.03,0.02,0.26
1697353159.01,0.21,-0.24,1.04,0,2.8,-14.5,0.97,0.03,0.02,0.26
1697353159.02,0.15,-0.06,0.93,-1.8,2.8,-13.6,0.97,0.03,0.02,0.26
1697353159.03,0.12,0.01,1.22,-0.4,2.6,-13.8,0.97,0.03,0.02,0.26
1697353159.04,0.22,-0.28,0.72,0,2.7,-14,0.97,0.03,0.02,0.25
1697353159.05,0.17,-0.24,0.98,0.7,2.6,-13.8,0.97,0.03,0.02,0.25
1697353159.06,0.17,-0.18,1.02,-0.3,2.6,-13.5,0.97,0.03,0.02,0.25
1697353159.07,0.21,-0.21,1.04,-0.7,2.4,-13.7,0.97,0.03,0.02,0.25
1697353159.08,0.19,-0.08,1.09,-2,1.9,-13.3,0.97,0.03,0.02,0.25
1697353159.09,0.19,-0.17,0.84,-1.6,2,-13.9,0.97,0.03,0.02,0.25
1697353159.1,0.18,-0.05,1.11,-2,2.1,-12.9,0.97,0.03,0.02,0.25
1697353159.11,0.14,-0.07,0.96,0.5,2,-13,0.97,0.03,0.02,0.25
1697353159.12,0.17,-0.13,0.95,1.2,1,-12.8,0.97,0.03,0.02,0.25
1697353159.13,0.19,0.01,0.93,0.6,0.6,-13,0.97,0.03,0.02,0.24
1697353159.14,0.19,0.01,0.93,0.6,0.6,-13,0.97,0.03,0.02,0.24
1697353159.15,0.15,0.14,0.92,-0.9,0.9,-12.5,0.97,0.03,0.02,0.24
1697353159.16,0.15,0.14,0.92,-0.9,0.9,-12.5,0.97,0.03,0.02,0.24
1697353159.17,0.09,-0.1,0.95,0.2,1.1,-11.5,0.97,0.03,0.02,0.24
1697353159.18,0.09,-0.1,0.95,0.2,1.1,-11.5,0.97,0.03,0.02,0.24
1697353159.19,0.09,-0.1,0.95,0.2,1.1,-11.5,0.97,0.03,0.02,0.24
1697353159.2,0.09,-0.1,0.95,0.2,1.1,-11.5,0.97,0.03,0.02,0.24
1697353159.21,0.09,-0.1,0.95,0.2,1.1,-11.5,0.97,0.03,0.02,0.24
1697353159.22,0.09,-0.1,0.95,0.2,1.1,-11.5,0.97,0.03,0.02,0.24
1697353159.23,0.09,-0.1,0.95,0.2,1.1,-11.5,0.97,0.03,0.02,0.24
1697353159.24,0.09,-0.1,0.95,0.2,1.1,-11.5,0.97,0.03,0.02,0.24
1697353159.25,0.09,-0.1,0.95,0.2,1.1,-11.5,0.97,0.03,0.02,0.24
1697353159.26,0.09,-0.1,0.95,0.2,1.1,-11.5,0.97,0.03,0.02,0.24
1697353159.27,0.09,-0.1,0.95,0.2,1.1,-11.5,0.97,0.03,0.02,0.24
1697353159.28,0.09,-0.1,0.95,0.2,1.1,-11.5,0.97,0.03,0.02,0.24
1697353159.29,0.09,-0.1,0.95,0.2,1.1,-11.5,0.97,0.03,0.02,0.24
1697353159.3,0.09,-0.1,0.95,0.2,1.1,-11.5,0.97,0.03,0.02,0.24
1697353159.31,0.09,-0.1,0.95,0.2,1.1,-11.5,0.97,0.03,0.02,0.24
1697353159.32,0.09,-0.1,0.95,0.2,1.1,-11.5,0.97,0.03,0.02,0.24
1697353159.33,0.06,-0.1,1.16,1.1,2.3,-6.5,0.97,0.03,0.02,0.23
1697353159.34,0.2,-0.28,1.25,-0.3,2.9,-6.5,0.97,0.03,0.02,0.23
1697353159.35,0.17,-0.11,1.09,-2.5,2.8,-7.2,0.97,0.03,0.02,0.23
1697353159.36,0.1,-0.03,1.19,-2.7,1.8,-6.9,0.97,0.03,0.02,0.23
1697353159.37,0.23,-0.01,0.97,-0.9,1.7,-6.3,0.97,0.03,0.02,0.23
1697353159.38,0.35,-0.03,0.89,1.7,1.2,-5.9,0.97,0.03,0.02,0.23
1697353159.39,0.2,-0.07,1.16,3.3,0.5,-4.9,0.97,0.03,0.02,0.23
1697353159.4,0.21,-0.12,0.77,2.9,0,-3.9,0.97,0.03,0.02,0.22
1697353159.41,0.15,-0.12,0.81,2.4,-0.7,-3.9,0.97,0.03,0.02,0.22
1697353159.42,0.2,-0.15,0.91,1.6,-1.3,-3.9,0.97,0.03,0.02,0.22
1697353159.43,0.21,-0.11,1.04,0.5,-1.2,-3.4,0.97,0.03,0.02,0.22
1697353159.44,0.08,0.09,0.97,1.9,-0.6,-3.2,0.97,0.03,0.02,0.22
1697353159.45,0.16,0.14,0.94,4.8,0,-2.5,0.97,0.03,0.02,0.22
1697353159.46,0.2,-0.06,1.06,4.8,-0.2,-2.1,0.97,0.03,0.02,0.22
1697353159.47,0.18,-0.07,0.96,2,-0.5,-1.6,0.97,0.03,0.02,0.22
1697353159.48,0.22,0.1,1.03,-0.4,-0.8,-1.3,0.97,0.03,0.02,0.22
1697353159.49,0.22,0.1,1.03,-0.4,-0.8,-1.3,0.97,0.03,0.02,0.22
1697353159.5,0.22,0.14,1.23,-1.3,-0.9,-0.9,0.97,0.03,0.02,0.22
1697353159.51,0.24,0.1,0.93,-0.8,-1.6,-0.4,0.97,0.03,0.02,0.22
1697353159.52,0.15,0.09,1.02,0.3,-2.2,-0.3,0.97,0.03,0.02,0.22
1697353159.53,0.22,-0.03,1.09,-0.1,-2.5,-0.4,0.97,0.03,0.02,0.22
1697353159.54,0.22,-0.03,1.09,-1.3,-3.1,-0.5,0.97,0.03,0.02,0.22
1697353159.55,0.17,-0.01,0.98,-2.4,-2.7,-1,0.97,0.03,0.02,0.22
1697353159.56,0.18,0,0.91,-2.2,-2.7,-1.3,0.97,0.03,0.02,0.22
1697353159.57,0.07,0.08,1.25,-1.1,-2.3,-1.4,0.97,0.03,0.02,0.22
1697353159.58,0.21,0.09,0.95,0.3,-1.5,-1.3,0.97,0.03,0.02,0.22
1697353159.59,0.12,-0.05,0.89,1.7,-0.4,-1.2,0.97,0.03,0.02,0.22
1697353159.6,0.16,-0.1,1.1,1.5,0.4,-1.2,0.97,0.03,0.02,0.22
1697353159.61,0.26,-0.13,0.82,-0.3,1,-1.1,0.97,0.03,0.02,0.22
1697353159.62,0.2,-0.03,1.04,-1.9,0.5,-0.8,0.97,0.03,0.02,0.22
1697353159.63,0.2,-0.04,1.01,-1.9,0.5,-0.8,0.97,0.03,0.02,0.22
1697353159.64,0.17,0.04,1.16,-1.6,-0.7,-0.5,0.97,0.03,0.02,0.22
1697353159.65,0.09,-0.05,0.86,-1.8,-1,-0.3,0.97,0.03,0.02,0.22
1697353159.66,0.19,0.03,0.92,-2.6,-1.3,-0.3,0.97,0.03,0.02,0.22
1697353159.67,0.22,0.02,1.06,-2.5,-0.7,-0.3,0.97,0.03,0.02,0.22
1697353159.68,0.16,0.1,0.51,-0.8,0,-0.7,0.97,0.03,0.02,0.22
1697353159.69,0.06,0.04,1.11,0.9,0.8,-0.7,0.97,0.03,0.02,0.22
1697353159.7,0.23,-0.03,1.07,2.6,1.5,-1.3,0.97,0.03,0.02,0.22
1697353159.71,0.23,-0.03,1.07,2.6,1.5,-1.3,0.97,0.03,0.02,0.22
1697353159.72,0.2,-0.08,0.92,2,1.5,-1.5,0.97,0.03,0.02,0.22
1697353159.73,0.2,-0.08,0.92,2,1.5,-1.5,0.97,0.03,0.02,0.22
1697353159.74,0.2,-0.08,0.92,2,1.5,-1.5,0.97,0.03,0.02,0.22
1697353159.75,0.2,-0.08,0.92,2,1.5,-1.5,0.97,0.03,0.02,0.22
1697353159.76,0.2,-0.08,0.92,2,1.5,-1.5,0.97,0.03,0.02,0.22
1697353159.77,0.2,-0.08,0.92,2,1.5,-1.5,0.97,0.03,0.02,0.22
1697353159.78,0.2,-0.08,0.92,2,1.5,-1.5,0.97,0.03,0.02,0.22
1697353159.79,0.2,-0.08,0.92,2,1.5,-1.5,0.97,0.03,0.02,0.22
1697353159.8,0.2,-0.08,0.92,2,1.5,-1.5,0.97,0.03,0.02,0.22
1697353159.81,0.2,-0.08,0.92,2,1.5,-1.5,0.97,0.03,0.02,0.22
1697353159.82,0.2,-0.08,0.92,2,1.5,-1.5,0.97,0.03,0.02,0.22
1697353159.83,0.2,-0.08,0.92,2,1.5,-1.5,0.97,0.03,0.02,0.22
1697353159.84,0.2,-0.08,0.92,2,1.5,-1.5,0.97,0.03,0.02,0.22
1697353159.85,0.2,-0.08,0.92,2,1.5,-1.5,0.97,0.03,0.02,0.22
1697353159.86,0.05,0.01,1.08,-1.6,-0.4,-0.9,0.98,0.03,0.02,0.22
1697353159.87,0.05,0.01,1.08,-1.2,0.4,-1.2,0.98,0.03,0.02,0.22
1697353159.88,0.11,-0.01,0.61,-1.1,1.3,-1.2,0.98,0.03,0.02,0.22
1697353159.89,0.15,0.06,1.15,0.1,1.5,-1.5,0.98,0.03,0.02,0.22
1697353159.9,0.13,-0.15,1.02,1.5,1.7,-1.8,0.98,0.03,0.02,0.22
1697353159.91,0.15,-0.11,0.63,1.1,1.7,-2.5,0.98,0.03,0.02,0.22
1697353159.92,0.06,0,1.15,-0.8,1.3,-2.7,0.98,0.03,0.02,0.22
1697353159.93,0.08,-0.12,1.42,-2.2,1.2,-2.9,0.98,0.03,0.02,0.22
1697353159.94,0.1,0,0.66,-1.9,1,-3.2,0.98,0.03,0.02,0.22
1697353159.95,0.07,0.08,0.93,-0.5,0.5,-3.2,0.98,0.03,0.02,0.22
1697353159.96,-0.05,0.03,0.61,1.7,1,-2.8,0.98,0.03,0.02,0.22
1697353159.97,-0,-0.02,0.98,4.2,1.1,-3.1,0.98,0.03,0.02,0.22
1697353159.98,-0.03,-0.22,1.47,3.5,1.4,-3.5,0.98,0.03,0.02,0.22
1697353159.99,0.08,-0.24,0.7,0.5,1.6,-3.3,0.98,0.03,0.02,0.22
1697353160,-0.03,-0.14,1.26,-2.7,1.8,-3.2,0.98,0.03,0.02,0.22
1697353160.01,-0.04,0.08,1.22,-3.3,1.3,-3.2,0.98,0.03,0.02,0.22
1697353160.02,0.04,0.06,0.24,-1.7,1.5,-3,0.98,0.03,0.02,0.22
1697353160.03,-0.17,0.09,1.26,-0.4,1.7,-3,0.98,0.03,0.02,0.22
1697353160.04,-0.02,-0.01,0.98,-0.1,2.2,-2.4,0.98,0.03,0.02,0.22
1697353160.05,-0.04,-0.08,0.83,-0.1,2.2,-2.4,0.98,0.03,0.02,0.21
1697353160.06,-0.24,-0.05,1.11,1.8,1.5,-2.7,0.98,0.03,0.02,0.21
1697353160.07,-0.37,-0.07,0.85,1.7,0.4,-2.9,0.98,0.03,0.02,0.21
1697353160.08,-0.56,-0.12,1.14,1.3,0.1,-3,0.98,0.03,0.02,0.21
1697353160.09,-0.58,-0.16,1.19,1.3,0.1,-3,0.98,0.03,0.02,0.21
1697353160.1,-0.31,-0.1,0.71,-0.1,0.6,-3.7,0.98,0.03,0.02,0.21
1697353160.11,-0.21,-0.03,1.13,-0.1,0.6,-3.7,0.98,0.03,0.02,0.21
1697353160.12,-0.01,0.03,1.03,-2.3,0.5,-4.2,0.98,0.03,0.02,0.21
1697353160.13,-0.01,0.04,0.72,-2.8,0.2,-4,0.98,0.03,0.02,0.21
1697353160.14,0.04,0.12,1.45,-2.3,0.2,-4.2,0.98,0.03,0.02,0.21
1697353160.15,0.04,0.12,1.45,-2.3,0.2,-4.2,0.98,0.03,0.02,0.21
1697353160.16,0.06,-0.07,1.42,0.4,0,-3.9,0.98,0.03,0.02,0.21
1697353160.17,-0.05,-0.23,1.47,2.8,0,-4,0.98,0.03,0.02,0.21
1697353160.18,-0.06,-0.24,1.01,2.8,0,-4,0.98,0.03,0.02,0.21
1697353160.19,-0.06,-0.24,1.01,0.7,0.1,-4.5,0.98,0.03,0.02,0.21
1697353160.2,0.01,-0.02,1.16,-2.1,0,-4.8,0.98,0.03,0.02,0.21
1697353160.21,0.01,-0.02,1.16,-3,0.1,-4.4,0.98,0.03,0.02,0.21
1697353160.22,0.05,-0.03,0.83,-1.8,0.5,-4.2,0.98,0.03,0.02,0.21
1697353160.23,-0.02,-0.01,1.27,-2.3,0.4,-3.9,0.98,0.03,0.02,0.21
1697353160.24,-0.05,-0.01,1.18,-1.3,0.8,-4.1,0.98,0.03,0.02,0.21
1697353160.25,-0.01,0.03,0.5,-1.3,1.1,-3.7,0.98,0.03,0.02,0.21
1697353160.26,-0.01,0.03,0.5,-1.3,1.1,-3.7,0.98,0.03,0.02,0.21
1697353160.27,-0.01,0.03,0.5,-1.3,1.1,-3.7,0.98,0.03,0.02,0.21
1697353160.28,-0.01,0.03,0.5,-1.3,1.1,-3.7,0.98,0.03,0.02,0.21
1697353160.29,-0.01,0.03,0.5,-1.3,1.1,-3.7,0.98,0.03,0.02,0.21
1697353160.3,-0.01,0.03,0.5,-1.3,1.1,-3.7,0.98,0.03,0.02,0.21
1697353160.31,-0.01,0.03,0.5,-1.3,1.1,-3.7,0.98,0.03,0.02,0.21
1697353160.32,-0.01,0.03,0.5,-1.3,1.1,-3.7,0.98,0.03,0.02,0.21
1697353160.33,-0.01,0.03,0.5,-1.3,1.1,-3.7,0.98,0.03,0.02,0.21
1697353160.34,-0.01,0.03,0.5,-1.3,1.1,-3.7,0.98,0.03,0.02,0.21
1697353160.35,-0.01,0.03,0.5,-1.3,1.1,-3.7,0.98,0.03,0.02,0.21
1697353160.36,-0.01,0.03,0.5,-1.3,1.1,-3.7,0.98,0.03,0.02,0.21
1697353160.37,-0.01,0.03,0.5,-1.3,1.1,-3.7,0.98,0.03,0.02,0.21
1697353160.38,-0.01,0.03,0.5,-1.3,1.1,-3.7,0.98,0.03,0.02,0.21
1697353160.39,-0.06,-0.14,0.89,1.4,-6.3,-2.2,0.98,0.03,0.02,0.2
1697353160.4,-0.05,-0.16,1.32,1.4,-6.3,-2.2,0.98,0.03,0.02,0.2
1697353160.41,-0.07,-0,0.22,-2.6,-5.4,-2.4,0.98,0.03,0.02,0.2
1697353160.42,0.01,0.27,1.17,-1.1,-4.3,-2.2,0.98,0.03,0.01,0.2
1697353160.43,-0.03,0.1,0.72,-0.5,-3.9,-1.9,0.98,0.03,0.01,0.2
1697353160.44,-0.18,0.13,1.22,0.1,-3.5,-1.5,0.98,0.03,0.01,0.2
1697353160.45,0.01,0.03,0.74,-0.4,-2.8,-1.4,0.98,0.03,0.01,0.2
1697353160.46,-0.1,0.01,0.63,-0.4,-2.8,-1.4,0.98,0.03,0.01,0.2
1697353160.47,-0.2,0,1.43,-1.4,-1.9,-1.3,0.98,0.03,0.01,0.2
1697353160.48,-0.08,0.08,1.1,-3.5,0.2,-0.6,0.98,0.03,0.01,0.2
1697353160.49,-0.11,0.07,0.81,-3.5,0.2,-0.6,0.98,0.03,0.01,0.2
1697353160.5,-0.06,0.28,1.11,-2,1.4,-0.5,0.98,0.03,0.01,0.2
1697353160.51,-0.03,0.01,0.9,-0.5,2.2,0,0.98,0.03,0.01,0.2
1697353160.52,-0.04,0.1,1.1,-0.2,2.5,0.8,0.98,0.03,0.01,0.2
1697353160.53,-0.12,0.21,1.03,-0.5,2.2,1.4,0.98,0.03,0.01,0.2
1697353160.54,0.05,0.22,0.81,-1.3,1.7,2.5,0.98,0.03,0.01,0.2
1697353160.55,0.05,0.22,0.81,0,1.7,3.9,0.98,0.03,0.01,0.2
1697353160.56,-0.03,0.24,0.77,2.1,1.6,5.4,0.98,0.03,0.01,0.2
1697353160.57,-0.25,0.32,1.22,3.7,1.7,7.2,0.98,0.03,0.01,0.2
1697353160.58,-0.07,0.1,1.05,5,1.6,8.4,0.98,0.03,0.01,0.21
1697353160.59,-0.07,0.1,1.05,3.2,1.4,10.3,0.98,0.03,0.01,0.21
1697353160.6,-0.2,0.29,1.13,1.1,1.2,11.6,0.98,0.03,0.01,0.21
1697353160.61,-0.2,0.29,1.13,-0.6,0.8,12.8,0.98,0.03,0.01,0.21
1697353160.62,-0.15,0.35,1.05,0.2,0.4,14.1,0.98,0.03,0.01,0.21
1697353160.63,-0.17,0.51,0.91,2.2,0.1,15.2,0.98,0.03,0.01,0.21
1697353160.64,-0.12,0.47,0.76,3.2,-0.5,16.7,0.98,0.03,0.01,0.21
1697353160.65,-0.05,0.46,1.19,3.4,-0.6,17.8,0.98,0.03,0.01,0.21
1697353160.66,-0.11,0.45,1.16,2.6,-0.8,19.2,0.98,0.03,0.01,0.21
1697353160.67,-0.01,0.45,0.48,1.7,-1.5,20.6,0.98,0.03,0.01,0.22
1697353160.68,-0.11,0.55,1.36,1.8,-1.3,22.3,0.98,0.03,0.01,0.22
1697353160.69,-0.18,0.6,0.79,2.1,-1,24.2,0.98,0.03,0.01,0.22
1697353160.7,-0.11,0.59,1.14,2.4,-0.3,25.7,0.97,0.03,0.01,0.22
1697353160.71,-0.06,0.51,1.28,1.2,-0.4,27.2,0.97,0.03,0.01,0.22
1697353160.72,0.03,0.56,0.73,0.6,-0.7,29,0.97,0.03,0.01,0.23
1697353160.73,-0.04,0.56,0.66,0.7,-0.3,30.4,0.97,0.03,0.01,0.23
1697353160.74,-0.18,0.53,1.2,1.1,-0.1,30.8,0.97,0.03,0.01,0.23
1697353160.75,-0.16,0.42,1.18,1,-0.4,31.2,0.97,0.03,0.01,0.24
1697353160.76,-0.05,0.42,0.91,0.1,-0.5,31.7,0.97,0.03,0.01,0.24
1697353160.77,-0.08,0.41,0.98,-0.4,-0.3,31.5,0.97,0.03,0.01,0.24
1697353160.78,-0.09,0.52,0.86,-0.4,-0.3,31.5,0.97,0.03,0.01,0.24
1697353160.79,-0.09,0.52,0.86,-0.4,-0.3,31.5,0.97,0.03,0.01,0.24
1697353160.8,-0.09,0.52,0.86,-0.4,-0.3,31.5,0.97,0.03,0.01,0.24
1697353160.81,-0.09,0.52,0.86,-0.4,-0.3,31.5,0.97,0.03,0.01,0.24
1697353160.82,-0.09,0.52,0.86,-0.4,-0.3,31.5,0.97,0.03,0.01,0.24
1697353160.83,-0.09,0.52,0.86,-0.4,-0.3,31.5,0.97,0.03,0.01,0.24
1697353160.84,-0.09,0.52,0.86,-0.4,-0.3,31.5,0.97,0.03,0.01,0.24
1697353160.85,-0.09,0.52,0.86,-0.4,-0.3,31.5,0.97,0.03,0.01,0.24
1697353160.86,-0.09,0.52,0.86,-0.4,-0.3,31.5,0.97,0.03,0.01,0.24
1697353160.87,-0.09,0.52,0.86,-0.4,-0.3,31.5,0.97,0.03,0.01,0.24
1697353160.88,-0.09,0.52,0.86,-0.4,-0.3,31.5,0.97,0.03,0.01,0.24
1697353160.89,-0.09,0.52,0.86,-0.4,-0.3,31.5,0.97,0.03,0.01,0.24
1697353160.9,-0.09,0.52,0.86,-0.4,-0.3,31.5,0.97,0.03,0.01,0.24
1697353160.91,-0.09,0.52,0.86,-0.4,-0.3,31.5,0.97,0.03,0.01,0.24
1697353160.92,-0.12,0.51,1.07,-3.7,2.1,30.9,0.96,0.03,0.02,0.28
1697353160.93,-0.12,0.51,1.07,-5.3,1.4,30.9,0.96,0.03,0.02,0.28
1697353160.94,-0.2,0.54,0.9,-2.9,0.5,31.2,0.96,0.03,0.02,0.28
1697353160.95,-0.2,0.54,0.9,0.5,0,31.3,0.96,0.03,0.02,0.28
1697353160.96,-0.32,0.29,1.22,2.7,-0.3,31.4,0.96,0.03,0.02,0.29
1697353160.97,-0.23,0.25,1.06,2.6,-0.3,31.1,0.96,0.03,0.02,0.29
1697353160.98,-0.24,0.42,1.33,0.4,0,31,0.96,0.03,0.02,0.29
1697353160.99,-0.24,0.42,1.33,0.4,0,31,0.95,0.03,0.02,0.3
1697353161,-0.26,0.49,0.85,-1.1,0.9,31.5,0.95,0.03,0.02,0.3
1697353161.01,-0.12,0.65,0.71,-1.1,0.9,31.5,0.95,0.03,0.02,0.3
1697353161.02,-0.24,0.52,0.96,3.8,2.3,33.2,0.95,0.03,0.02,0.3
1697353161.03,-0.29,0.43,1.03,5,2.9,34,0.95,0.03,0.02,0.31
1697353161.04,-0.24,0.43,1.06,5.6,3.4,34.7,0.95,0.03,0.02,0.31
1697353161.05,-0.16,0.29,0.51,3,3.4,35.6,0.95,0.03,0.02,0.31
1697353161.06,-0.27,0.48,1.19,1,2.1,35.7,0.95,0.03,0.02,0.32
1697353161.07,-0.2,0.67,0.82,0.9,1.3,36.1,0.95,0.03,0.02,0.32
1697353161.08,-0.26,0.56,0.88,1.9,0.4,37,0.95,0.03,0.02,0.32
1697353161.09,-0.26,0.59,0.73,3,-0.4,37.3,0.95,0.03,0.02,0.32
1697353161.1,-0.27,0.5,0.83,3,-0.4,37.3,0.94,0.03,0.02,0.33
1697353161.11,-0.36,0.52,1.17,1.2,-0.5,38.1,0.94,0.03,0.02,0.33
1697353161.12,-0.08,0.57,0.57,0.3,-0.2,38.6,0.94,0.03,0.02,0.34
1697353161.13,-0.34,0.55,1.28,0,0.3,38.7,0.94,0.03,0.02,0.34
1697353161.14,-0.29,0.52,1.33,0,0.3,38.7,0.94,0.03,0.02,0.34
1697353161.15,-0.16,0.55,0.81,-0.9,0.6,39,0.94,0.03,0.02,0.35
1697353161.16,-0.27,0.5,1.04,-1.5,1.1,39.2,0.94,0.03,0.02,0.35
1697353161.17,-0.3,0.56,0.98,-2.3,1.3,39.1,0.94,0.03,0.02,0.35
1697353161.18,-0.28,0.46,1.51,-2.5,1.6,39.1,0.94,0.03,0.02,0.35
1697353161.19,-0.19,0.52,0.88,-2.2,1.5,39.3,0.93,0.03,0.02,0.36
1697353161.2,-0.27,0.45,1.27,-1.2,1.6,38.9,0.93,0.03,0.02,0.36
1697353161.21,-0.24,0.4,0.81,-1.2,1.5,38.9,0.93,0.03,0.02,0.36
1697353161.22,-0.23,0.53,0.92,-1.7,1.6,38.5,0.93,0.03,0.02,0.37
1697353161.23,-0.23,0.53,0.99,-2,1.9,38.2,0.93,0.03,0.02,0.37
1697353161.24,-0.23,0.53,0.99,-1.4,1.7,38.3,0.93,0.03,0.02,0.37
1697353161.25,-0.21,0.59,0.99,0.4,1.3,38.4,0.93,0.03,0.02,0.38
1697353161.26,-0.18,0.48,1.03,2.5,1,38.9,0.92,0.03,0.02,0.38
1697353161.27,-0.14,0.43,1.05,4.1,0.2,39.8,0.92,0.03,0.02,0.38
1697353161.28,-0.14,0.45,0.75,4.3,-0.3,40.6,0.92,0.03,0.02,0.39
1697353161.29,-0.15,0.49,1.01,3,-0.9,41.4,0.92,0.03,0.02,0.39
1697353161.3,-0.3,0.51,1.04,2,-0.8,42.2,0.92,0.03,0.02,0.39
1697353161.31,-0.3,0.51,1.04,2,-0.8,42.2,0.92,0.03,0.02,0.39
1697353161.32,-0.3,0.51,1.04,2,-0.8,42.2,0.92,0.03,0.02,0.39
1697353161.33,-0.3,0.51,1.04,2,-0.8,42.2,0.92,0.03,0.02,0.39
1697353161.34,-0.3,0.51,1.04,2,-0.8,42.2,0.92,0.03,0.02,0.39
1697353161.35,-0.3,0.51,1.04,2,-0.8,42.2,0.92,0.03,0.02,0.39
1697353161.36,-0.3,0.51,1.04,2,-0.8,42.2,0.92,0.03,0.02,0.39
1697353161.37,-0.3,0.51,1.04,2,-0.8,42.2,0.92,0.03,0.02,0.39
1697353161.38,-0.3,0.51,1.04,2,-0.8,42.2,0.92,0.03,0.02,0.39
1697353161.39,-0.3,0.51,1.04,2,-0.8,42.2,0.92,0.03,0.02,0.39
1697353161.4,-0.3,0.51,1.04,2,-0.8,42.2,0.92,0.03,0.02,0.39
1697353161.41,-0.3,0.51,1.04,2,-0.8,42.2,0.92,0.03,0.02,0.39
1697353161.42,-0.3,0.51,1.04,2,-0.8,42.2,0.92,0.03,0.02,0.39
1697353161.43,-0.11,0.55,1.01,0.4,0,46.1,0.9,0.04,0.02,0.44
1697353161.44,-0.13,0.58,0.99,-2,-0.4,45.7,0.9,0.04,0.02,0.44
1697353161.45,-0.1,0.55,0.93,-2.2,-0.6,45.5,0.89,0.04,0.02,0.45
1697353161.46,-0.1,0.65,0.79,-1.9,-0.3,45.8,0.89,0.04,0.02,0.45
1697353161.47,-0.21,0.62,1.26,-1,-0.6,46.2,0.89,0.03,0.01,0.45
1697353161.48,-0.18,0.59,1.08,0,-0.9,46.6,0.89,0.03,0.01,0.46
1697353161.49,-0.1,0.57,0.78,0,-0.9,46.6,0.89,0.04,0.01,0.46
1697353161.5,-0.23,0.58,1.09,1.5,-0.6,47.5,0.88,0.04,0.01,0.46
1697353161.51,-0.25,0.51,1.15,1.5,-0.6,47.5,0.88,0.04,0.01,0.47
1697353161.52,-0.13,0.5,0.95,1.8,-0.5,47.8,0.88,0.04,0.01,0.47
1697353161.53,-0.17,0.5,1.13,1.8,-0.1,48.3,0.88,0.04,0.01,0.48
1697353161.54,-0.13,0.48,0.97,2.2,-0.3,48.5,0.88,0.04,0.01,0.48
1697353161.55,-0.16,0.51,0.93,2.4,-0.3,48.7,0.87,0.04,0.01,0.48
1697353161.56,-0.18,0.46,0.94,2.9,-0.5,48.8,0.87,0.04,0.01,0.49
1697353161.57,-0.23,0.47,1.21,2.9,-0.1,48.8,0.87,0.04,0.01,0.49
1697353161.58,-0.11,0.51,0.94,2.2,0.2,48.7,0.87,0.04,0.01,0.49
1697353161.59,-0.14,0.52,0.91,1.1,0.4,48.7,0.87,0.04,0.01,0.5
1697353161.6,-0.09,0.6,1.14,0,0.5,48.6,0.86,0.04,0.01,0.5
1697353161.61,-0.11,0.58,1.12,-0.4,0.5,48.5,0.86,0.04,0.01,0.51
1697353161.62,-0.14,0.53,1.14,-0.1,0.6,48.6,0.86,0.04,0.01,0.51
1697353161.63,-0.14,0.53,1.14,0,0.1,48.5,0.86,0.04,0.01,0.51
1697353161.64,-0.07,0.56,0.73,0.4,0,48.4,0.85,0.04,0.01,0.52
1697353161.65,-0.11,0.52,1.09,0.3,-0.3,48.3,0.85,0.04,0.01,0.52
1697353161.66,-0.18,0.52,1.12,0,-0.9,48.1,0.85,0.04,0.01,0.52
1697353161.67,-0.13,0.52,1.02,-1.2,-1.1,47.9,0.85,0.04,0.01,0.53
1697353161.68,-0.17,0.63,1.12,-3,-0.9,47.8,0.85,0.04,0.01,0.53
1697353161.69,-0.15,0.6,0.91,-3.5,-0.3,47.8,0.85,0.04,0.01,0.53
1697353161.7,-0.12,0.62,1.17,-2.6,0.3,47.9,0.84,0.04,0.01,0.54
1697353161.71,-0.04,0.55,0.75,-0.8,0.9,47.8,0.84,0.04,0.01,0.54
1697353161.72,-0.01,0.47,0.89,0.6,1.3,47.8,0.84,0.04,0.01,0.54
1697353161.73,-0.03,0.41,1.02,0.9,1.5,47.9,0.84,0.04,0.01,0.55
1697353161.74,-0.01,0.4,0.88,0.5,0.9,47.8,0.83,0.04,0.01,0.55
1697353161.75,0.03,0.48,0.89,-0.5,0.2,47.5,0.83,0.04,0.01,0.55
1697353161.76,0.06,0.5,0.97,-0.5,-0.4,46.9,0.83,0.04,0.01,0.56
1697353161.77,0.01,0.57,0.97,0,-1,46.8,0.83,0.04,0.01,0.56
1697353161.78,-0.14,0.57,1.06,1,-1.4,46.7,0.83,0.04,0.01,0.56
1697353161.79,-0.15,0.52,0.98,1.8,-1.3,47.1,0.82,0.04,0.01,0.57
1697353161.8,-0.14,0.51,0.89,2.2,-0.8,47.7,0.82,0.04,0.01,0.57
1697353161.81,-0.21,0.52,1.09,1.9,-0.5,48,0.82,0.04,0.01,0.57
1697353161.82,-0.17,0.51,1.04,0.8,0.2,48.5,0.82,0.04,0.01,0.58
1697353161.83,-0.17,0.51,1.04,0.8,0.2,48.5,0.82,0.04,0.01,0.58
1697353161.84,-0.17,0.51,1.04,0.8,0.2,48.5,0.82,0.04,0.01,0.58
1697353161.85,-0.17,0.51,1.04,0.8,0.2,48.5,0.82,0.04,0.01,0.58
1697353161.86,-0.17,0.51,1.04,0.8,0.2,48.5,0.82,0.04,0.01,0.58
1697353161.87,-0.17,0.51,1.04,0.8,0.2,48.5,0.82,0.04,0.01,0.58
1697353161.88,-0.17,0.51,1.04,0.8,0.2,48.5,0.82,0.04,0.01,0.58
1697353161.89,-0.17,0.51,1.04,0.8,0.2,48.5,0.82,0.04,0.01,0.58
1697353161.9,-0.17,0.51,1.04,0.8,0.2,48.5,0.82,0.04,0.01,0.58
1697353161.91,-0.17,0.51,1.04,0.8,0.2,48.5,0.82,0.04,0.01,0.58
1697353161.92,-0.17,0.51,1.04,0.8,0.2,48.5,0.82,0.04,0.01,0.58
1697353161.93,-0.17,0.51,1.04,0.8,0.2,48.5,0.82,0.04,0.01,0.58
1697353161.94,-0.17,0.51,1.04,0.8,0.2,48.5,0.82,0.04,0.01,0.58
1697353161.95,-0.17,0.51,1.04,0.8,0.2,48.5,0.82,0.04,0.01,0.58
1697353161.96,-0.17,0.51,1.04,0.8,0.2,48.5,0.82,0.04,0.01,0.58
1697353161.97,-0.09,0.46,0.83,-2.1,1.3,48.7,0.78,0.04,0.01,0.63
1697353161.98,-0.12,0.5,1.18,-2.1,1.3,48.7,0.77,0.04,0.01,0.63
1697353161.99,0,0.54,0.78,-2.6,1.5,48.9,0.77,0.04,0.01,0.64
1697353162,0.04,0.57,1.07,-1.4,1.3,48.8,0.77,0.04,0.01,0.64
1697353162.01,0.03,0.55,1.14,0.3,1,48.3,0.77,0.04,0.01,0.64
1697353162.02,0.09,0.53,1.18,1.8,0.5,47.5,0.76,0.04,0.01,0.65
1697353162.03,0.01,0.5,0.98,1.3,0,46.9,0.76,0.04,0.01,0.65
1697353162.04,-0.04,0.49,1.26,0.3,-0.4,46.7,0.76,0.04,0.01,0.65
1697353162.05,-0.03,0.56,1.04,-0.8,-0.3,47,0.76,0.04,0.01,0.65
1697353162.06,-0.1,0.64,1.11,-1.2,-0.3,47.6,0.76,0.04,0.01,0.65
1697353162.07,-0.18,0.58,1.11,-0.5,0.7,48.4,0.75,0.04,0.01,0.66
1697353162.08,-0.1,0.59,0.96,0.4,1.2,48.9,0.75,0.04,0.01,0.66
1697353162.09,-0.06,0.5,1.16,1,1.9,49.5,0.74,0.04,0.01,0.67
1697353162.1,-0.04,0.43,1.19,0.9,1.6,49.6,0.74,0.04,0.01,0.67
1697353162.11,0.12,0.47,1.28,-0.1,1.2,49.4,0.74,0.04,0.01,0.67
1697353162.12,0.1,0.59,1.17,-1.2,0.5,49,0.74,0.04,0.01,0.67
1697353162.13,0.1,0.59,0.89,-0.5,-0.3,48.6,0.73,0.04,0.01,0.68
1697353162.14,0.11,0.59,1.02,0.9,-0.7,48.1,0.73,0.04,0.01,0.68
1697353162.15,0.03,0.57,1,1.9,-0.9,47.7,0.73,0.04,0.01,0.68
1697353162.16,0.06,0.49,0.84,1.3,-0.2,47.7,0.73,0.04,0.01,0.69
1697353162.17,-0.01,0.53,1.07,0.3,0.1,47.7,0.72,0.04,0.01,0.69
1697353162.18,-0.07,0.5,0.96,-0.8,0.4,48.2,0.72,0.04,0.01,0.69
1697353162.19,0.02,0.59,0.92,-1.3,1,48.4,0.72,0.04,0.01,0.7
1697353162.2,-0,0.58,0.89,-1.4,1.6,48.9,0.71,0.04,0,0.7
1697353162.21,0.04,0.56,0.6,0.2,1.7,49,0.71,0.04,0,0.7
1697353162.22,0.04,0.5,0.76,1.9,1.5,48.9,0.71,0.04,0,0.7
1697353162.23,0.09,0.47,0.95,1.9,1.4,48.8,0.7,0.04,0,0.71
1697353162.24,0.1,0.47,0.96,0.8,1.2,48.6,0.7,0.04,0,0.71
1697353162.25,0.1,0.52,1.08,0.8,1.2,48.6,0.7,0.04,0,0.71
1697353162.26,0.1,0.52,1.08,0,0.8,48.2,0.7,0.04,0,0.72
1697353162.27,0.02,0.62,0.97,-0.8,0.7,48.4,0.69,0.04,0,0.72
1697353162.28,-0.06,0.63,1.03,0.4,1.1,48.8,0.69,0.04,0,0.72
1697353162.29,-0.03,0.59,0.92,0.4,1.1,48.8,0.69,0.04,0,0.73
1697353162.3,-0.05,0.52,1.04,2.3,1.5,49.8,0.68,0.04,0,0.73
1697353162.31,0.03,0.46,1.22,2.3,1.5,49.8,0.68,0.04,0,0.73
1697353162.32,0.04,0.5,0.99,-0.5,1.6,50,0.68,0.04,0,0.74
1697353162.33,0.07,0.59,0.99,-2.4,1.3,50.1,0.67,0.04,0,0.74
1697353162.34,0.04,0.64,1.25,-2.7,0.9,49.9,0.67,0.04,0,0.74
1697353162.35,0.07,0.65,0.82,-2.7,0.9,49.9,0.67,0.04,0,0.74
1697353162.36,0.07,0.65,0.82,-2.7,0.9,49.9,0.67,0.04,0,0.74
1697353162.37,0.07,0.65,0.82,-2.7,0.9,49.9,0.67,0.04,0,0.74
1697353162.38,0.07,0.65,0.82,-2.7,0.9,49.9,0.67,0.04,0,0.74
1697353162.39,0.07,0.65,0.82,-2.7,0.9,49.9,0.67,0.04,0,0.74
1697353162.4,0.07,0.65,0.82,-2.7,0.9,49.9,0.67,0.04,0,0.74
1697353162.41,0.07,0.65,0.82,-2.7,0.9,49.9,0.67,0.04,0,0.74
1697353162.42,0.07,0.65,0.82,-2.7,0.9,49.9,0.67,0.04,0,0.74
1697353162.43,0.07,0.65,0.82,-2.7,0.9,49.9,0.67,0.04,0,0.74
1697353162.44,0.07,0.65,0.82,-2.7,0.9,49.9,0.67,0.04,0,0.74
1697353162.45,0.07,0.65,0.82,-2.7,0.9,49.9,0.67,0.04,0,0.74
1697353162.46,0.07,0.65,0.82,-2.7,0.9,49.9,0.67,0.04,0,0.74
1697353162.47,0.07,0.65,0.82,-2.7,0.9,49.9,0.67,0.04,0,0.74
1697353162.48,0.07,0.65,0.82,-0.1,0.9,49.4,0.67,0.04,0,0.74
1697353162.49,0.13,0.69,0.83,-0.2,0.5,49.5,0.62,0.04,0,0.78
1697353162.5,-0.02,0.59,1.17,0.1,0.6,49.8,0.62,0.04,0,0.79
1697353162.51,0.06,0.56,0.83,1.3,0.8,50.1,0.61,0.04,0,0.79
1697353162.52,0.04,0.55,1.01,1.7,1,50.4,0.61,0.04,0,0.79
1697353162.53,0.04,0.57,1.16,1.2,1.2,50.6,0.61,0.04,0,0.8
1697353162.54,0.08,0.53,1.08,0.8,1.3,50.7,0.6,0.04,0,0.8
1697353162.55,0.06,0.53,1.1,0.5,1.3,50.6,0.6,0.04,0,0.8
1697353162.56,0.1,0.56,1.07,0.3,1.5,50.4,0.59,0.04,0,0.8
1697353162.57,0.12,0.6,1.25,0,1.6,50.2,0.59,0.04,0,0.81
1697353162.58,0.12,0.55,1.11,-0.5,1.3,49.7,0.59,0.04,0,0.81
1697353162.59,0.1,0.64,0.87,-0.5,0.8,49.2,0.58,0.04,0,0.81
1697353162.6,0.05,0.55,1.12,-0.6,0.3,49,0.58,0.04,0,0.81
1697353162.61,0.03,0.58,0.88,-0.4,0.5,48.9,0.58,0.04,0,0.81
1697353162.62,0.05,0.6,0.77,-0.2,0.4,48.8,0.58,0.04,0,0.82
1697353162.63,-0.13,0.54,1.26,0,0.5,48.4,0.57,0.04,0,0.82
1697353162.64,0.05,0.56,0.96,0.1,0.4,48.2,0.57,0.04,0,0.82
1697353162.65,0.06,0.51,0.89,0.1,0.6,47.8,0.57,0.04,0,0.82
1697353162.66,0.05,0.57,1.03,0.7,0.6,47.6,0.56,0.04,0,0.83
1697353162.67,0.21,0.4,0.85,0.7,0.6,47.6,0.56,0.04,0,0.83
1697353162.68,0.08,0.44,0.93,0.8,0,46.7,0.56,0.04,0,0.83
1697353162.69,0.07,0.45,1.04,-0.7,-0.7,46,0.55,0.04,0,0.83
1697353162.7,0.06,0.59,0.97,-2.1,-0.8,45.7,0.55,0.04,0,0.84
1697353162.71,0.06,0.59,0.97,-2.1,-0.8,45.7,0.54,0.04,-0,0.84
1697353162.72,0.03,0.55,1.05,-0.4,0.1,44.9,0.54,0.04,-0,0.84
1697353162.73,0.02,0.43,1.22,-0.4,0.1,44.9,0.54,0.04,-0,0.84
1697353162.74,0.14,0.4,1.01,-0.6,0.8,43.8,0.53,0.04,-0,0.84
1697353162.75,0.07,0.39,1.1,-0.6,0.8,43.8,0.53,0.04,-0,0.85
1697353162.76,0.07,0.39,1.1,-1.2,0.8,43.1,0.53,0.04,-0,0.85
1697353162.77,0.09,0.48,1.05,-1.8,0.4,42.1,0.52,0.04,-0,0.85
1697353162.78,0.1,0.43,1.13,-1.8,0.4,42.1,0.52,0.04,-0,0.85
1697353162.79,0.11,0.42,1.04,-1.1,0.1,40.7,0.52,0.04,-0,0.85
1697353162.8,0.1,0.35,0.9,-0.5,0.3,39.6,0.52,0.04,-0,0.86
1697353162.81,0.12,0.28,0.97,-0.2,0.4,39,0.51,0.04,-0,0.86
1697353162.82,0.13,0.19,0.92,-0.2,0.5,37.6,0.51,0.04,-0,0.86
1697353162.83,0.11,0.23,0.94,-1.3,0.6,36.1,0.51,0.04,-0,0.86
1697353162.84,0,0.29,1.07,-2.2,0.6,34.7,0.5,0.04,-0,0.86
1697353162.85,0.08,0.27,1.05,-2.7,0.3,33.3,0.5,0.04,-0,0.86
1697353162.86,0.1,0.27,0.94,-2.2,0.3,31.9,0.5,0.04,-0,0.86
1697353162.87,0.11,0.29,0.99,-1.4,0.1,30.8,0.5,0.04,-0,0.87
1697353162.88,0.11,0.29,0.99,-1.4,0.1,30.8,0.5,0.04,-0,0.87
1697353162.89,0.11,0.29,0.99,-1.4,0.1,30.8,0.5,0.04,-0,0.87
1697353162.9,0.11,0.29,0.99,-1.4,0.1,30.8,0.5,0.04,-0,0.87
1697353162.91,0.11,0.29,0.99,-1.4,0.1,30.8,0.5,0.04,-0,0.87
1697353162.92,0.11,0.29,0.99,-1.4,0.1,30.8,0.5,0.04,-0,0.87
1697353162.93,0.11,0.29,0.99,-1.4,0.1,30.8,0.5,0.04,-0,0.87
1697353162.94,0.11,0.29,0.99,-1.4,0.1,30.8,0.5,0.04,-0,0.87
1697353162.95,0.11,0.29,0.99,-1.4,0.1,30.8,0.5,0.04,-0,0.87
1697353162.96,0.11,0.29,0.99,-1.4,0.1,30.8,0.5,0.04,-0,0.87
1697353162.97,0.11,0.29,0.99,-1.4,0.1,30.8,0.5,0.04,-0,0.87
1697353162.98,0.11,0.29,0.99,-1.4,0.1,30.8,0.5,0.04,-0,0.87
1697353162.99,0.11,0.29,0.99,-1.4,0.1,30.8,0.5,0.04,-0,0.87
1697353163,0.04,-0.33,1.11,-3.7,-0.3,-0.3,0.48,0.03,-0.01,0.88
1697353163.01,0.1,-0.36,0.92,-3.9,-0.5,-3.1,0.48,0.03,-0.01,0.88
1697353163.02,0.01,-0.36,0.82,-4,-0.7,-4.9,0.48,0.03,-0.01,0.88
1697353163.03,-0.21,-0.36,1.28,-4,-0.7,-4.9,0.48,0.03,-0.01,0.88
1697353163.04,-0.02,-0.39,1,-3.3,-0.9,-7,0.48,0.03,-0.01,0.88
1697353163.05,-0.05,-0.43,1.35,-3,-1,-8.4,0.48,0.03,-0.01,0.88
1697353163.06,-0.12,-0.5,1.31,-3.3,-0.8,-10,0.48,0.03,-0.01,0.88
1697353163.07,-0.04,-0.49,0.96,-4,-0.3,-11.6,0.48,0.03,-0.01,0.88
1697353163.08,-0.04,-0.43,0.74,-3.9,0.3,-13.6,0.48,0.03,-0.01,0.87
1697353163.09,-0.04,-0.43,0.74,-3.9,0.3,-13.6,0.48,0.03,-0.01,0.87
1697353163.1,-0.08,-0.57,0.74,-1.7,0.5,-17.4,0.49,0.03,-0.01,0.87
1697353163.11,-0.08,-0.57,0.74,-1.7,0.5,-17.4,0.49,0.03,-0.01,0.87
1697353163.12,-0.11,-0.6,1.03,-1.4,0.5,-22.8,0.49,0.03,-0.01,0.87
1697353163.13,-0.11,-0.6,1.03,-1.4,0.5,-22.8,0.49,0.03,-0.01,0.87
1697353163.14,-0.11,-0.64,0.98,-2.1,0.3,-25.7,0.49,0.03,-0.01,0.87
1697353163.15,-0.11,-0.64,0.98,-2.5,0.3,-27.9,0.49,0.03,-0.01,0.87
1697353163.16,-0.07,-0.62,0.95,-2.8,0.3,-30.1,0.5,0.03,-0.01,0.87
1697353163.17,-0.01,-0.65,0.83,-2.6,0.2,-31.9,0.5,0.03,-0.01,0.87
1697353163.18,-0.04,-0.6,0.79,-2.4,0.4,-33.7,0.5,0.03,-0.01,0.86
1697353163.19,-0.32,-0.54,0.68,-1.3,1,-35.7,0.5,0.03,-0.01,0.86
1697353163.2,-0.4,-0.75,1.22,-1.3,1,-35.7,0.5,0.03,-0.01,0.86
1697353163.21,-0.34,-0.7,1.01,-0.8,2.2,-37.4,0.51,0.03,-0.01,0.86
1697353163.22,-0.29,-0.73,0.92,-3.5,2.6,-38.1,0.51,0.03,-0.01,0.86
1697353163.23,-0.2,-0.61,1.01,-4.7,2.4,-39,0.51,0.03,-0.01,0.86
1697353163.24,-0.04,-0.51,1.07,-4.2,1.7,-39.8,0.52,0.03,-0.01,0.86
1697353163.25,-0,-0.39,0.74,-1.8,0.5,-40.9,0.52,0.03,-0.01,0.85
1697353163.26,-0.05,-0.48,0.87,-1.8,0.5,-40.9,0.52,0.03,-0.01,0.85
1697353163.27,-0.07,-0.66,1.09,3.8,-1,-41.8,0.53,0.03,-0.01,0.85
1697353163.28,-0.02,-0.61,0.41,3.4,-1,-41.9,0.53,0.03,-0.01,0.85
1697353163.29,-0.11,-0.64,0.98,0.8,-0.4,-41.9,0.53,0.03,-0.01,0.85
1697353163.3,-0.11,-0.64,0.98,0.8,-0.4,-41.9,0.54,0.03,-0.01,0.84
1697353163.31,0.02,-0.58,1.03,-1.3,0.3,-41.7,0.54,0.03,-0.01,0.84
1697353163.32,0.2,-0.4,1.4,-0.8,-1.2,-40.5,0.54,0.03,-0.01,0.84
1697353163.33,0.18,-0.47,1.36,1.9,-2.2,-39.6,0.54,0.03,-0.01,0.84
1697353163.34,0.2,-0.55,0.65,2.9,-2.2,-38.8,0.55,0.03,-0.01,0.84
1697353163.35,-0.07,-0.63,1.33,1.5,-1.6,-38,0.55,0.03,-0.01,0.83
1697353163.36,0.03,-0.55,0.86,0,-0.5,-38.7,0.55,0.03,-0.01,0.83
1697353163.37,-0.12,-0.45,1.06,-0.7,0.2,-39.2,0.56,0.03,-0.01,0.83
1697353163.38,-0.15,-0.36,1.18,0.2,1.2,-39.7,0.56,0.03,-0.01,0.83
1697353163.39,-0.1,-0.37,0.94,1.4,1.5,-40,0.56,0.03,-0.01,0.82
1697353163.4,-0.06,-0.35,0.99,1.5,2.1,-40,0.57,0.03,-0.01,0.82
1697353163.41,-0.06,-0.35,0.99,1.5,2.1,-40,0.57,0.03,-0.01,0.82
1697353163.42,-0.06,-0.35,0.99,1.5,2.1,-40,0.57,0.03,-0.01,0.82
1697353163.43,-0.06,-0.35,0.99,1.5,2.1,-40,0.57,0.03,-0.01,0.82
1697353163.44,-0.06,-0.35,0.99,1.5,2.1,-40,0.57,0.03,-0.01,0.82
1697353163.45,-0.06,-0.35,0.99,1.5,2.1,-40,0.57,0.03,-0.01,0.82
1697353163.46,-0.06,-0.35,0.99,1.5,2.1,-40,0.57,0.03,-0.01,0.82
1697353163.47,-0.06,-0.35,0.99,1.5,2.1,-40,0.57,0.03,-0.01,0.82
1697353163.48,-0.06,-0.35,0.99,1.5,2.1,-40,0.57,0.03,-0.01,0.82
1697353163.49,-0.06,-0.35,0.99,1.5,2.1,-40,0.57,0.03,-0.01,0.82
1697353163.5,-0.06,-0.35,0.99,1.5,2.1,-40,0.57,0.03,-0.01,0.82
1697353163.51,-0.06,-0.35,0.99,1.5,2.1,-40,0.57,0.03,-0.01,0.82
1697353163.52,-0.06,-0.35,0.99,1.5,2.1,-40,0.57,0.03,-0.01,0.82
1697353163.53,-0.06,-0.35,0.99,1.5,2.1,-40,0.6,0.03,-0.01,0.8
1697353163.54,0.26,-0.45,1.28,-1.7,0.8,-37.9,0.6,0.03,-0.01,0.8
1697353163.55,0.35,-0.45,1.14,-1.7,0,-37.4,0.61,0.03,-0.01,0.8
1697353163.56,0.34,-0.49,1.08,-0.3,-0.9,-37.2,0.61,0.03,-0.01,0.79
1697353163.57,0.36,-0.34,0.91,0.7,-2,-36.3,0.61,0.03,-0.01,0.79
1697353163.58,0.03,-0.64,0.71,2.8,-1.5,-37.3,0.61,0.03,-0.01,0.79
1697353163.59,0.08,-0.53,0.85,1.6,-0.4,-36.4,0.62,0.03,-0.01,0.79
1697353163.6,-0.05,-0.58,1.42,1.4,0.7,-36.7,0.62,0.03,-0.01,0.79
1697353163.61,-0.02,-0.65,0.61,1.2,1.9,-37.8,0.62,0.03,-0.01,0.78
1697353163.62,-0.03,-0.58,0.87,0.7,2.5,-38.7,0.62,0.03,-0.01,0.78
1697353163.63,0.1,-0.74,0.9,-0.7,2.9,-40.1,0.63,0.03,-0.01,0.78
1697353163.64,0.19,-0.65,1.08,-0.7,2.9,-40.1,0.63,0.03,-0.01,0.78
1697353163.65,0.28,-0.56,0.9,-2.5,2,-40.3,0.63,0.03,-0.01,0.77
1697353163.66,0.18,-0.41,1.15,-2.8,0.8,-40.3,0.63,0.03,-0.01,0.77
1697353163.67,0.26,-0.62,0.92,-1.1,-0.5,-40.6,0.64,0.03,-0.01,0.77
1697353163.68,0.11,-0.49,1.03,-0.2,-1.8,-40.4,0.64,0.03,-0.01,0.77
1697353163.69,0.02,-0.52,1.16,-0.6,-2.7,-39.8,0.64,0.03,-0.01,0.77
1697353163.7,0.05,-0.49,1.26,-0.6,-2.7,-39.8,0.64,0.03,-0.01,0.77
1697353163.71,0.04,-0.63,0.84,-1.2,-2.2,-40.6,0.65,0.03,-0.01,0.76
1697353163.72,0.04,-0.63,0.84,-1.2,-2.2,-40.6,0.65,0.03,-0.01,0.76
1697353163.73,0.06,-0.64,1.05,-1.1,-0.7,-41.3,0.65,0.03,-0.01,0.76
1697353163.74,-0,-0.54,0.98,-1.5,0,-42,0.65,0.03,-0.01,0.76
1697353163.75,-0.01,-0.58,1.43,-1.6,1,-43.7,0.66,0.03,-0.01,0.75
1697353163.76,-0.01,-0.58,1.43,-1.6,1,-43.7,0.66,0.03,-0.01,0.75
1697353163.77,0.02,-0.61,1.45,-0.4,1.5,-43.7,0.66,0.03,-0.01,0.75
1697353163.78,0.02,-0.61,1.45,-0.1,1.4,-43.8,0.67,0.03,-0.01,0.74
1697353163.79,0.16,-0.67,1.14,0.1,0.7,-43.8,0.67,0.03,-0.01,0.74
1697353163.8,0.1,-0.59,0.89,1.6,0.2,-44.2,0.67,0.03,-0.01,0.74
1697353163.81,0.04,-0.64,1.09,1.2,0.3,-43.6,0.68,0.03,-0.01,0.74
1697353163.82,0.15,-0.71,0.7,-0.2,0.2,-43.9,0.68,0.03,-0.01,0.73
1697353163.83,-0.01,-0.7,1.08,-0.2,0.2,-43.9,0.68,0.03,-0.01,0.73
1697353163.84,0.14,-0.62,1,-2.5,-0.1,-44.2,0.68,0.03,-0.01,0.73
1697353163.85,0.03,-0.52,0.82,-1,-0.7,-44,0.69,0.03,-0.01,0.73
1697353163.86,0.13,-0.51,0.99,1,-0.7,-43.5,0.69,0.03,-0.01,0.72
1697353163.87,0.15,-0.49,1,3.2,-0.9,-43,0.69,0.03,-0.01,0.72
1697353163.88,0.16,-0.59,1.03,4.2,-1.4,-42.5,0.7,0.03,-0.01,0.72
1697353163.89,0.12,-0.84,1.06,2,-1.3,-43.3,0.7,0.03,-0.01,0.72
1697353163.9,0,-0.79,0.98,-2.9,-0.3,-44,0.7,0.03,-0.01,0.71
1697353163.91,0.09,-0.7,1.02,-6.1,0.6,-44.2,0.7,0.03,-0.01,0.71
1697353163.92,-0,-0.53,1.2,-4.3,0.6,-44.7,0.71,0.03,-0.01,0.71
1697353163.93,-0,-0.53,1.2,-4.3,0.6,-44.7,0.71,0.03,-0.01,0.71
1697353163.94,-0,-0.53,1.2,-4.3,0.6,-44.7,0.71,0.03,-0.01,0.71
1697353163.95,-0,-0.53,1.2,-4.3,0.6,-44.7,0.71,0.03,-0.01,0.71
1697353163.96,-0,-0.53,1.2,-4.3,0.6,-44.7,0.71,0.03,-0.01,0.71
1697353163.97,-0,-0.53,1.2,-4.3,0.6,-44.7,0.71,0.03,-0.01,0.71
1697353163.98,-0,-0.53,1.2,-4.3,0.6,-44.7,0.71,0.03,-0.01,0.71
1697353163.99,-0,-0.53,1.2,-4.3,0.6,-44.7,0.71,0.03,-0.01,0.71
1697353164,-0,-0.53,1.2,-4.3,0.6,-44.7,0.71,0.03,-0.01,0.71
1697353164.01,-0,-0.53,1.2,-4.3,0.6,-44.7,0.71,0.03,-0.01,0.71
1697353164.02,-0,-0.53,1.2,-4.3,0.6,-44.7,0.71,0.03,-0.01,0.71
1697353164.03,-0,-0.53,1.2,-4.3,0.6,-44.7,0.71,0.03,-0.01,0.71
1697353164.04,-0,-0.53,1.2,-4.3,0.6,-44.7,0.71,0.03,-0.01,0.71
1697353164.05,-0,-0.53,1.2,-4.3,0.6,-44.7,0.71,0.03,-0.01,0.71
1697353164.06,-0,-0.53,1.2,-4.3,0.6,-44.7,0.71,0.03,-0.01,0.71
1697353164.07,0.01,-0.52,1.22,2.9,1.6,-46,0.75,0.03,-0,0.66
1697353164.08,0.15,-0.65,0.99,2.9,1.6,-46,0.75,0.03,-0,0.66
1697353164.09,0.12,-0.9,1.25,0.7,0.7,-46.5,0.75,0.03,-0,0.66
1697353164.1,0.12,-0.9,1.25,0.7,0.7,-46.5,0.75,0.03,-0,0.66
1697353164.11,0.08,-0.67,0.99,-0.3,0,-47.3,0.76,0.03,-0,0.65
1697353164.12,0.11,-0.92,1.16,-3.1,-0.9,-48,0.76,0.03,-0,0.65
1697353164.13,0.12,-0.65,0.85,-2.5,-0.9,-48.7,0.76,0.03,-0,0.64
1697353164.14,-0.02,-0.59,0.93,-0.4,-0.3,-48.9,0.77,0.03,-0,0.64
1697353164.15,0.1,-0.57,1.06,1.9,0,-48.9,0.77,0.03,-0,0.64
1697353164.16,0.07,-0.66,1.11,3.4,0.2,-49.1,0.77,0.03,-0,0.64
1697353164.17,-0.01,-0.8,1.15,1.4,1.1,-49.3,0.77,0.03,-0,0.63
1697353164.18,0.01,-0.82,0.97,-2.2,1.5,-49.6,0.78,0.03,-0,0.63
1697353164.19,0.01,-0.69,1.19,-3.6,2,-49.7,0.78,0.03,-0,0.62
1697353164.2,0.13,-0.64,0.86,-2.9,2.3,-49.3,0.78,0.03,-0,0.62
1697353164.21,0.15,-0.56,1.09,-0.9,2.3,-49.2,0.79,0.03,-0,0.62
1697353164.22,0.07,-0.61,1.12,1.2,1.6,-49,0.79,0.03,-0,0.61
1697353164.23,0.26,-0.7,0.89,2.4,0.6,-48.6,0.79,0.03,0,0.61
1697353164.24,0.04,-0.79,0.89,1.3,-0.1,-48.5,0.79,0.03,0,0.61
1697353164.25,0.17,-0.87,0.72,0.5,-0.3,-48.4,0.8,0.03,0,0.6
1697353164.26,0.1,-0.54,0.77,-2.3,-1,-48.5,0.8,0.03,0,0.6
1697353164.27,0.17,-0.42,1.01,-4,-1.6,-48.3,0.8,0.03,0,0.6
1697353164.28,0.13,-0.39,0.77,-3.3,-1.6,-47.5,0.8,0.03,0,0.59
1697353164.29,0.13,-0.6,0.89,0.9,-0.9,-46.1,0.81,0.03,0,0.59
1697353164.3,0.12,-0.73,1.01,5.5,0.3,-44.6,0.81,0.03,0,0.59
1697353164.31,0.11,-0.58,0.82,6,1.5,-43.4,0.81,0.03,0,0.58
1697353164.32,0.17,-0.34,1.07,2.5,2.6,-42.4,0.81,0.03,0,0.58
1697353164.33,0.13,-0.13,0.99,2.5,2.6,-42.4,0.81,0.03,0,0.58
1697353164.34,0.18,0.01,0.94,-2.1,4.5,-39.2,0.82,0.03,0,0.58
1697353164.35,0.18,0.01,0.94,-2.1,4.5,-39.2,0.82,0.03,0,0.58
1697353164.36,0.1,-0.1,1.32,2.4,4.7,-35.9,0.82,0.03,0,0.57
1697353164.37,0.13,-0.19,1.35,8.2,2.8,-29.6,0.82,0.03,0,0.57
1697353164.38,0.24,0.05,0.72,5.8,1.9,-26.6,0.82,0.03,0,0.57
1697353164.39,0.2,0.43,1.25,5.8,1.9,-26.6,0.82,0.03,0,0.57
1697353164.4,0.2,0.43,1.25,-1.3,0.5,-21.2,0.82,0.03,0,0.56
1697353164.41,0.2,0.43,1.25,-1.3,0.5,-21.2,0.82,0.03,0,0.56
1697353164.42,0.25,0.58,0.76,3.9,0,-13.2,0.83,0.03,0.01,0.56
1697353164.43,0.25,0.58,0.76,3.9,0,-13.2,0.83,0.03,0.01,0.56
1697353164.44,0.39,0.41,0.59,9.1,-0.2,-9.2,0.83,0.03,0.01,0.56
1697353164.45,0.32,0.3,0.65,10,-0.4,-3.5,0.83,0.03,0.01,0.56
1697353164.46,0.32,0.3,0.65,10,-0.4,-3.5,0.83,0.03,0.01,0.56
1697353164.47,0.32,0.3,0.65,10,-0.4,-3.5,0.83,0.03,0.01,0.56
1697353164.48,0.32,0.3,0.65,10,-0.4,-3.5,0.83,0.03,0.01,0.56
1697353164.49,0.32,0.3,0.65,10,-0.4,-3.5,0.83,0.03,0.01,0.56
1697353164.5,0.32,0.3,0.65,10,-0.4,-3.5,0.83,0.03,0.01,0.56
1697353164.51,0.32,0.3,0.65,10,-0.4,-3.5,0.83,0.03,0.01,0.56
1697353164.52,0.32,0.3,0.65,10,-0.4,-3.5,0.83,0.03,0.01,0.56
1697353164.53,0.32,0.3,0.65,10,-0.4,-3.5,0.83,0.03,0.01,0.56
1697353164.54,0.32,0.3,0.65,10,-0.4,-3.5,0.83,0.03,0.01,0.56
1697353164.55,0.32,0.3,0.65,10,-0.4,-3.5,0.83,0.03,0.01,0.56
1697353164.56,0.32,0.3,0.65,10,-0.4,-3.5,0.83,0.03,0.01,0.56
1697353164.57,0.32,0.3,0.65,10,-0.4,-3.5,0.83,0.03,0.01,0.56
1697353164.58,0.32,0.3,0.65,10,-0.4,-3.5,0.83,0.03,0.01,0.56
1697353164.59,0.36,0.13,0.93,-2.1,2.1,7.6,0.82,0.03,0.01,0.57
1697353164.6,0.35,0.27,1.05,-3.5,1.6,8.4,0.82,0.03,0.01,0.57
1697353164.61,0.26,0.29,0.95,-1.2,0.8,9.7,0.82,0.03,0.01,0.57
1697353164.62,0.3,0.19,1.25,1.2,0.1,10.7,0.82,0.03,0.01,0.57
1697353164.63,0.39,0.06,0.74,2.7,-0.9,11.1,0.82,0.03,0.01,0.57
1697353164.64,0.32,0.06,1.07,1.7,-1.4,11.3,0.82,0.03,0.01,0.57
1697353164.65,0.3,0.15,1.05,0,-1.8,11.5,0.82,0.03,0.01,0.57
1697353164.66,0.28,0.21,0.95,-0.4,-1.6,11.3,0.82,0.03,0.01,0.57
1697353164.67,0.33,0.21,0.9,0.4,-1.4,11.3,0.82,0.03,0.01,0.57
1697353164.68,0.25,0.17,1.01,1.8,-0.6,11.4,0.82,0.04,0.01,0.57
1697353164.69,0.3,0.13,1.04,2.7,0.3,11.3,0.82,0.04,0.01,0.58
1697353164.7,0.33,0.17,0.96,1.5,0.9,11.1,0.82,0.04,0.01,0.58
1697353164.71,0.28,0.28,1.07,0.1,1.1,10.9,0.82,0.04,0.01,0.58
1697353164.72,0.23,0.24,0.98,-0.6,1.4,11,0.82,0.03,0.01,0.58
1697353164.73,0.29,0.33,0.99,-0.7,1.8,11.1,0.81,0.03,0.01,0.58
1697353164.74,0.31,0.34,1.22,0.1,1.6,11.2,0.81,0.03,0.01,0.58
1697353164.75,0.32,0.28,0.97,1.2,1.5,11.8,0.81,0.03,0.01,0.58
1697353164.76,0.31,0.25,1.04,1.2,1.5,11.8,0.81,0.03,0.01,0.58
1697353164.77,0.31,0.25,1.04,0.4,1.4,12,0.81,0.03,0.01,0.58
1697353164.78,0.31,0.21,0.95,0.6,1.1,12,0.81,0.03,0.01,0.58
1697353164.79,0.26,0.21,1.17,0,0.8,12.3,0.81,0.03,0.01,0.58
1697353164.8,0.39,0.3,0.81,-0.2,0.7,12.7,0.81,0.03,0.01,0.58
1697353164.81,0.36,0.27,0.71,-0.3,-0.1,13,0.81,0.03,0.01,0.59
1697353164.82,0.24,0.3,1,0,-0.4,13.9,0.81,0.03,0.01,0.59
1697353164.83,0.34,0.35,0.96,1.3,-0.5,14.4,0.81,0.03,0.01,0.59
1697353164.84,0.3,0.26,0.79,2.6,-0.5,14.6,0.81,0.03,0.01,0.59
1697353164.85,0.3,0.23,1.19,1.9,-0.9,15,0.81,0.04,0.01,0.59
1697353164.86,0.3,0.21,0.87,0,-0.8,15.7,0.81,0.04,0.01,0.59
1697353164.87,0.29,0.29,0.75,-0.6,-1.3,15.9,0.81,0.04,0.01,0.59
1697353164.88,0.27,0.34,1.32,-0.6,-1.9,16,0.81,0.04,0.01,0.59
1697353164.89,0.37,0.32,0.84,-0.5,-1.8,16.3,0.8,0.04,0.01,0.59
1697353164.9,0.26,0.28,0.85,-0.2,-1.5,16.4,0.8,0.04,0.01,0.6
1697353164.91,0.21,0.25,1.16,0.4,-0.8,16.1,0.8,0.04,0.01,0.6
1697353164.92,0.42,0.3,0.63,0.1,-0.2,15.9,0.8,0.04,0.01,0.6
1697353164.93,0.33,0.28,1,0.1,0,15.8,0.8,0.04,0.01,0.6
1697353164.94,0.22,0.32,1.07,0.5,0.2,15.5,0.8,0.04,0.01,0.6
1697353164.95,0.36,0.31,0.89,0.6,0.2,15.5,0.8,0.04,0.01,0.6
1697353164.96,0.29,0.21,1,1,0,15,0.8,0.04,0.01,0.6
1697353164.97,0.29,0.33,1,1,0,15,0.8,0.04,0.01,0.6
1697353164.98,0.29,0.33,1,1,0,15,0.8,0.04,0.01,0.6
1697353164.99,0.29,0.33,1,1,0,15,0.8,0.04,0.01,0.6
1697353165,0.29,0.33,1,1,0,15,0.8,0.04,0.01,0.6
1697353165.01,0.29,0.33,1,1,0,15,0.8,0.04,0.01,0.6
1697353165.02,0.29,0.33,1,1,0,15,0.8,0.04,0.01,0.6
1697353165.03,0.29,0.33,1,1,0,15,0.8,0.04,0.01,0.6
1697353165.04,0.29,0.33,1,1,0,15,0.8,0.04,0.01,0.6
1697353165.05,0.29,0.33,1,1,0,15,0.8,0.04,0.01,0.6
1697353165.06,0.29,0.33,1,1,0,15,0.8,0.04,0.01,0.6
1697353165.07,0.29,0.33,1,1,0,15,0.8,0.04,0.01,0.6
1697353165.08,0.29,0.33,1,1,0,15,0.8,0.04,0.01,0.6
1697353165.09,0.29,0.33,1,1,0,15,0.8,0.04,0.01,0.6
1697353165.1,0.29,0.33,1,1,0,15,0.79,0.04,0,0.62
1697353165.11,0.44,0.29,0.76,0.9,0.1,15.8,0.79,0.04,0,0.62
1697353165.12,0.28,0.27,0.86,0.6,-0.4,15.4,0.78,0.04,0,0.62
1697353165.13,0.28,0.27,0.86,0.6,-0.4,15.4,0.78,0.04,0,0.62
1697353165.14,0.31,0.45,0.94,-0.8,-1.5,15.1,0.78,0.04,0,0.62
1697353165.15,0.29,0.39,1.02,-0.8,-1.5,15.1,0.78,0.04,0,0.62
1697353165.16,0.24,0.21,1.03,0.5,-2.1,15.8,0.78,0.04,0,0.62
1697353165.17,0.25,0.16,1,3.2,-2.3,16.5,0.78,0.04,0,0.62
1697353165.18,0.25,0.16,1,3.2,-2.3,16.5,0.78,0.04,0,0.63
1697353165.19,0.17,0.18,1.16,0.3,-1,17.2,0.78,0.04,0,0.63
1697353165.2,0.28,0.12,1.2,-3.2,0.3,17.6,0.78,0.04,0,0.63
1697353165.21,0.1,0.77,1,-4.3,0.5,17.2,0.78,0.04,0,0.63
1697353165.22,0.26,0.17,0.96,-1,2.9,18.4,0.78,0.04,0,0.63
1697353165.23,0.27,0.27,1.05,2.6,3.7,17.2,0.77,0.04,0,0.63
1697353165.24,0.29,0.38,0.98,0.3,2.8,17.4,0.77,0.04,0,0.63
1697353165.25,0.28,0.26,1.01,-3,1.8,17.8,0.77,0.04,0,0.63
1697353165.26,0.29,0.57,0.67,-3.6,0.3,17.2,0.77,0.04,0,0.64
1697353165.27,0.25,0.37,1.04,-3.2,-1,17.4,0.77,0.04,0,0.64
1697353165.28,0.33,0.45,0.82,-2.3,-2.1,17.3,0.77,0.04,0,0.64
1697353165.29,0.25,0.45,1.07,-1.5,-2.6,17,0.77,0.04,0,0.64
1697353165.3,0.23,0.46,1.05,0.6,-1.5,16.8,0.77,0.04,0,0.64
1697353165.31,0.29,0.28,0.88,1.7,-0.9,16.8,0.77,0.04,0,0.64
1697353165.32,0.28,0.2,0.89,-0.2,-0.4,16.8,0.77,0.04,0,0.64
1697353165.33,0.2,0.08,1.05,-2.7,0.1,16.8,0.76,0.04,0,0.64
1697353165.34,0.34,0.5,0.95,-5.8,0.3,17,0.76,0.04,0,0.64
1697353165.35,0.17,0.34,0.68,-3.2,0.7,18.5,0.76,0.04,0,0.65
1697353165.36,0.36,0.59,1.23,3.1,0.6,18.1,0.76,0.04,0,0.65
1697353165.37,0.21,0.17,0.99,0.1,1,20.3,0.76,0.04,0,0.65
1697353165.38,0.23,0.29,1.11,0.1,1,20.3,0.76,0.04,0,0.65
1697353165.39,0.3,0.45,1,-2.2,0.6,19.8,0.76,0.04,0,0.65
1697353165.4,0.28,0.51,1.1,-2.2,0.6,19.8,0.76,0.04,0,0.65
1697353165.41,0.24,0.62,1.05,0.5,-1,20.6,0.76,0.03,0,0.65
1697353165.42,0.32,0.43,1.12,0.5,-1,20.6,0.76,0.03,0,0.65
1697353165.43,0.28,0.31,1.18,3.7,-2.5,20.7,0.75,0.04,0,0.66
1697353165.44,0.26,0.52,0.92,3.7,-2.5,20.7,0.75,0.04,0,0.66
1697353165.45,0.21,0.36,1.01,1.2,-2.9,20.2,0.75,0.04,0,0.66
1697353165.46,0.21,0.36,1.01,1.2,-2.9,20.2,0.75,0.04,0,0.66
1697353165.47,0.29,0.38,1,-0.1,-2.1,19.1,0.75,0.04,0,0.66
1697353165.48,0.3,0.34,0.96,-0.5,-2.1,18.8,0.75,0.04,0,0.66
1697353165.49,0.3,0.34,0.96,-0.5,-2.1,18.8,0.75,0.04,0,0.66
1697353165.5,0.3,0.34,0.96,-0.5,-2.1,18.8,0.75,0.04,0,0.66
1697353165.51,0.3,0.34,0.96,-0.5,-2.1,18.8,0.75,0.04,0,0.66
1697353165.52,0.3,0.34,0.96,-0.5,-2.1,18.8,0.75,0.04,0,0.66
1697353165.53,0.3,0.34,0.96,-0.5,-2.1,18.8,0.75,0.04,0,0.66
1697353165.54,0.3,0.34,0.96,-0.5,-2.1,18.8,0.75,0.04,0,0.66
1697353165.55,0.3,0.34,0.96,-0.5,-2.1,18.8,0.75,0.04,0,0.66
1697353165.56,0.3,0.34,0.96,-0.5,-2.1,18.8,0.75,0.04,0,0.66
1697353165.57,0.3,0.34,0.96,-0.5,-2.1,18.8,0.75,0.04,0,0.66
1697353165.58,0.3,0.34,0.96,-0.5,-2.1,18.8,0.75,0.04,0,0.66
1697353165.59,0.3,0.34,0.96,-0.5,-2.1,18.8,0.75,0.04,0,0.66
1697353165.6,0.3,0.34,0.96,-0.5,-2.1,18.8,0.75,0.04,0,0.66
1697353165.61,0.3,0.3,0.83,5.2,2.5,20.2,0.74,0.04,0,0.68
1697353165.62,0.31,0.16,0.85,6.5,1.1,20.3,0.73,0.04,0,0.68
1697353165.63,0.24,0.23,1.21,2.8,0.1,20.1,0.73,0.04,0,0.68
1697353165.64,0.32,0.32,0.95,-1.6,-0.6,19.7,0.73,0.04,0,0.68
1697353165.65,0.2,0.44,0.81,-3.4,-0.9,19,0.73,0.04,0,0.68
1697353165.66,0.32,0.58,0.59,-3.4,-0.5,18.4,0.73,0.04,0,0.68
1697353165.67,0.19,0.53,0.96,-0.1,-0.4,17.8,0.73,0.04,0,0.68
1697353165.68,0.2,0.39,0.96,3.4,-0.3,17.2,0.73,0.04,0,0.69
1697353165.69,0.29,0.23,0.6,4.8,0,16.4,0.73,0.04,0,0.69
1697353165.7,0.18,0.12,1.01,3.6,0.1,15.8,0.72,0.04,0,0.69
1697353165.71,0.22,0.16,1.02,-0.2,0.6,15,0.72,0.04,0,0.69
1697353165.72,0.28,0.46,0.89,-2.9,0.8,14.3,0.72,0.04,0,0.69
1697353165.73,0.15,0.52,1.19,-2.5,0.6,14.6,0.72,0.04,0,0.69
1697353165.74,0.22,0.34,1.08,0.6,0.1,15.6,0.72,0.04,0,0.69
1697353165.75,0.09,0.08,1.5,1.7,-0.2,15.9,0.72,0.04,0,0.69
1697353165.76,0.22,0.2,0.95,-0.4,-0.1,15.7,0.72,0.04,0,0.69
1697353165.77,0.2,0.17,0.95,-2.6,0,15.5,0.72,0.04,0,0.69
1697353165.78,0.06,0.21,0.97,-3.5,0.2,15.2,0.72,0.04,0,0.7
1697353165.79,0.18,0.33,0.86,-3.5,0.7,14.5,0.72,0.04,0,0.7
1697353165.8,0.12,0.25,0.83,-3.5,0.7,14.5,0.72,0.04,0,0.7
1697353165.81,0.18,0.23,0.51,1.3,1.8,12.9,0.71,0.04,0,0.7
1697353165.82,0.26,0.2,0.68,1.3,1.8,12.9,0.71,0.04,0,0.7
1697353165.83,0.31,0.1,0.99,2.1,1.2,11,0.71,0.04,0,0.7
1697353165.84,0.07,0.06,1.38,0.7,0.1,9.5,0.71,0.04,0,0.7
1697353165.85,0.14,0.17,1.32,-0.5,-0.3,8.5,0.71,0.04,0,0.7
1697353165.86,0.08,0.12,1.16,-0.5,-0.3,8.5,0.71,0.04,0,0.7
1697353165.87,0.05,0.24,1.17,-2.8,-0.8,8,0.71,0.04,0,0.7
1697353165.88,-0.01,0.25,1.21,-2.8,-0.8,8,0.71,0.04,0,0.7
1697353165.89,0.14,0.2,0.97,-1.9,0.7,8.6,0.71,0.04,0,0.7
1697353165.9,0.35,0.01,0.49,0.8,1.7,8.6,0.71,0.04,0,0.7
1697353165.91,0.2,-0.09,0.84,-0.8,2.5,8.1,0.71,0.04,0,0.7
1697353165.92,0.27,-0.01,0.81,-2.2,3.3,6.9,0.71,0.04,0,0.71
1697353165.93,0.27,-0.01,0.81,-2.2,3.3,6.9,0.71,0.04,0,0.71
1697353165.94,0.36,0.26,0.79,-2.7,2.4,5.9,0.71,0.04,0,0.71
1697353165.95,0.32,0.17,1.09,-2.6,0.5,5.5,0.71,0.03,0,0.71
1697353165.96,0.21,0.03,1.15,2.4,-3,4.5,0.71,0.03,0,0.71
1697353165.97,0.16,0.04,1.04,0.9,-4.3,4.1,0.71,0.04,0,0.71
1697353165.98,0.16,0.04,1.04,0.9,-4.3,4.1,0.71,0.04,0,0.71
1697353165.99,0.23,0.03,0.82,-1.4,-5,4.5,0.71,0.04,0,0.71
1697353166,0.23,0.03,0.82,-1.4,-5,4.5,0.71,0.04,0,0.71
1697353166.01,0.23,0.03,0.82,-1.4,-5,4.5,0.71,0.04,0,0.71
1697353166.02,0.23,0.03,0.82,-1.4,-5,4.5,0.71,0.04,0,0.71
1697353166.03,0.23,0.03,0.82,-1.4,-5,4.5,0.71,0.04,0,0.71
1697353166.04,0.23,0.03,0.82,-1.4,-5,4.5,0.71,0.04,0,0.71
1697353166.05,0.23,0.03,0.82,-1.4,-5,4.5,0.71,0.04,0,0.71
1697353166.06,0.23,0.03,0.82,-1.4,-5,4.5,0.71,0.04,0,0.71
1697353166.07,0.23,0.03,0.82,-1.4,-5,4.5,0.71,0.04,0,0.71
1697353166.08,0.23,0.03,0.82,-1.4,-5,4.5,0.71,0.04,0,0.71
1697353166.09,0.23,0.03,0.82,-1.4,-5,4.5,0.71,0.04,0,0.71
1697353166.1,0.23,0.03,0.82,-1.4,-5,4.5,0.71,0.04,0,0.71
1697353166.11,0.23,0.03,0.82,-1.4,-5,4.5,0.71,0.04,0,0.71
1697353166.12,0.01,0.11,1.22,-1.3,0.1,3.6,0.7,0.04,-0,0.71
1697353166.13,0.28,0.17,0.93,1.6,0.2,3.9,0.7,0.04,-0,0.71
1697353166.14,0.24,-0.04,1.03,2.1,0,4,0.7,0.04,-0,0.71
1697353166.15,0.19,-0.03,0.83,1.8,-0.3,3.6,0.7,0.04,-0,0.71
1697353166.16,0.11,-0.01,1.12,0.3,-0.2,3.7,0.7,0.04,-0,0.71
1697353166.17,0.1,0.1,1.06,-1.5,-0.3,3.7,0.7,0.04,-0,0.71
1697353166.18,0.18,0.17,0.84,-1.7,-0.9,3.4,0.7,0.04,-0,0.71
1697353166.19,0.06,0.14,1.14,0,-1.3,3.7,0.7,0.04,-0,0.71
1697353166.2,0.06,0.14,1.14,0,-1.3,3.7,0.7,0.04,-0,0.71
1697353166.21,0.01,-0.08,1.15,1.1,-2.2,4.1,0.7,0.04,-0,0.71
1697353166.22,0.04,-0.03,1.05,0,-2.3,3.5,0.7,0.04,-0,0.71
1697353166.23,0.04,-0.03,1.05,0,-2.3,3.5,0.7,0.04,-0,0.71
1697353166.24,-0.23,0.07,1.22,-1.4,-1.9,3.1,0.7,0.04,-0,0.71
1697353166.25,-0.23,0.07,1.22,-2.5,-1.3,2.8,0.7,0.04,-0,0.71
1697353166.26,-0.19,-0.09,1.17,1.6,1.6,2.2,0.7,0.04,-0,0.71
1697353166.27,0,-0.19,0.84,1.6,1.6,2.2,0.7,0.04,-0,0.71
1697353166.28,0,-0.19,0.84,2.6,2.6,1.4,0.7,0.04,-0,0.71
1697353166.29,-0.1,-0.18,1.14,1.1,3.3,0.4,0.7,0.04,-0,0.71
1697353166.3,0.03,-0.08,0.77,-1.1,4.1,-0.3,0.7,0.04,-0,0.71
1697353166.31,0.04,-0.03,0.82,-2,4.5,-1.5,0.7,0.04,-0,0.71
1697353166.32,0,0,0.99,-2.1,4.7,-2.2,0.7,0.04,-0,0.71
1697353166.33,-0.09,-0.03,1.08,-0.4,3.9,-2.4,0.7,0.03,-0,0.71
1697353166.34,-0.14,-0.19,1.26,0.3,2.7,-2.3,0.7,0.03,-0,0.71
1697353166.35,-0.14,-0.19,1.26,0.3,2.7,-2.3,0.7,0.03,-0,0.71
1697353166.36,-0.1,-0.16,1.16,-0.2,2.1,-3.7,0.7,0.03,-0,0.71
1697353166.37,-0.09,-0.07,0.97,-2.1,1,-3.4,0.7,0.03,-0,0.71
1697353166.38,-0.23,-0,0.89,-1.4,0.2,-3.6,0.7,0.03,-0,0.71
1697353166.39,-0.44,-0.05,0.73,1.1,0.1,-3.6,0.7,0.03,-0,0.71
1697353166.4,-0.64,-0.27,1.3,2.8,0.8,-3.2,0.7,0.03,-0,0.71
1697353166.41,-0.4,-0.09,0.69,2,1.7,-3,0.7,0.03,-0,0.71
1697353166.42,-0.15,-0.2,0.97,0.2,2.2,-2.6,0.7,0.03,-0,0.71
1697353166.43,-0.15,-0.2,0.97,0.2,2.2,-2.6,0.7,0.03,0,0.71
1697353166.44,0.13,0.02,1.13,-1.3,0.5,-2,0.7,0.03,0,0.71
1697353166.45,-0.06,0.04,0.81,-1.3,0.5,-2,0.7,0.03,0,0.71
1697353166.46,-0.02,-0.07,1.02,3.2,-1,-1.2,0.7,0.03,0,0.71
1697353166.47,0.01,0.03,0.82,3.3,-0.8,-1.6,0.7,0.03,0,0.71
1697353166.48,0.03,-0.17,1.11,1.2,-0.7,-1.5,0.7,0.03,0,0.71
1697353166.49,-0.13,-0.07,1.4,-1.3,-1,-1.9,0.7,0.03,0,0.71
1697353166.5,-0.1,0.13,1.02,-2.7,-1.5,-2.2,0.7,0.03,0,0.71
1697353166.51,-0.07,0.14,0.9,-0.9,-1.5,-1.8,0.7,0.03,0,0.71
1697353166.52,-0.07,0.14,0.9,-0.9,-1.5,-1.8,0.7,0.03,0,0.71
1697353166.53,-0.07,0.14,0.9,-0.9,-1.5,-1.8,0.7,0.03,0,0.71
1697353166.54,-0.07,0.14,0.9,-0.9,-1.5,-1.8,0.7,0.03,0,0.71
1697353166.55,-0.07,0.14,0.9,-0.9,-1.5,-1.8,0.7,0.03,0,0.71
1697353166.56,-0.07,0.14,0.9,-0.9,-1.5,-1.8,0.7,0.03,0,0.71
1697353166.57,-0.07,0.14,0.9,-0.9,-1.5,-1.8,0.7,0.03,0,0.71
1697353166.58,-0.07,0.14,0.9,-0.9,-1.5,-1.8,0.7,0.03,0,0.71
1697353166.59,-0.07,0.14,0.9,-0.9,-1.5,-1.8,0.7,0.03,0,0.71
1697353166.6,-0.07,0.14,0.9,-0.9,-1.5,-1.8,0.7,0.03,0,0.71
1697353166.61,-0.07,0.14,0.9,-0.9,-1.5,-1.8,0.7,0.03,0,0.71
1697353166.62,-0.07,0.14,0.9,-0.9,-1.5,-1.8,0.7,0.03,0,0.71
1697353166.63,-0.07,0.14,0.9,-0.9,-1.5,-1.8,0.7,0.03,0,0.71
1697353166.64,-0.07,0.14,0.9,-0.9,-1.5,-1.8,0.7,0.03,0,0.71
1697353166.65,-0.07,0.14,0.9,-0.9,-1.5,-1.8,0.7,0.03,0,0.71
1697353166.66,-0.07,0.14,0.9,-0.9,-1.5,-1.8,0.7,0.03,0,0.71
1697353166.67,-0.07,0.14,0.9,-0.9,-1.5,-1.8,0.7,0.03,0,0.71
1697353166.68,-0.07,0.14,0.9,-0.9,-1.5,-1.8,0.7,0.03,0,0.71
1697353166.69,-0.07,0.14,0.9,-0.9,-1.5,-1.8,0.7,0.03,0,0.71
1697353166.7,-0.07,0.14,0.9,-0.9,-1.5,-1.8,0.7,0.03,0,0.71
1697353166.71,-0.07,0.14,0.9,-0.9,-1.5,-1.8,0.7,0.03,0,0.71
1697353166.72,-0.07,0.14,0.9,-0.9,-1.5,-1.8,0.7,0.03,0,0.71
1697353166.73,-0.07,0.14,0.9,-0.9,-1.5,-1.8,0.7,0.03,0,0.71
1697353166.74,-0.07,0.14,0.9,-0.9,-1.5,-1.8,0.7,0.03,0,0.71
1697353166.75,-0.07,0.14,0.9,-0.9,-1.5,-1.8,0.7,0.03,0,0.71
1697353166.76,-0.07,0.14,0.9,-0.9,-1.5,-1.8,0.7,0.03,0,0.71
1697353166.77,-0.07,0.14,0.9,-0.9,-1.5,-1.8,0.7,0.03,0,0.71
1697353166.78,-0.07,0.14,0.9,-0.9,-1.5,-1.8,0.7,0.03,0,0.71
1697353166.79,-0.19,-0.12,1.34,-0.9,-1.3,-2.1,0.71,0.03,0,0.71
1697353166.8,-0.22,-0.01,1.2,-1.4,-0.3,-1.9,0.71,0.03,0,0.71
1697353166.81,0,-0.05,0.83,-0.9,0.3,-2,0.71,0.03,0,0.71
1697353166.82,-0.07,-0,0.96,-0.1,1.1,-2,0.71,0.03,0,0.71
1697353166.83,-0.12,0.04,0.95,-0.1,1.1,-2,0.71,0.03,0,0.71
1697353166.84,0.03,-0.01,0.84,3,0.9,-1.8,0.71,0.03,0,0.71
1697353166.85,0.03,-0.01,0.84,3,0.9,-1.8,0.71,0.03,0,0.71
1697353166.86,-0.26,-0.14,1.03,0.6,0,-2.1,0.71,0.03,0,0.71
1697353166.87,-0.26,-0.14,1.03,0.6,0,-2.1,0.71,0.03,0,0.71
1697353166.88,-0.27,0.06,1.17,-1.4,-0.2,-1.6,0.71,0.03,0,0.71
1697353166.89,-0.27,0.06,1.17,-1.4,-0.2,-1.6,0.71,0.03,0,0.71
1697353166.9,-0.14,0.04,0.95,0.2,-0.1,-0.8,0.71,0.03,0,0.71
1697353166.91,-0.15,0.02,0.86,0.2,-0.1,-0.8,0.71,0.03,0,0.71
1697353166.92,-0.15,0.02,0.86,1.7,0,-0.6,0.71,0.03,0,0.71
1697353166.93,-0.13,-0.11,0.92,1.2,0.5,-0.1,0.71,0.03,0,0.71
1697353166.94,-0.03,-0.01,1.14,-2.4,0.9,-0.3,0.71,0.03,0,0.71
1697353166.95,-0.03,-0.01,1.14,-2.4,0.9,-0.3,0.71,0.03,0,0.71
1697353166.96,-0.04,0.16,0.94,-1.2,2.7,-0.5,0.71,0.03,0,0.71
1697353166.97,-0.04,0.16,0.94,-1.2,2.7,-0.5,0.71,0.03,0,0.71
1697353166.98,-0.13,0,0.82,2.5,3,-0.3,0.71,0.03,0,0.71
1697353166.99,-0.07,-0.07,1.14,3,2.6,-0.4,0.71,0.03,0,0.71
1697353167,-0.06,-0.09,0.99,1.7,2.2,-0.5,0.71,0.03,0,0.71
1697353167.01,-0.13,-0.04,1.26,-0.4,1.8,-0.6,0.71,0.03,0,0.71
1697353167.02,-0.08,0.04,1.18,-1.7,1.3,-0.6,0.71,0.03,0,0.71
1697353167.03,-0.14,0.09,1.05,-1.5,0.7,-0.4,0.71,0.03,0,0.71
1697353167.04,-0.29,0.07,1.2,0,0.7,-0.4,0.71,0.03,0,0.71
1697353167.05,-0.17,-0.05,0.98,1.4,0.9,0,0.71,0.03,0,0.71
1697353167.06,-0.11,-0.1,0.9,1.2,1.3,-0.1,0.71,0.03,0,0.71
1697353167.07,-0.3,-0.03,1.09,-0.6,2.4,-0.3,0.71,0.03,0,0.71
1697353167.08,-0.29,-0.01,0.99,-2.6,3,-0.1,0.71,0.03,0,0.71
1697353167.09,-0.26,0.03,0.66,-2.4,3.1,-0.3,0.71,0.03,0,0.71
1697353167.1,-0.18,0.14,0.92,-2.3,3.6,-0.7,0.71,0.03,0,0.71
1697353167.11,-0.03,0.18,1.26,-1.6,3.3,0,0.71,0.03,0,0.71
1697353167.12,-0.08,0.01,1.03,0.8,1.5,0.7,0.71,0.03,0,0.71
1697353167.13,-0.05,-0.18,0.71,3.6,0,0.3,0.71,0.03,0,0.71
1697353167.14,-0.12,-0.19,0.9,2.5,-0.8,-0.5,0.71,0.03,0,0.71
1697353167.15,-0.16,-0.06,0.82,-0.3,-1.4,0,0.71,0.03,0,0.71
1697353167.16,-0.16,0.02,0.86,-1.3,-1.8,0.1,0.71,0.03,0,0.71
1697353167.17,-0.16,-0.06,0.83,-0.2,-0.9,-0.3,0.71,0.03,0,0.71
1697353167.18,-0.16,-0.06,0.83,-0.2,-0.9,-0.3,0.71,0.03,0,0.71
1697353167.19,-0.16,-0.06,0.83,-0.2,-0.9,-0.3,0.71,0.03,0,0.71
1697353167.2,-0.16,-0.06,0.83,-0.2,-0.9,-0.3,0.71,0.03,0,0.71
1697353167.21,-0.16,-0.06,0.83,-0.2,-0.9,-0.3,0.71,0.03,0,0.71
1697353167.22,-0.16,-0.06,0.83,-0.2,-0.9,-0.3,0.71,0.03,0,0.71
1697353167.23,-0.16,-0.06,0.83,-0.2,-0.9,-0.3,0.71,0.03,0,0.71
1697353167.24,-0.16,-0.06,0.83,-0.2,-0.9,-0.3,0.71,0.03,0,0.71
1697353167.25,-0.16,-0.06,0.83,-0.2,-0.9,-0.3,0.71,0.03,0,0.71
1697353167.26,-0.16,-0.06,0.83,-0.2,-0.9,-0.3,0.71,0.03,0,0.71
1697353167.27,-0.16,-0.06,0.83,-0.2,-0.9,-0.3,0.71,0.03,0,0.71
1697353167.28,-0.16,-0.06,0.83,-0.2,-0.9,-0.3,0.71,0.03,0,0.71
1697353167.29,-0.16,-0.06,0.83,-0.2,-0.9,-0.3,0.71,0.03,0,0.71
1697353167.3,-0.16,-0.06,0.83,-0.2,-0.9,-0.3,0.71,0.03,0,0.71
1697353167.31,-0.16,-0.06,0.83,-0.2,-0.9,-0.3,0.71,0.03,0,0.71
1697353167.32,-0.16,-0.06,0.83,-0.2,-0.9,-0.3,0.71,0.03,0,0.71
1697353167.33,-0.16,-0.06,0.83,-0.2,-0.9,-0.3,0.71,0.03,0,0.71
1697353167.34,-0.16,-0.06,0.83,-0.2,-0.9,-0.3,0.71,0.03,0,0.71
1697353167.35,-0.16,-0.06,0.83,-0.2,-0.9,-0.3,0.71,0.03,0,0.71
1697353167.36,-0.16,-0.06,0.83,-0.2,-0.9,-0.3,0.71,0.03,0,0.71
1697353167.37,-0.16,-0.06,0.83,-0.2,-0.9,-0.3,0.71,0.03,0,0.71
1697353167.38,-0.16,-0.06,0.83,-0.2,-0.9,-0.3,0.71,0.03,0,0.71
1697353167.39,-0.16,-0.06,0.83,-0.2,-0.9,-0.3,0.71,0.03,0,0.71
1697353167.4,-0.16,-0.06,0.83,-0.2,-0.9,-0.3,0.71,0.03,0,0.71
1697353167.41,-0.16,-0.06,0.83,-0.2,-0.9,-0.3,0.71,0.03,0,0.71
1697353167.42,-0.4,0.23,1.26,-0.3,1.3,1.9,0.71,0.03,0,0.71
1697353167.43,-0.35,0.05,0.95,0.2,0.5,1.9,0.71,0.03,0,0.71
1697353167.44,-0.32,-0.05,1.04,0.2,0,1.7,0.71,0.03,0,0.71
1697353167.45,-0.03,-0.05,0.88,-1.1,-0.4,1.6,0.71,0.03,0,0.71
1697353167.46,-0.3,-0.04,1.33,-1.9,-0.4,1.9,0.71,0.03,0,0.71
1697353167.47,-0.35,0.01,1.14,-1.1,-0.7,2.1,0.71,0.03,0,0.71
1697353167.48,-0.23,0.01,0.91,-0.3,-0.8,2.3,0.71,0.03,0,0.71
1697353167.49,-0.09,-0.02,0.96,0.1,-1,2.6,0.71,0.03,0,0.71
1697353167.5,-0.29,-0.01,1.06,0.1,-1,2.6,0.71,0.03,0,0.71
1697353167.51,-0.2,0.06,0.86,0,-0.2,3.2,0.7,0.03,0,0.71
1697353167.52,-0.2,0.06,0.86,0,-0.2,3.2,0.7,0.03,0,0.71
1697353167.53,-0.39,-0.04,1.21,0.1,0.6,2.9,0.7,0.03,0,0.71
1697353167.54,-0.29,-0.08,1,0.1,0.6,2.9,0.7,0.03,0,0.71
1697353167.55,-0.11,0.06,1,-1.6,0.5,2.8,0.7,0.03,0,0.71
1697353167.56,-0.38,0.08,1.01,-1.6,0.5,2.8,0.7,0.03,0,0.71
1697353167.57,-0.55,0.08,1.44,0,0.9,2.6,0.7,0.03,0,0.71
1697353167.58,-0.55,0.08,1.44,0,0.9,2.6,0.7,0.03,0,0.71
1697353167.59,-0.25,-0.03,1.17,0.9,-0.3,2.7,0.7,0.03,0,0.71
1697353167.6,-0.25,0.06,1.21,0.9,-0.3,2.7,0.7,0.03,0,0.71
1697353167.61,-0.25,0.06,1.21,-1.3,-1.2,2.1,0.7,0.03,0,0.71
1697353167.62,-0.27,-0,1.26,-0.8,-1.1,2.3,0.7,0.03,0,0.71
1697353167.63,-0.27,-0,1.26,0,-0.4,2.1,0.7,0.03,0,0.71
1697353167.64,-0.31,-0.02,1.14,0,0,1.6,0.7,0.03,0,0.71
1697353167.65,-0.28,-0.05,0.93,-0.7,0.7,1.3,0.7,0.03,0,0.71
1697353167.66,-0.28,-0.05,0.93,-1.1,1,1,0.7,0.03,0,0.71
1697353167.67,-0.26,0.05,0.96,-1,1.1,0.6,0.7,0.03,0,0.71
1697353167.68,-0.09,0.01,0.89,-0.6,0.9,0.6,0.7,0.03,0,0.71
1697353167.69,0.05,0.05,0.47,-0.8,0.8,0.5,0.7,0.03,0,0.71
1697353167.7,-0.3,0.06,1.34,-0.8,0.8,0.5,0.7,0.03,0,0.71
1697353167.71,-0.11,0.01,0.91,0.2,0.4,0.4,0.7,0.03,0,0.71
1697353167.72,-0.18,-0,1.18,1,0.2,0.5,0.7,0.03,0,0.71
1697353167.73,-0.2,-0.05,1.2,0.4,0,0.9,0.7,0.03,0,0.71
1697353167.74,-0.02,-0.06,0.99,0.8,0,0.6,0.7,0.03,0,0.71
1697353167.75,-0.12,-0.12,1.02,0,0.1,0.5,0.7,0.03,0,0.71
1697353167.76,0.02,-0.1,0.94,-1.5,0.1,0.4,0.7,0.03,0,0.71
1697353167.77,-0.21,0.13,1.3,-0.6,0,0.7,0.7,0.03,0,0.71
1697353167.78,-0.01,0.08,0.58,2,0,0.9,0.7,0.03,0,0.71
1697353167.79,-0.1,-0.02,0.92,3.2,0.9,0.7,0.7,0.03,0,0.71
1697353167.8,-0.15,-0.02,1.07,2.9,1.7,0.4,0.7,0.03,0,0.71
1697353167.81,-0.2,-0.12,1.31,2.4,2,0.4,0.7,0.03,0,0.71
1697353167.82,-0.2,-0.12,1.31,2.4,2,0.4,0.7,0.03,0,0.71
1697353167.83,-0.2,-0.12,1.31,2.4,2,0.4,0.7,0.03,0,0.71
1697353167.84,-0.2,-0.12,1.31,2.4,2,0.4,0.7,0.03,0,0.71
1697353167.85,-0.2,-0.12,1.31,2.4,2,0.4,0.7,0.03,0,0.71
1697353167.86,-0.2,-0.12,1.31,2.4,2,0.4,0.7,0.03,0,0.71
1697353167.87,-0.2,-0.12,1.31,2.4,2,0.4,0.7,0.03,0,0.71
1697353167.88,-0.2,-0.12,1.31,2.4,2,0.4,0.7,0.03,0,0.71
1697353167.89,-0.2,-0.12,1.31,2.4,2,0.4,0.7,0.03,0,0.71
1697353167.9,-0.2,-0.12,1.31,2.4,2,0.4,0.7,0.03,0,0.71
1697353167.91,-0.2,-0.12,1.31,2.4,2,0.4,0.7,0.03,0,0.71
1697353167.92,-0.2,-0.12,1.31,2.4,2,0.4,0.7,0.03,0,0.71
1697353167.93,-0.2,-0.12,1.31,2.4,2,0.4,0.7,0.03,0,0.71
1697353167.94,-0.2,-0.12,1.31,2.4,2,0.4,0.7,0.03,0,0.71
1697353167.95,-0.16,-0.09,1.25,3.2,1.7,1.1,0.7,0.03,0,0.71
1697353167.96,0.13,-0.13,0.65,3.2,1.7,1.1,0.7,0.03,0,0.71
1697353167.97,-0.2,0,1.19,-0.6,0.1,0.4,0.7,0.03,0,0.71
1697353167.98,-0.2,0,1.19,-0.6,0.1,0.4,0.7,0.03,0,0.71
1697353167.99,-0.08,0.1,1.1,-2.4,-0.9,0.4,0.7,0.03,0,0.71
1697353168,-0.04,0.14,0.82,-2.6,-1.3,0.6,0.7,0.03,0,0.71
1697353168.01,-0.28,0.06,1.1,-0.4,-1.3,1,0.7,0.03,0,0.71
1697353168.02,-0.28,0.06,1.1,0.3,-1,1,0.7,0.03,0,0.71
1697353168.03,-0.03,-0.05,0.97,0.2,-0.4,1,0.7,0.03,0,0.71
1697353168.04,0.01,-0.06,0.56,0,0.7,1,0.7,0.03,0,0.71
1697353168.05,-0.3,0.03,1.57,-2,1.4,1,0.7,0.03,0,0.71
1697353168.06,-0.02,0.03,1.03,-2.4,2.4,0.9,0.7,0.03,0,0.71
1697353168.07,-0.15,0.07,1.26,-1.2,2.7,0.9,0.7,0.03,0,0.71
1697353168.08,-0.08,0.03,1.13,2.2,1.8,0.7,0.7,0.03,0,0.71
1697353168.09,0.02,-0,0.67,2.6,0.5,1,0.7,0.03,0,0.71
1697353168.1,-0.21,-0.11,1.1,2,0,1.1,0.7,0.03,0,0.71
1697353168.11,-0.02,-0.1,0.72,-0.2,-0.5,0.9,0.7,0.03,0,0.71
1697353168.12,-0.16,0.05,0.94,-0.7,-0.4,0.8,0.7,0.03,0,0.71
1697353168.13,-0.18,0.01,1.21,-0.9,-0.2,0.8,0.7,0.03,0,0.71
1697353168.14,0.09,0.08,0.42,-0.9,0.4,0.9,0.7,0.03,0,0.71
1697353168.15,-0.25,0.1,1.44,-0.4,0.9,1.1,0.7,0.03,0,0.71
1697353168.16,-0.07,0.04,0.92,0.9,1.3,1.3,0.7,0.03,0,0.71
1697353168.17,-0.05,-0.1,1.18,1.4,1.7,1.3,0.7,0.03,0,0.71
1697353168.18,-0,0.05,0.57,-0.1,1.9,1.2,0.7,0.03,0,0.71
1697353168.19,-0.18,-0.04,1.42,-1,1.7,1.2,0.7,0.03,0,0.71
1697353168.2,0.11,0.04,0.63,-1.3,1.2,1.1,0.7,0.03,0,0.71
1697353168.21,-0.24,0.15,1.27,-0.8,0.8,1.1,0.7,0.03,0,0.71
1697353168.22,-0.04,0.07,0.93,0.6,0.1,1.4,0.7,0.03,0,0.71
1697353168.23,-0.1,-0.03,0.87,2.6,-0.1,1.5,0.7,0.03,0,0.71
1697353168.24,-0.09,-0.11,1.27,2.6,-0.1,1.5,0.7,0.03,0,0.71
1697353168.25,-0.09,-0.11,1.27,3.1,-0.7,1.4,0.7,0.03,0,0.71
1697353168.26,-0.29,-0.02,1.51,-2.1,-1.1,1.4,0.7,0.03,0,0.71
1697353168.27,-0.02,0.06,0.82,-1.9,-0.2,1.5,0.7,0.03,0,0.71
1697353168.28,-0.19,0.13,0.84,-0.4,0.1,1.4,0.7,0.03,0,0.71
1697353168.29,-0.16,0.11,0.97,0.4,1,1.4,0.7,0.03,0,0.71
1697353168.3,-0.12,0.03,1.2,0.2,0.9,1.6,0.7,0.03,0,0.71
1697353168.31,0.04,0.07,0.43,0.2,0.4,1.6,0.7,0.03,0,0.71
1697353168.32,-0.2,0.04,1.6,-0.1,0.3,1.5,0.7,0.03,0,0.71
1697353168.33,-0.2,0.04,1.6,-0.1,0.3,1.5,0.7,0.03,0,0.71
1697353168.34,-0.16,0.07,1.11,-0.2,0,1.5,0.7,0.03,0,0.71
1697353168.35,-0.16,0.07,1.11,-0.2,0,1.5,0.7,0.03,0,0.71
1697353168.36,-0.16,0.07,1.11,-0.2,0,1.5,0.7,0.03,0,0.71
1697353168.37,-0.16,0.07,1.11,-0.2,0,1.5,0.7,0.03,0,0.71
1697353168.38,-0.16,0.07,1.11,-0.2,0,1.5,0.7,0.03,0,0.71
1697353168.39,-0.16,0.07,1.11,-0.2,0,1.5,0.7,0.03,0,0.71
1697353168.4,-0.16,0.07,1.11,-0.2,0,1.5,0.7,0.03,0,0.71
1697353168.41,-0.16,0.07,1.11,-0.2,0,1.5,0.7,0.03,0,0.71
1697353168.42,-0.16,0.07,1.11,-0.2,0,1.5,0.7,0.03,0,0.71
1697353168.43,-0.16,0.07,1.11,-0.2,0,1.5,0.7,0.03,0,0.71
1697353168.44,-0.16,0.07,1.11,-0.2,0,1.5,0.7,0.03,0,0.71
1697353168.45,-0.16,0.07,1.11,-0.2,0,1.5,0.7,0.03,0,0.71
1697353168.46,-0.16,0.07,1.11,-0.2,0,1.5,0.7,0.03,0,0.71
1697353168.47,-0.16,0.07,1.11,-0.2,0,1.5,0.7,0.03,0,0.71
1697353168.48,-0.09,0.39,0.5,1.9,0.5,7.4,0.7,0.03,0,0.72
1697353168.49,-0.06,0.39,1.44,2.6,-0.1,10.8,0.69,0.03,0,0.72
1697353168.5,0.06,0.38,0.26,2.7,-0.3,12.6,0.69,0.03,0,0.72
1697353168.51,-0.1,0.42,1.32,2.8,-0.8,14.2,0.69,0.03,0,0.72
1697353168.52,-0.02,0.37,0.59,2,-0.9,15.4,0.69,0.03,0,0.72
1697353168.53,-0.16,0.31,0.81,2,-0.9,15.4,0.69,0.03,0,0.72
1697353168.54,-0.21,0.45,1.35,-1.4,-0.4,18,0.69,0.03,0,0.72
1697353168.55,-0.21,0.45,1.35,-1.4,-0.4,18,0.69,0.03,0,0.72
1697353168.56,-0.12,0.51,0.92,-0.4,0,19.2,0.69,0.03,0,0.72
1697353168.57,-0.24,0.56,1.42,2.1,0.2,20.5,0.69,0.03,0,0.73
1697353168.58,-0.06,0.42,0.95,3.9,0.6,22.9,0.69,0.03,0,0.73
1697353168.59,-0.11,0.4,1.02,3.9,0.6,22.9,0.68,0.03,0,0.73
1697353168.6,-0.08,0.44,1.1,1.3,1,23.9,0.68,0.03,0,0.73
1697353168.61,-0.12,0.57,0.88,-0.3,1,24.5,0.68,0.03,0,0.73
1697353168.62,-0.1,0.5,1.21,-0.1,0.9,25,0.68,0.03,0,0.73
1697353168.63,-0.02,0.55,0.52,0.5,0.1,25.6,0.68,0.03,0,0.73
1697353168.64,-0.14,0.46,1.27,1.3,-0.8,25.5,0.68,0.03,0,0.74
1697353168.65,-0,0.47,0.52,1,-1.6,25.6,0.67,0.03,0,0.74
1697353168.66,-0.06,0.37,1.14,0.5,-1.6,25.4,0.67,0.03,0,0.74
1697353168.67,-0.15,0.4,1.4,-0.8,-1.5,25.1,0.67,0.03,0,0.74
1697353168.68,-0.17,0.49,0.78,-1.9,-0.9,24.8,0.67,0.03,0,0.74
1697353168.69,-0.27,0.42,1.25,-1.5,-0.1,24.6,0.67,0.03,0,0.74
1697353168.7,-0.15,0.49,0.69,-0.8,0.8,24.3,0.67,0.03,0,0.74
1697353168.71,-0.19,0.44,1.46,-1,1.3,24.2,0.67,0.03,0,0.75
1697353168.72,-0.19,0.44,1.46,-1,1.3,24.2,0.66,0.03,0,0.75
1697353168.73,-0.06,0.42,1.18,-1.1,1.6,24.2,0.66,0.03,0,0.75
1697353168.74,-0.02,0.33,1.17,-1.5,1.6,24.5,0.66,0.03,0,0.75
1697353168.75,-0.02,0.33,1.17,-1.1,1.6,24.6,0.66,0.03,0,0.75
1697353168.76,0.03,0.44,0.88,-1.1,0.8,24.7,0.66,0.03,0,0.75
1697353168.77,-0.09,0.4,1.21,-0.9,-0.1,25,0.66,0.03,0,0.75
1697353168.78,0.01,0.32,0.57,-0.2,-0.7,25,0.65,0.03,0,0.76
1697353168.79,-0.05,0.23,1.15,-0.2,-0.7,24.5,0.65,0.03,0,0.76
1697353168.8,-0.14,0.34,0.71,-0.8,-0.8,23.8,0.65,0.03,0,0.76
1697353168.81,-0.05,0.28,0.93,-1.7,-0.4,23.4,0.65,0.03,0,0.76
1697353168.82,-0.05,0.35,0.79,-0.8,-0.5,22.6,0.65,0.03,0,0.76
1697353168.83,-0.07,0.29,1.34,-0.5,-0.4,22.1,0.65,0.03,0,0.76
1697353168.84,-0.06,0.35,1.01,-0.6,-0.7,21.6,0.64,0.03,0,0.76
1697353168.85,-0.16,0.44,1.07,-1.6,-1.3,21.5,0.64,0.03,0,0.77
1697353168.86,-0.16,0.45,0.94,-1.9,-1.9,21.7,0.64,0.03,0,0.77
1697353168.87,-0.16,0.45,0.94,-1.9,-1.9,21.7,0.64,0.03,0,0.77
1697353168.88,-0.16,0.45,0.94,-1.9,-1.9,21.7,0.64,0.03,0,0.77
1697353168.89,-0.16,0.45,0.94,-1.9,-1.9,21.7,0.64,0.03,0,0.77
1697353168.9,-0.16,0.45,0.94,-1.9,-1.9,21.7,0.64,0.03,0,0.77
1697353168.91,-0.16,0.45,0.94,-1.9,-1.9,21.7,0.64,0.03,0,0.77
1697353168.92,-0.16,0.45,0.94,-1.9,-1.9,21.7,0.64,0.03,0,0.77
1697353168.93,-0.16,0.45,0.94,-1.9,-1.9,21.7,0.64,0.03,0,0.77
1697353168.94,-0.16,0.45,0.94,-1.9,-1.9,21.7,0.64,0.03,0,0.77
1697353168.95,-0.16,0.45,0.94,-1.9,-1.9,21.7,0.64,0.03,0,0.77
1697353168.96,-0.16,0.45,0.94,-1.9,-1.9,21.7,0.64,0.03,0,0.77
1697353168.97,-0.16,0.45,0.94,-1.9,-1.9,21.7,0.64,0.03,0,0.77
1697353168.98,-0.16,0.45,0.94,-1.9,-1.9,21.7,0.64,0.03,0,0.77
1697353168.99,-0.07,0.43,0.37,-1.9,-1.9,21.7,0.64,0.03,0,0.77
1697353169,-0.13,0.43,0.8,-1.3,-1.7,22.3,0.62,0.03,0,0.78
1697353169.01,-0.1,0.41,1.33,-1.2,-0.9,22.5,0.62,0.03,0,0.78
1697353169.02,-0.12,0.44,0.76,-1.2,0.3,23,0.62,0.03,-0,0.79
1697353169.03,-0.14,0.44,1.34,-0.2,2.2,23.5,0.62,0.03,-0,0.79
1697353169.04,-0.1,0.44,0.8,0.8,2.7,23.8,0.61,0.03,-0,0.79
1697353169.05,-0.16,0.37,1.33,2.2,2.7,23.7,0.61,0.03,-0,0.79
1697353169.06,-0.12,0.25,1.11,1.5,2.3,23.7,0.61,0.03,0,0.79
1697353169.07,-0.02,0.33,0.93,0.3,1.1,23.6,0.61,0.03,0,0.79
1697353169.08,-0.1,0.3,1.1,0.3,1.1,23.6,0.61,0.03,0,0.79
1697353169.09,-0.1,0.3,1.1,-0.2,0.5,23.8,0.61,0.03,0,0.79
1697353169.1,-0.07,0.42,0.98,-0.1,0,23.7,0.6,0.03,0,0.8
1697353169.11,0.02,0.29,1.21,-0.3,-1.3,23.6,0.6,0.03,0,0.8
1697353169.12,0.02,0.4,1.01,-1.7,-3.1,23.3,0.6,0.03,-0,0.8
1697353169.13,0.02,0.4,1.01,-2.8,-4,23.8,0.6,0.03,-0,0.8
1697353169.14,-0.15,0.45,1.1,-1.2,-3.8,23.4,0.6,0.03,-0,0.8
1697353169.15,-0.2,0.33,1.34,0.2,-3.1,23,0.6,0.03,-0,0.8
1697353169.16,0.21,0.37,0.22,1.5,-2.8,22.1,0.59,0.03,-0,0.8
1697353169.17,-0.17,0.22,0.98,1.5,-2.3,22,0.59,0.03,-0,0.8
1697353169.18,-0.18,0.32,1.35,0.3,-2.3,22,0.59,0.03,-0,0.81
1697353169.19,0.07,0.37,0.52,0,-2.2,21.6,0.59,0.03,-0,0.81
1697353169.2,-0.11,0.32,1.43,-0.2,-1.6,21.5,0.59,0.03,-0,0.81
1697353169.21,0.08,0.36,1.28,0,-2,21.7,0.59,0.03,-0,0.81
1697353169.22,0.26,0.39,1.21,0.6,-2.8,22,0.58,0.03,-0,0.81
1697353169.23,0.13,0.28,1.32,0.9,-2.6,21.6,0.58,0.03,-0,0.81
1697353169.24,0.07,0.28,1.16,0.7,-2.4,21.4,0.58,0.03,-0,0.81
1697353169.25,-0.13,0.48,0.89,0,-0.4,21.6,0.58,0.03,-0,0.81
1697353169.26,-0.09,0.34,1.17,1.6,0.9,22.2,0.58,0.03,-0,0.82
1697353169.27,-0.25,0.32,1.29,3.4,2,22.4,0.58,0.03,-0,0.82
1697353169.28,-0.05,0.1,0.81,1.6,2.8,22.4,0.58,0.03,-0,0.82
1697353169.29,-0.17,0.1,1.66,-1.3,3.3,21.9,0.57,0.03,-0,0.82
1697353169.3,0.03,0.35,1.46,-1.3,3.3,21.9,0.57,0.03,-0,0.82
1697353169.31,0.03,0.35,1.46,-1.3,3.3,21.9,0.57,0.03,-0,0.82
1697353169.32,0.03,0.35,1.46,-1.3,3.3,21.9,0.57,0.03,-0,0.82
1697353169.33,0.03,0.35,1.46,-1.3,3.3,21.9,0.57,0.03,-0,0.82
1697353169.34,0.03,0.35,1.46,-1.3,3.3,21.9,0.57,0.03,-0,0.82
1697353169.35,0.03,0.35,1.46,-1.3,3.3,21.9,0.57,0.03,-0,0.82
1697353169.36,0.03,0.35,1.46,-1.3,3.3,21.9,0.57,0.03,-0,0.82
1697353169.37,0.03,0.35,1.46,-1.3,3.3,21.9,0.57,0.03,-0,0.82
1697353169.38,0.03,0.35,1.46,-1.3,3.3,21.9,0.57,0.03,-0,0.82
1697353169.39,0.03,0.35,1.46,-1.3,3.3,21.9,0.57,0.03,-0,0.82
1697353169.4,0.03,0.35,1.46,-1.3,3.3,21.9,0.57,0.03,-0,0.82
1697353169.41,0.03,0.35,1.46,-1.3,3.3,21.9,0.57,0.03,-0,0.82
1697353169.42,0.03,0.35,1.46,-1.3,3.3,21.9,0.57,0.03,-0,0.82
1697353169.43,0.03,0.35,1.46,-1.3,3.3,21.9,0.57,0.03,-0,0.82
1697353169.44,-0.22,-0.33,1.33,0.8,2.4,1.2,0.56,0.03,-0.01,0.83
1697353169.45,-0.22,-0.33,1.33,0.8,2.4,1.2,0.56,0.03,-0.01,0.83
1697353169.46,0.36,-0.43,0.59,0.4,1.8,-2.6,0.56,0.03,-0,0.83
1697353169.47,0.36,-0.43,0.59,0.4,1.8,-2.6,0.56,0.03,-0,0.83
1697353169.48,0.1,-0.36,1.32,-2.6,0.9,-4.5,0.56,0.03,-0,0.83
1697353169.49,0.28,-0.17,0.88,-3.7,0.2,-5.6,0.56,0.03,-0,0.83
1697353169.5,0.04,-0.05,0.8,-3.7,0.2,-5.6,0.56,0.03,-0,0.83
1697353169.51,0.06,-0.21,0.5,0,-0.6,-6,0.56,0.03,-0.01,0.83
1697353169.52,0.06,-0.21,0.5,1.2,-0.3,-6.5,0.56,0.03,-0.01,0.83
1697353169.53,-0.11,-0.26,1.57,0.2,0,-7.2,0.56,0.03,-0.01,0.83
1697353169.54,-0.11,-0.32,0.52,-1.5,-0.3,-7.6,0.56,0.03,-0.01,0.83
1697353169.55,-0.08,-0.29,1.81,-2,-0.3,-8.7,0.56,0.03,-0.01,0.82
1697353169.56,-0.02,-0.29,0.68,-1.9,-0.2,-9.7,0.57,0.03,-0.01,0.82
1697353169.57,-0.18,-0.4,1.4,-1.3,0,-10.5,0.57,0.03,-0.01,0.82
1697353169.58,0.22,-0.37,0.35,-1.1,0.1,-11.5,0.57,0.03,-0.01,0.82
1697353169.59,-0.26,-0.55,1.75,-2.1,0.1,-12.7,0.57,0.03,-0.01,0.82
1697353169.6,0.17,-0.38,0.62,-3,0,-14.5,0.57,0.03,-0.01,0.82
1697353169.61,0.06,-0.5,1.08,-3,-0.1,-15.8,0.57,0.03,-0.01,0.82
1697353169.62,0.08,-0.48,0.6,-2.4,-0.4,-17.1,0.57,0.03,-0.01,0.82
1697353169.63,0.09,-0.53,1.25,-1.9,-0.5,-18.4,0.57,0.03,-0.01,0.82
1697353169.64,0.03,-0.64,0.78,-2.1,-1.2,-20.3,0.57,0.03,-0.01,0.82
1697353169.65,0.09,-0.57,0.95,-2.2,-1.4,-22.1,0.57,0.03,-0.01,0.82
1697353169.66,-0.22,-0.79,0.78,-3.1,-1.2,-24.1,0.58,0.03,-0.01,0.82
1697353169.67,-0.14,-0.72,1.1,-3.6,-0.8,-26.8,0.58,0.03,-0.01,0.82
1697353169.68,-0.21,-0.71,1.16,-5.4,-0.5,-28.9,0.58,0.03,-0.01,0.81
1697353169.69,0.04,-0.6,0.39,-6.1,-0.2,-30.7,0.58,0.03,-0.01,0.81
1697353169.7,-0.03,-0.46,0.41,-5.3,0.3,-32.8,0.58,0.03,-0.01,0.81
1697353169.71,-0.05,-0.68,1.41,-3.3,1.2,-33.7,0.59,0.03,-0.01,0.81
1697353169.72,0.14,-0.68,0.48,-1.2,0.9,-34.2,0.59,0.03,-0.01,0.81
1697353169.73,-0.13,-0.72,1.68,-1.5,1.2,-34.9,0.59,0.03,-0.01,0.81
1697353169.74,0.23,-0.84,0.57,-1.9,0.8,-35.2,0.59,0.03,-0.01,0.8
1697353169.75,0.23,-0.84,0.57,-1.9,0.8,-35.2,0.59,0.03,-0.01,0.8
1697353169.76,0.07,-0.79,1.27,-5.4,0.6,-37.2,0.6,0.03,-0.01,0.8
1697353169.77,0.07,-0.79,1.27,-5.4,0.6,-37.2,0.6,0.03,-0.01,0.8
1697353169.78,-0.17,-0.81,1.06,-3.4,0.1,-38.9,0.6,0.03,-0.01,0.8
1697353169.79,-0.17,-0.81,1.06,-3.4,0.1,-38.9,0.61,0.03,-0.01,0.79
1697353169.8,-0.1,-0.64,1.19,0.2,0.2,-40.5,0.61,0.03,-0.01,0.79
1697353169.81,-0.07,-0.89,1.13,2.1,0.6,-41.3,0.61,0.03,-0.01,0.79
1697353169.82,0.04,-0.96,0.63,1.8,1.2,-42.8,0.61,0.03,-0.01,0.79
1697353169.83,0.04,-0.96,0.63,1.8,1.2,-42.8,0.61,0.03,-0.01,0.79
1697353169.84,0.04,-0.96,0.63,1.8,1.2,-42.8,0.61,0.03,-0.01,0.79
1697353169.85,0.04,-0.96,0.63,1.8,1.2,-42.8,0.61,0.03,-0.01,0.79
1697353169.86,0.04,-0.96,0.63,1.8,1.2,-42.8,0.61,0.03,-0.01,0.79
1697353169.87,0.04,-0.96,0.63,1.8,1.2,-42.8,0.61,0.03,-0.01,0.79
1697353169.88,0.04,-0.96,0.63,1.8,1.2,-42.8,0.61,0.03,-0.01,0.79
1697353169.89,0.04,-0.96,0.63,1.8,1.2,-42.8,0.61,0.03,-0.01,0.79
1697353169.9,0.04,-0.96,0.63,1.8,1.2,-42.8,0.61,0.03,-0.01,0.79
1697353169.91,0.04,-0.96,0.63,1.8,1.2,-42.8,0.61,0.03,-0.01,0.79
1697353169.92,0.04,-0.96,0.63,1.8,1.2,-42.8,0.61,0.03,-0.01,0.79
1697353169.93,0.04,-0.96,0.63,1.8,1.2,-42.8,0.61,0.03,-0.01,0.79
1697353169.94,0.04,-0.96,0.63,1.8,1.2,-42.8,0.61,0.03,-0.01,0.79
1697353169.95,0.04,-0.96,0.63,1.8,0.8,-47.8,0.61,0.03,-0.01,0.79
1697353169.96,0.12,-0.8,0.9,-1.6,0.1,-47.8,0.66,0.02,-0.01,0.75
1697353169.97,-0.1,-0.63,1.1,-1.8,0.2,-47.6,0.66,0.02,-0.01,0.75
1697353169.98,-0.1,-0.63,1.1,-1.8,0.2,-47.6,0.66,0.02,-0.01,0.75
1697353169.99,0.02,-0.86,0.69,0.1,1.2,-46.9,0.67,0.02,-0.01,0.74
1697353170,0.02,-0.86,0.69,0.1,1.2,-46.9,0.67,0.02,-0.01,0.74
1697353170.01,-0.16,-0.79,1.05,-1.7,1.9,-47.3,0.67,0.02,-0.01,0.74
1697353170.02,-0.16,-0.79,1.05,-1.7,1.9,-47.3,0.67,0.02,-0.01,0.74
1697353170.03,-0.14,-0.87,1.3,-0.6,2,-47.7,0.68,0.02,-0.01,0.74
1697353170.04,-0.14,-0.87,1.3,-0.6,2,-47.7,0.68,0.02,-0.01,0.73
1697353170.05,-0.22,-0.91,1.42,0.5,1.3,-48.1,0.68,0.02,-0.01,0.73
1697353170.06,-0.22,-0.91,1.42,0.1,0.8,-48.5,0.68,0.02,-0.01,0.73
1697353170.07,-0.12,-0.88,1.41,-0.8,0,-48.9,0.69,0.02,-0.01,0.72
1697353170.08,0.03,-0.82,0.99,-1.2,-0.8,-49.4,0.69,0.02,-0.01,0.72
1697353170.09,0.02,-0.75,1.17,-0.3,-0.1,-49.7,0.7,0.02,-0.01,0.72
1697353170.1,-0.14,-0.76,0.89,-0.3,-0.1,-49.7,0.7,0.02,-0.01,0.71
1697353170.11,-0.03,-0.84,1.03,1.5,1,-49.5,0.7,0.02,-0.01,0.71
1697353170.12,-0.01,-0.8,0.91,1.5,1,-49.5,0.71,0.02,-0.01,0.71
1697353170.13,-0.01,-0.8,0.91,1.4,1.7,-49.9,0.71,0.02,-0.01,0.7
1697353170.14,-0.15,-0.93,1.15,1.4,1.8,-50,0.71,0.02,-0.01,0.7
1697353170.15,-0.15,-0.93,1.15,0.7,1.7,-50.4,0.71,0.02,-0.01,0.7
1697353170.16,-0.01,-0.86,1.25,-1.3,1.4,-50.6,0.72,0.02,-0,0.7
1697353170.17,-0.01,-0.86,1.25,-1.8,0.7,-50.6,0.72,0.02,-0,0.69
1697353170.18,0.07,-0.82,0.52,-1.3,0.1,-50.4,0.72,0.02,-0,0.69
1697353170.19,-0.08,-0.84,1.3,-0.9,-0.4,-50.3,0.73,0.02,-0,0.69
1697353170.2,0.05,-0.76,0.89,0.2,-0.7,-49.6,0.73,0.02,-0,0.68
1697353170.21,-0.12,-0.68,1.08,1.7,-0.5,-48.6,0.73,0.02,-0,0.68
1697353170.22,0.07,-0.72,0.94,3.3,0.3,-47.9,0.74,0.02,-0,0.68
1697353170.23,-0.22,-0.91,0.83,2.4,1.2,-48.2,0.74,0.02,-0,0.67
1697353170.24,-0.07,-1.05,1.36,-1.3,2.4,-48.7,0.74,0.02,-0,0.67
1697353170.25,-0.07,-0.84,0.76,-2.3,3.3,-48.7,0.74,0.02,-0,0.67
1697353170.26,-0.17,-0.63,0.95,-2.3,3.3,-48.7,0.75,0.02,-0,0.66
1697353170.27,-0.03,-0.71,1.06,1.1,4.1,-49.2,0.75,0.02,-0,0.66
1697353170.28,0.03,-1.02,0.98,4.8,4.4,-49.3,0.76,0.02,-0,0.65
1697353170.29,0.05,-1.06,0.94,0,2.4,-51.2,0.76,0.02,-0,0.65
1697353170.3,-0.06,-0.91,1.13,-2.3,1.9,-51.7,0.76,0.02,-0,0.65
1697353170.31,0.12,-0.75,0.9,-2.2,1.2,-51.8,0.76,0.02,-0,0.64
1697353170.32,0.07,-0.66,0.83,0.4,1.2,-51.7,0.77,0.02,-0,0.64
1697353170.33,-0.06,-0.78,0.93,1.2,1.1,-51.1,0.77,0.02,-0,0.64
1697353170.34,-0.06,-0.78,0.93,1.2,1.1,-51.1,0.77,0.02,-0,0.64
1697353170.35,0.14,-0.82,0.68,0.9,1.5,-50.8,0.77,0.02,-0,0.63
1697353170.36,0.14,-0.82,0.68,0.9,1.5,-50.8,0.77,0.02,-0,0.63
1697353170.37,0.14,-0.82,0.68,0.9,1.5,-50.8,0.77,0.02,-0,0.63
1697353170.38,0.14,-0.82,0.68,0.9,1.5,-50.8,0.77,0.02,-0,0.63
1697353170.39,0.14,-0.82,0.68,0.9,1.5,-50.8,0.77,0.02,-0,0.63
1697353170.4,0.14,-0.82,0.68,0.9,1.5,-50.8,0.77,0.02,-0,0.63
1697353170.41,0.14,-0.82,0.68,0.9,1.5,-50.8,0.77,0.02,-0,0.63
1697353170.42,0.14,-0.82,0.68,0.9,1.5,-50.8,0.77,0.02,-0,0.63
1697353170.43,0.14,-0.82,0.68,0.9,1.5,-50.8,0.77,0.02,-0,0.63
1697353170.44,0.14,-0.82,0.68,0.9,1.5,-50.8,0.77,0.02,-0,0.63
1697353170.45,0.14,-0.82,0.68,0.9,1.5,-50.8,0.77,0.02,-0,0.63
1697353170.46,0.14,-0.82,0.68,0.9,1.5,-50.8,0.77,0.02,-0,0.63
1697353170.47,-0.07,-0.84,0.88,0.9,1.5,-50.8,0.77,0.02,-0,0.63
1697353170.48,0.04,-0.56,0.95,0.6,0.7,-47.5,0.81,0.02,0,0.59
1697353170.49,-0.02,-0.38,1.02,-0.8,0,-46,0.81,0.02,0,0.58
1697353170.5,-0.09,-0.28,0.9,0.1,-0.7,-44,0.81,0.02,0,0.58
1697353170.51,0.07,-0.37,0.83,2.8,-0.8,-41.8,0.82,0.02,0,0.58
1697353170.52,-0.06,-0.44,0.9,3.3,-0.6,-39.6,0.82,0.02,0,0.58
1697353170.53,0.03,-0.54,0.54,1.8,-0.2,-37.7,0.82,0.02,0,0.57
1697353170.54,-0.07,-0.33,0.71,0,0.2,-35.5,0.82,0.02,0,0.57
1697353170.55,0.09,-0.35,1.11,0,0.2,-35.5,0.82,0.02,0,0.57
1697353170.56,-0.03,-0.21,0.68,2.2,2.1,-31.6,0.82,0.02,0.01,0.57
1697353170.57,0,-0.3,1.23,5.4,2.9,-29.5,0.83,0.02,0.01,0.56
1697353170.58,0.01,-0.43,1.03,6,3.7,-27.1,0.83,0.02,0.01,0.56
1697353170.59,-0.15,-0.27,1.04,4.2,4.1,-25.6,0.83,0.02,0.01,0.56
1697353170.6,0.07,-0.12,1.21,1.8,4,-23.7,0.83,0.02,0.01,0.56
1697353170.61,-0.14,0.16,1.15,4.8,2,-18.7,0.83,0.02,0.01,0.56
1697353170.62,0.2,0.26,0.96,8.7,0.3,-15.6,0.83,0.02,0.01,0.56
1697353170.63,-0.12,-0.02,1.5,8.7,-1.3,-13.2,0.83,0.02,0.01,0.55
1697353170.64,0.14,-0.05,0.8,4.5,-2,-11.1,0.83,0.02,0.01,0.55
1697353170.65,0.14,-0.05,0.8,4.5,-2,-11.1,0.83,0.02,0.01,0.55
1697353170.66,-0.03,0.16,1.26,-1.8,-1.5,-6.4,0.83,0.03,0.01,0.55
1697353170.67,-0.04,0.4,0.38,0.8,-1.6,-3.8,0.83,0.03,0.01,0.55
1697353170.68,-0.03,0.51,1.39,4.3,-1.5,-1.1,0.83,0.03,0.01,0.55
1697353170.69,-0.02,0.33,0.62,5.4,-1.2,1.3,0.83,0.03,0.01,0.55
1697353170.7,-0.03,0.49,0.94,5.7,-0.8,4,0.83,0.03,0.01,0.55
1697353170.71,-0.1,0.36,1.08,5.7,-0.8,6.3,0.83,0.03,0.01,0.55
1697353170.72,0.07,0.56,0.43,5.5,-0.8,9.2,0.83,0.03,0.01,0.55
1697353170.73,-0.15,0.47,1.39,4.6,-0.8,12.1,0.83,0.03,0.01,0.55
1697353170.74,-0.03,0.79,0.42,3.9,-0.3,15.9,0.83,0.03,0.01,0.56
1697353170.75,-0.03,0.79,0.42,3.9,-0.3,15.9,0.83,0.03,0.01,0.56
1697353170.76,-0.33,0.92,1.19,5.5,0.6,23.9,0.83,0.03,0.01,0.56
1697353170.77,-0.27,0.76,1.29,5.2,0.9,26.7,0.83,0.03,0.01,0.56
1697353170.78,-0.29,0.9,1.08,5.5,1.6,30,0.83,0.03,0.01,0.56
1697353170.79,-0.14,0.79,1.1,5.5,1.6,30,0.83,0.03,0.01,0.56
1697353170.8,-0.17,0.67,1.08,5.5,1.6,30,0.83,0.03,0.01,0.56
1697353170.81,-0.14,0.75,1.36,1.5,1,37.1,0.82,0.03,0.01,0.57
1697353170.82,-0.14,0.75,1.36,1.5,1,37.1,0.82,0.03,0.01,0.57
1697353170.83,-0.13,0.76,1.2,-0.7,0,39.2,0.82,0.03,0.01,0.57
1697353170.84,0.12,0.83,0.67,-0.7,0,39.2,0.82,0.03,0.01,0.58
1697353170.85,0.12,0.83,0.67,-0.4,-0.3,39.7,0.82,0.03,0.01,0.58
1697353170.86,-0,0.91,0.8,0.8,-1,40.1,0.81,0.03,0.01,0.58
1697353170.87,-0.14,0.99,0.95,0.8,-1,40.1,0.81,0.03,0.01,0.58
1697353170.88,-0.14,0.99,0.95,0.8,-1,40.1,0.81,0.03,0.01,0.58
1697353170.89,-0.14,0.99,0.95,0.8,-1,40.1,0.81,0.03,0.01,0.58
1697353170.9,-0.14,0.99,0.95,0.8,-1,40.1,0.81,0.03,0.01,0.58
1697353170.91,-0.14,0.99,0.95,0.8,-1,40.1,0.81,0.03,0.01,0.58
1697353170.92,-0.14,0.99,0.95,0.8,-1,40.1,0.81,0.03,0.01,0.58
1697353170.93,-0.14,0.99,0.95,0.8,-1,40.1,0.81,0.03,0.01,0.58
1697353170.94,-0.14,0.99,0.95,0.8,-1,40.1,0.81,0.03,0.01,0.58
1697353170.95,-0.14,0.99,0.95,0.8,-1,40.1,0.81,0.03,0.01,0.58
1697353170.96,-0.14,0.99,0.95,0.8,-1,40.1,0.81,0.03,0.01,0.58
1697353170.97,-0.14,0.99,0.95,0.8,-1,40.1,0.81,0.03,0.01,0.58
1697353170.98,-0.14,0.99,0.95,0.8,-1,40.1,0.81,0.03,0.01,0.58
1697353170.99,-0.14,0.99,0.95,0.8,-1,40.1,0.81,0.03,0.01,0.58
1697353171,-0.14,0.99,0.95,0.8,-1,40.1,0.81,0.03,0.01,0.58
1697353171.01,-0.21,0.7,1.19,-2.3,0.9,46.7,0.78,0.03,0.01,0.63
1697353171.02,-0.01,0.87,0.24,-1.9,1.5,46.8,0.77,0.03,0.01,0.63
1697353171.03,-0.08,0.85,0.45,0.1,1.3,47.2,0.77,0.03,0.01,0.64
1697353171.04,-0.13,0.93,0.81,1.3,1.2,47.4,0.77,0.03,0.01,0.64
1697353171.05,-0.09,0.81,1.08,1.3,1.2,47.4,0.77,0.03,0.01,0.64
1697353171.06,-0.14,0.95,0.84,0.6,0,49.3,0.76,0.03,0.01,0.65
1697353171.07,-0.14,0.95,0.84,0.6,0,49.3,0.76,0.03,0.01,0.65
1697353171.08,-0.17,0.79,1.3,0,-0.1,50.2,0.76,0.03,0.01,0.65
1697353171.09,-0.27,0.76,1.15,0,0.7,50.3,0.76,0.03,0.01,0.65
1697353171.1,-0.4,0.76,0.75,0,1.8,49.6,0.75,0.03,0.01,0.66
1697353171.11,-0.5,0.81,1.18,0,1.8,49.6,0.75,0.03,0.01,0.66
1697353171.12,-0.33,0.8,0.85,1.2,4.1,48.6,0.75,0.03,0.01,0.67
1697353171.13,-0.33,0.8,0.85,1.2,4.1,48.6,0.75,0.03,0.01,0.67
1697353171.14,-0.16,0.8,1.46,1.1,4.4,48.6,0.74,0.03,0.01,0.67
1697353171.15,-0.1,0.72,1.32,1.1,4.4,48.6,0.74,0.03,0.01,0.67
1697353171.16,0.07,0.83,0.49,-0.6,3.4,49.7,0.73,0.03,0.01,0.68
1697353171.17,-0.24,0.81,1.42,-1.4,2.8,50.1,0.73,0.03,0.01,0.68
1697353171.18,-0.22,0.8,1.41,-1.4,2.8,50.1,0.73,0.03,0.01,0.68
1697353171.19,0.08,0.88,0.67,0.6,0,51.1,0.73,0.03,0.01,0.68
1697353171.2,0.08,0.88,0.67,0.6,0,51.1,0.72,0.03,0.01,0.69
1697353171.21,-0.18,0.62,0.96,2.3,-1.4,51,0.72,0.03,0.01,0.69
1697353171.22,0,0.49,0.72,1.5,-2.4,50.7,0.72,0.03,0.01,0.7
1697353171.23,-0.15,0.71,0.57,-2.3,-1.8,49.7,0.71,0.03,0.01,0.7
1697353171.24,-0.17,0.93,0.99,-4.3,-1.5,49.5,0.71,0.03,0.01,0.7
1697353171.25,-0.17,1.1,1.08,-3,-0.4,49.8,0.71,0.03,0.01,0.7
1697353171.26,-0.09,1,0.76,1.8,-0.4,49.9,0.71,0.03,0.01,0.71
1697353171.27,-0.18,0.66,1.17,4.8,0.4,50,0.7,0.03,0.01,0.71
1697353171.28,-0.12,0.75,0.85,2.8,1.8,50.3,0.7,0.03,0.01,0.71
1697353171.29,-0.12,0.58,1.28,-0.6,2.3,50.4,0.7,0.03,0.01,0.72
1697353171.3,-0.12,0.88,1.08,-4.1,2.5,50.3,0.69,0.03,0.01,0.72
1697353171.31,-0.13,0.81,1.2,-3.7,2.3,51.2,0.69,0.03,0.01,0.72
1697353171.32,-0.12,1.02,0.53,-0.8,2.3,51.5,0.69,0.03,0.01,0.73
1697353171.33,0.03,0.94,1.13,2,1.8,51.8,0.68,0.03,0.01,0.73
1697353171.34,-0.16,0.74,1.22,3.7,1.2,51.9,0.68,0.03,0.01,0.73
1697353171.35,-0.13,0.73,0.69,3.2,0.6,51.7,0.68,0.03,0.01,0.74
1697353171.36,-0.16,0.58,1.02,0.1,0.4,51.3,0.67,0.03,0.01,0.74
1697353171.37,-0.17,0.74,0.74,-2.8,0.8,51,0.67,0.03,0.01,0.74
1697353171.38,-0.25,0.79,0.78,-2.1,1.2,50.2,0.67,0.03,0.01,0.75
1697353171.39,-0.25,0.79,0.78,-2.1,1.2,50.2,0.67,0.03,0.01,0.75
1697353171.4,-0.25,0.79,0.78,-2.1,1.2,50.2,0.67,0.03,0.01,0.75
1697353171.41,-0.25,0.79,0.78,-2.1,1.2,50.2,0.67,0.03,0.01,0.75
1697353171.42,-0.25,0.79,0.78,-2.1,1.2,50.2,0.67,0.03,0.01,0.75
1697353171.43,-0.25,0.79,0.78,-2.1,1.2,50.2,0.67,0.03,0.01,0.75
1697353171.44,-0.25,0.79,0.78,-2.1,1.2,50.2,0.67,0.03,0.01,0.75
1697353171.45,-0.25,0.79,0.78,-2.1,1.2,50.2,0.67,0.03,0.01,0.75
1697353171.46,-0.25,0.79,0.78,-2.1,1.2,50.2,0.67,0.03,0.01,0.75
1697353171.47,-0.25,0.79,0.78,-2.1,1.2,50.2,0.67,0.03,0.01,0.75
1697353171.48,-0.25,0.79,0.78,-2.1,1.2,50.2,0.67,0.03,0.01,0.75
1697353171.49,-0.25,0.79,0.78,-2.1,1.2,50.2,0.67,0.03,0.01,0.75
1697353171.5,-0.25,0.79,0.78,-2.1,1.2,50.2,0.67,0.03,0.01,0.75
1697353171.51,-0.25,0.79,0.78,-2.1,1.2,50.2,0.67,0.03,0.01,0.75
1697353171.52,-0.08,0.81,0.72,-0.7,0.6,50.9,0.62,0.03,0.01,0.78
1697353171.53,-0.18,0.76,1.43,-0.7,0.3,50.4,0.62,0.03,0,0.79
1697353171.54,-0.18,0.76,1.43,-0.1,0,50.4,0.61,0.03,0,0.79
1697353171.55,-0.12,0.76,0.86,0.3,0,50.6,0.61,0.03,0,0.79
1697353171.56,-0.11,0.71,1.39,0.9,0.2,50.2,0.61,0.03,0,0.79
1697353171.57,-0.06,0.69,0.39,-0.9,0.1,49.4,0.6,0.03,0,0.8
1697353171.58,-0.2,0.74,1.32,-1.2,0.1,49.1,0.6,0.03,0,0.8
1697353171.59,-0.06,0.74,0.69,-0.4,0.8,48.6,0.6,0.03,0,0.8
1697353171.6,-0.13,0.81,0.76,0.9,1.5,48.1,0.6,0.03,0,0.8
1697353171.61,-0.07,0.73,1.01,1.7,2,47.5,0.59,0.03,0,0.81
1697353171.62,-0.2,0.56,1.03,0.2,2.4,46.8,0.59,0.03,0,0.81
1697353171.63,0,0.58,1.2,-2.3,2.3,46.4,0.58,0.03,0,0.81
1697353171.64,-0.11,0.61,0.74,-4.3,2.1,46,0.58,0.03,0,0.81
1697353171.65,-0.12,0.55,1.4,-4.7,1.3,45.2,0.58,0.03,0,0.82
1697353171.66,-0.1,0.67,0.9,-3.6,0.9,44.4,0.57,0.03,0,0.82
1697353171.67,-0.06,0.45,1.28,-3.1,0.9,44.1,0.57,0.03,0,0.82
1697353171.68,-0.11,0.45,0.75,-1.3,0.6,41.1,0.57,0.03,0,0.82
1697353171.69,-0.09,0.26,1.33,-1.6,0.9,38.8,0.56,0.03,0,0.83
1697353171.7,-0.16,0.24,0.9,-2.5,1,36.4,0.56,0.03,0,0.83
1697353171.71,0.03,0.22,0.74,-3.3,1.5,34,0.56,0.03,0,0.83
1697353171.72,-0.11,0.26,1.25,-3.3,1.5,34,0.56,0.03,0,0.83
1697353171.73,-0.03,0.28,0.52,-2.4,1.9,29.5,0.55,0.03,0,0.83
1697353171.74,-0.05,0.26,1.25,-1.8,1.7,27.5,0.55,0.03,0,0.83
1697353171.75,-0,0.08,0.86,-1.1,1.4,25.7,0.55,0.03,0,0.84
1697353171.76,0.08,0.04,0.6,-1.6,0.9,23.3,0.55,0.03,0,0.84
1697353171.77,-0.03,-0.19,0.97,-3.4,0.4,20.7,0.55,0.03,0,0.84
1697353171.78,-0.01,-0.19,0.7,-6,0,17.5,0.54,0.03,0,0.84
1697353171.79,-0.08,-0.29,1.26,-7.5,-0.4,14.2,0.54,0.03,0,0.84
1697353171.8,0,-0.29,1.3,-7.5,-0.4,14.2,0.54,0.03,0,0.84
1697353171.81,0,-0.48,0.45,-8,-0.3,6.1,0.54,0.03,-0,0.84
1697353171.82,-0.08,-0.55,1.29,-8,-0.3,6.1,0.54,0.03,-0,0.84
1697353171.83,-0.06,-0.6,0.64,-8.6,-0.1,-3.8,0.54,0.03,-0,0.84
1697353171.84,-0.11,-0.55,0.94,-9.1,-0.2,-8,0.54,0.02,-0,0.84
1697353171.85,-0.11,-0.55,0.94,-9.1,-0.2,-8,0.54,0.02,-0,0.84
1697353171.86,-0.1,-0.64,0.66,-9.8,-0.1,-11.8,0.54,0.02,-0,0.84
1697353171.87,-0.1,-0.64,0.66,-9,0,-15.3,0.54,0.02,-0,0.84
1697353171.88,-0.2,-0.67,0.86,-7.5,0,-18.4,0.55,0.02,-0.01,0.84
1697353171.89,-0.25,-0.75,1.07,-6.8,0.2,-21.4,0.55,0.02,-0.01,0.84
1697353171.9,-0.21,-0.82,0.54,-5.5,0.3,-23.5,0.55,0.02,-0.01,0.84
1697353171.91,-0.19,-0.9,1.17,-5.4,0.3,-24.1,0.55,0.02,-0.01,0.83
1697353171.92,-0.19,-0.9,1.17,-5.4,0.3,-24.1,0.55,0.02,-0.01,0.83
1697353171.93,-0.19,-0.9,1.17,-5.4,0.3,-24.1,0.55,0.02,-0.01,0.83
1697353171.94,-0.19,-0.9,1.17,-5.4,0.3,-24.1,0.55,0.02,-0.01,0.83
1697353171.95,-0.19,-0.9,1.17,-5.4,0.3,-24.1,0.55,0.02,-0.01,0.83
1697353171.96,-0.19,-0.9,1.17,-5.4,0.3,-24.1,0.55,0.02,-0.01,0.83
1697353171.97,-0.19,-0.9,1.17,-5.4,0.3,-24.1,0.55,0.02,-0.01,0.83
1697353171.98,-0.19,-0.9,1.17,-5.4,0.3,-24.1,0.55,0.02,-0.01,0.83
1697353171.99,-0.19,-0.9,1.17,-5.4,0.3,-24.1,0.55,0.02,-0.01,0.83
1697353172,-0.19,-0.9,1.17,-5.4,0.3,-24.1,0.55,0.02,-0.01,0.83
1697353172.01,-0.19,-0.9,1.17,-5.4,0.3,-24.1,0.55,0.02,-0.01,0.83
1697353172.02,-0.19,-0.9,1.17,-5.4,0.3,-24.1,0.55,0.02,-0.01,0.83
1697353172.03,-0.19,-0.9,1.17,-5.4,0.3,-24.1,0.55,0.02,-0.01,0.83
1697353172.04,-0.06,-0.74,0.33,0.2,0.7,-44.2,0.58,0.02,-0.01,0.81
1697353172.05,-0.16,-0.87,1.58,-1.1,0.3,-45.9,0.59,0.02,-0.01,0.81
1697353172.06,0.01,-0.81,0.91,-1.6,0,-46.7,0.59,0.02,-0.01,0.81
1697353172.07,-0.22,-0.78,0.75,-2,-0.4,-47.3,0.6,0.02,-0.01,0.8
1697353172.08,-0.22,-0.78,0.75,-2,-0.4,-47.3,0.6,0.02,-0.01,0.8
1697353172.09,-0.17,-0.8,1.13,-1.3,-0.9,-48.3,0.6,0.02,-0.01,0.8
1697353172.1,-0.17,-0.8,1.13,-1.1,-0.7,-48.7,0.6,0.02,-0.01,0.8
1697353172.11,-0.18,-0.79,1.01,0.7,-0.2,-49.4,0.61,0.02,-0.01,0.79
1697353172.12,-0.18,-0.79,1.01,0.7,-0.2,-49.4,0.61,0.02,-0.01,0.79
1697353172.13,-0.16,-0.92,0.62,1.1,0.2,-50.3,0.61,0.02,-0.01,0.79
1697353172.14,-0.22,-0.79,1.21,-0.1,0.4,-51.2,0.62,0.02,-0.01,0.79
1697353172.15,-0.01,-0.86,0.96,-0.7,0.8,-51.7,0.62,0.02,-0.01,0.78
1697353172.16,-0.03,-0.86,0.74,0,0.7,-52.6,0.63,0.02,-0.01,0.78
1697353172.17,-0.18,-0.69,0.78,0.4,0.1,-52.7,0.63,0.02,-0.01,0.78
1697353172.18,-0.2,-0.83,1,0.4,-0.2,-53,0.63,0.02,-0.01,0.77
1697353172.19,-0.13,-0.91,1.26,-1,0,-53.2,0.64,0.02,-0.01,0.77
1697353172.2,-0.09,-0.81,1.05,-1.4,0,-53.3,0.64,0.02,-0.01,0.77
1697353172.21,-0.12,-0.77,1.04,-2.8,0,-53.2,0.65,0.02,-0.01,0.76
1697353172.22,-0.17,-0.7,0.7,-3.1,0.1,-53.3,0.65,0.02,-0.01,0.76
1697353172.23,-0.05,-0.71,1.08,-1.9,0.3,-53.1,0.65,0.02,-0.01,0.76
1697353172.24,-0.25,-0.7,1.2,0.4,0.6,-52.8,0.66,0.02,-0.01,0.75
1697353172.25,-0.09,-0.81,0.88,2.4,0.4,-53,0.66,0.02,-0.01,0.75
1697353172.26,-0.29,-0.91,1.09,2.4,0.6,-53,0.66,0.02,-0.01,0.75
1697353172.27,-0.29,-0.91,1.09,2.4,0.6,-53,0.66,0.02,-0.01,0.75
1697353172.28,-0.06,-0.74,1.11,-1,0.7,-53.7,0.67,0.02,-0.01,0.74
