time,accel_x,accel_y,accel_z,gyro_x,gyro_y,gyro_z,quat_w,quat_x,quat_y,quat_z
1697354815.15,-0.22,0.99,0.8,-4.5,-0.3,84.6,0.76,0.02,-0.01,-0.65
1697354815.16,-0.26,1.03,0.85,-0.2,-1.1,83,0.76,0.02,-0.01,-0.65
1697354815.17,-0.26,1.03,0.85,-0.2,-1.1,83,0.77,0.02,-0.01,-0.64
1697354815.18,-0.26,0.95,0.88,1.2,-0.7,82.1,0.77,0.02,-0.01,-0.63
1697354815.19,-0.22,0.9,1.09,1.3,0,81.3,0.78,0.02,-0.01,-0.63
1697354815.2,-0.24,1.01,1.19,0.8,2,81.2,0.78,0.02,-0.01,-0.62
1697354815.21,-0.24,1.01,1.19,0.8,2,81.2,0.79,0.02,-0.01,-0.62
1697354815.22,-0.04,1.02,0.81,0.5,2.6,82.1,0.79,0.02,-0.01,-0.61
1697354815.23,-0.04,1.02,0.81,0.5,2.6,82.1,0.8,0.02,-0.01,-0.61
1697354815.24,-0.1,1.06,0.98,1.2,2.4,82.7,0.8,0.02,-0.01,-0.6
1697354815.25,-0.25,0.96,0.83,1.6,2.2,83.5,0.8,0.02,-0.01,-0.59
1697354815.26,-0.31,0.84,1.15,1.2,2.2,84.6,0.81,0.02,-0.01,-0.59
1697354815.27,-0.4,0.92,1.21,0.2,2.2,85.5,0.81,0.02,-0.01,-0.58
1697354815.28,-0.32,0.86,0.73,-1.5,2.5,86.4,0.82,0.02,-0.01,-0.57
1697354815.29,-0.29,0.95,0.85,-2.2,2.9,86.6,0.82,0.02,-0.01,-0.57
1697354815.3,-0.29,0.86,0.93,-2,3.2,86.5,0.83,0.02,-0.01,-0.56
1697354815.31,-0.35,0.8,1.15,-1.4,3.2,85.8,0.83,0.02,-0.01,-0.56
1697354815.32,-0.3,0.82,1.04,-1,3.3,84.6,0.83,0.02,-0.01,-0.55
1697354815.33,-0.3,0.86,1.3,-1.1,3.5,83.3,0.84,0.02,-0.01,-0.54
1697354815.34,-0.26,0.84,1.1,-1.1,3.8,81.9,0.84,0.02,-0.01,-0.54
1697354815.35,-0.18,0.88,0.93,-1.3,3.9,81,0.85,0.02,-0.01,-0.53
1697354815.36,-0.22,0.83,1.2,-2,3.5,80.2,0.85,0.02,-0.01,-0.52
1697354815.37,-0.13,0.89,1.04,-2.3,3.2,79.6,0.85,0.02,-0.01,-0.52
1697354815.38,-0.16,0.85,1.13,-2.1,3,79.6,0.86,0.02,-0.01,-0.51
1697354815.39,-0.23,0.84,1.24,-1.4,2.9,78.8,0.86,0.02,-0.01,-0.51
1697354815.4,-0.09,0.79,0.97,-1,2.4,78.8,0.86,0.02,-0.01,-0.51
1697354815.41,-0.1,0.76,0.98,-0.7,2.3,78.5,0.87,0.02,-0.01,-0.49
1697354815.42,-0.17,0.79,1.01,-0.7,2.3,78.5,0.87,0.02,-0.01,-0.49
1697354815.43,-0.18,0.83,0.92,-1.1,2.2,78.9,0.87,0.02,-0.01,-0.49
1697354815.44,-0.25,0.84,0.79,-1.2,2.3,79.4,0.88,0.02,-0.01,-0.48
1697354815.45,-0.15,0.86,0.64,-0.8,2.3,80.2,0.88,0.02,-0.01,-0.48
1697354815.46,-0.28,0.81,1.12,-0.2,2,80.8,0.88,0.02,-0.01,-0.47
1697354815.47,-0.23,0.81,0.84,-0.6,1.7,81.3,0.89,0.02,-0.01,-0.46
1697354815.48,-0.23,0.81,0.84,-0.6,1.7,81.3,0.89,0.02,-0.01,-0.46
1697354815.49,-0.23,0.81,0.84,-0.6,1.7,81.3,0.89,0.02,-0.01,-0.46
1697354815.5,-0.23,0.81,0.84,-0.6,1.7,81.3,0.89,0.02,-0.01,-0.46
1697354815.51,-0.23,0.81,0.84,-0.6,1.7,81.3,0.89,0.02,-0.01,-0.46
1697354815.52,-0.23,0.81,0.84,-0.6,1.7,81.3,0.89,0.02,-0.01,-0.46
1697354815.53,-0.23,0.81,0.84,-0.6,1.7,81.3,0.89,0.02,-0.01,-0.46
1697354815.54,-0.23,0.81,0.84,-0.6,1.7,81.3,0.89,0.02,-0.01,-0.46
1697354815.55,-0.23,0.81,0.84,-0.6,1.7,81.3,0.89,0.02,-0.01,-0.46
1697354815.56,-0.23,0.81,0.84,-0.6,1.7,81.3,0.89,0.02,-0.01,-0.46
1697354815.57,-0.23,0.81,0.84,-0.6,1.7,81.3,0.89,0.02,-0.01,-0.46
1697354815.58,-0.23,0.81,0.84,-0.6,1.7,81.3,0.89,0.02,-0.01,-0.46
1697354815.59,-0.23,0.81,0.84,-0.6,1.7,81.3,0.89,0.02,-0.01,-0.46
1697354815.6,-0.23,0.81,0.84,-0.6,1.7,81.3,0.89,0.02,-0.01,-0.46
1697354815.61,-0.21,0.79,0.98,-1.4,0.7,78.2,0.93,0.02,-0.01,-0.37
1697354815.62,-0.23,0.84,0.88,-2.1,0.8,78.5,0.93,0.02,-0.01,-0.37
1697354815.63,-0.23,0.84,0.88,-2.8,0.8,79.1,0.93,0.01,-0.01,-0.36
1697354815.64,-0.11,0.9,0.74,-2.7,0.8,79.6,0.94,0.01,-0.01,-0.35
1697354815.65,-0.11,0.9,0.74,-1.1,1,79.6,0.94,0.01,-0.01,-0.35
1697354815.66,-0.14,0.8,0.87,1,0.8,79.4,0.94,0.01,-0.01,-0.34
1697354815.67,-0.23,0.81,0.95,2.5,0.2,79.1,0.94,0.01,-0.01,-0.33
1697354815.68,-0.15,0.74,0.78,1.6,-0.1,79,0.95,0.01,-0.01,-0.33
1697354815.69,-0.17,0.73,1.01,0.4,-0.1,78.5,0.95,0.01,-0.01,-0.32
1697354815.7,-0.17,0.74,1.01,-0.5,-0.2,78.1,0.95,0.01,-0.01,-0.31
1697354815.71,-0.12,0.76,1.01,-1.4,0.2,77.3,0.95,0.01,-0.01,-0.31
1697354815.72,-0.07,0.79,1.02,-1.5,0.8,76.9,0.95,0.01,-0.01,-0.3
1697354815.73,-0.22,0.78,1.03,-0.8,1.5,76.4,0.96,0.01,-0.01,-0.29
1697354815.74,-0.1,0.82,0.75,0.1,2.1,76.2,0.96,0.01,-0.01,-0.29
1697354815.75,-0.19,0.81,0.71,0.9,2.7,76.5,0.96,0.01,-0.01,-0.28
1697354815.76,-0.16,0.77,0.86,0.8,3,77,0.96,0.01,-0.01,-0.28
1697354815.77,-0.23,0.76,1.08,0.5,3.4,77.5,0.96,0.01,-0.01,-0.27
1697354815.78,-0.21,0.77,0.96,0.1,3.1,78.2,0.96,0.01,-0.01,-0.27
1697354815.79,-0.15,0.81,0.81,-0.1,3,78.4,0.97,0.01,-0.01,-0.26
1697354815.8,-0.14,0.79,0.8,-0.1,3,78.4,0.97,0.01,-0.01,-0.25
1697354815.81,-0.07,0.71,0.85,1.2,3.4,78.7,0.97,0.01,-0.01,-0.24
1697354815.82,-0.1,0.69,1,1.2,3.4,78.1,0.97,0.01,-0.01,-0.24
1697354815.83,-0.11,0.66,1.02,-0.1,3.1,77.3,0.97,0.01,-0.01,-0.23
1697354815.84,-0,0.68,0.75,-1.7,2.3,76.6,0.97,0.01,-0.01,-0.23
1697354815.85,-0.12,0.67,0.96,-2,2.5,75.7,0.98,0.01,-0.01,-0.22
1697354815.86,-0.17,0.67,0.98,-2.4,2.8,75.6,0.98,0.01,-0.01,-0.21
1697354815.87,-0.3,0.81,1.06,-2.3,3.5,74.9,0.98,0.01,-0.01,-0.21
1697354815.88,-0.27,0.75,0.89,-0.7,4.9,74.8,0.98,0.01,-0.01,-0.2
1697354815.89,-0.25,0.79,0.87,0.5,6,74.9,0.98,0.01,-0.01,-0.19
1697354815.9,-0.26,0.66,0.9,0.9,6.8,75.6,0.98,0.01,-0.01,-0.19
1697354815.91,-0.17,0.75,0.85,0.5,7.7,75.6,0.98,0.01,-0.01,-0.18
1697354815.92,-0.19,0.7,1.08,-0.4,8,75.9,0.98,0.01,-0.01,-0.17
1697354815.93,-0.09,0.7,0.97,-1.6,7.8,76.3,0.99,0.01,-0.01,-0.17
1697354815.94,-0.06,0.74,0.89,-2,7.4,76.2,0.99,0.01,-0.01,-0.16
1697354815.95,-0.08,0.76,1.06,-2,7.4,76.2,0.99,0.01,-0,-0.15
1697354815.96,-0.05,0.73,1.03,-1.1,6.6,76,0.99,0.01,-0,-0.15
1697354815.97,-0.05,0.73,1.03,0.7,5.4,75.9,0.99,0.01,-0,-0.14
1697354815.98,-0.08,0.63,0.85,1.5,4.9,75.7,0.99,0.01,-0,-0.13
1697354815.99,-0.24,0.65,1.07,0.4,5.1,75.5,0.99,0.01,-0,-0.13
1697354816,-0.24,0.65,1.07,0.4,5.1,75.5,0.99,0.01,-0,-0.13
1697354816.01,-0.24,0.65,1.07,0.4,5.1,75.5,0.99,0.01,-0,-0.13
1697354816.02,-0.24,0.65,1.07,0.4,5.1,75.5,0.99,0.01,-0,-0.13
1697354816.03,-0.24,0.65,1.07,0.4,5.1,75.5,0.99,0.01,-0,-0.13
1697354816.04,-0.24,0.65,1.07,0.4,5.1,75.5,0.99,0.01,-0,-0.13
1697354816.05,-0.24,0.65,1.07,0.4,5.1,75.5,0.99,0.01,-0,-0.13
1697354816.06,-0.24,0.65,1.07,0.4,5.1,75.5,0.99,0.01,-0,-0.13
1697354816.07,-0.24,0.65,1.07,0.4,5.1,75.5,0.99,0.01,-0,-0.13
1697354816.08,-0.24,0.65,1.07,0.4,5.1,75.5,0.99,0.01,-0,-0.13
1697354816.09,-0.24,0.65,1.07,0.4,5.1,75.5,0.99,0.01,-0,-0.13
1697354816.1,-0.24,0.65,1.07,0.4,5.1,75.5,0.99,0.01,-0,-0.13
1697354816.11,-0.24,0.65,1.07,0.4,5.1,75.5,0.99,0.01,-0,-0.13
1697354816.12,-0.24,0.65,1.07,0.4,5.1,75.5,0.99,0.01,-0,-0.13
1697354816.13,-0.2,0.65,1.14,1.3,6.9,74.7,1,0.01,0,-0.03
1697354816.14,-0.16,0.69,0.95,0.7,6.7,75,1,0.02,0,-0.03
1697354816.15,-0.14,0.69,0.99,0.1,6.4,75.1,1,0.02,0.01,-0.02
1697354816.16,-0.09,0.71,0.98,-0.7,5.5,75.4,1,0.02,0.01,-0.01
1697354816.17,-0.1,0.73,1.06,-1.2,4.5,75.3,1,0.02,0.01,-0.01
1697354816.18,-0.05,0.76,0.92,-1.1,3.5,75.3,1,0.02,0.01,-0.01
1697354816.19,-0.05,0.73,0.89,-0.7,2.4,75.2,1,0.02,0.01,-0
1697354816.2,-0.08,0.7,0.77,-0.5,1.7,74.9,1,0.01,0.01,0.01
1697354816.21,-0.12,0.71,1.07,-0.4,1.5,74.7,1,0.01,0.01,0.01
1697354816.22,-0.16,0.64,1.1,-0.3,1.4,74.4,1,0.01,0.01,0.02
1697354816.23,-0.12,0.67,0.98,-0.6,1.6,74.1,1,0.01,0.01,0.03
1697354816.24,-0.1,0.68,0.95,-1.3,1.7,73.9,1,0.01,0.01,0.03
1697354816.25,-0.19,0.76,1.09,-1.5,1.9,73.7,1,0.01,0.01,0.04
1697354816.26,-0.08,0.73,0.93,-1.5,1.9,73.7,1,0.01,0.01,0.05
1697354816.27,-0.05,0.72,0.89,1.7,1.6,74,1,0.01,0.01,0.05
1697354816.28,-0.1,0.58,0.89,1.8,1.5,74.1,1,0.01,0.01,0.06
1697354816.29,-0.12,0.7,1.31,0.8,1.4,74.3,1,0.02,0.01,0.07
1697354816.3,-0.15,0.64,1.14,-0.5,1.4,74.8,1,0.02,0.01,0.07
1697354816.31,-0.17,0.74,1.1,-0.5,1.4,74.8,1,0.02,0.01,0.08
1697354816.32,-0.16,0.73,1,-1.3,1.6,75.4,1,0.02,0.01,0.09
1697354816.33,-0.18,0.73,0.93,-1,1.4,75.7,1,0.02,0.01,0.09
1697354816.34,-0.11,0.77,0.94,-0.7,1.4,76,0.99,0.02,0.01,0.1
1697354816.35,-0.12,0.73,0.85,-0.7,1.4,76,0.99,0.02,0.01,0.11
1697354816.36,-0.09,0.67,1.02,0.9,1,75.9,0.99,0.02,0.01,0.11
1697354816.37,0.01,0.7,0.93,0.9,1,75.9,0.99,0.02,0.01,0.12
1697354816.38,0.01,0.7,0.93,0.7,0.3,75.4,0.99,0.02,0.01,0.12
1697354816.39,-0.19,0.53,1.27,0,-0.1,75.2,0.99,0.02,0.01,0.13
1697354816.4,-0.12,0.7,0.93,-0.3,-0.6,74.9,0.99,0.02,0.01,0.14
1697354816.41,-0.07,0.71,0.86,0,-0.4,74.5,0.99,0.02,0.01,0.14
1697354816.42,-0.12,0.68,0.86,0.5,0,74.4,0.99,0.02,0.01,0.15
1697354816.43,-0.12,0.7,0.92,0.8,0.3,74.2,0.99,0.02,0.01,0.16
1697354816.44,-0.13,0.69,1.08,0.4,0.4,74.6,0.99,0.02,0.01,0.17
1697354816.45,-0.12,0.64,0.93,0,0.6,74.6,0.98,0.02,0.01,0.17
1697354816.46,-0.13,0.69,1.03,-0.3,0.7,75,0.98,0.02,0.01,0.18
1697354816.47,-0.16,0.7,1.03,-0.6,0.5,75.4,0.98,0.02,0.01,0.19
1697354816.48,-0.11,0.72,1,-0.4,0.4,75.7,0.98,0.02,0.01,0.19
1697354816.49,-0.12,0.7,0.97,-0.1,0.2,76,0.98,0.02,0.01,0.2
1697354816.5,-0.07,0.72,1,0.1,-0.1,75.9,0.98,0.02,0.01,0.21
1697354816.51,-0.06,0.75,0.81,0.5,-0.9,76,0.98,0.02,0.01,0.22
1697354816.52,-0.06,0.75,0.81,0.5,-0.9,76,0.98,0.02,0.01,0.22
1697354816.53,-0.06,0.75,0.81,0.5,-0.9,76,0.98,0.02,0.01,0.22
1697354816.54,-0.06,0.75,0.81,0.5,-0.9,76,0.98,0.02,0.01,0.22
1697354816.55,-0.06,0.75,0.81,0.5,-0.9,76,0.98,0.02,0.01,0.22
1697354816.56,-0.06,0.75,0.81,0.5,-0.9,76,0.98,0.02,0.01,0.22
1697354816.57,-0.06,0.75,0.81,0.5,-0.9,76,0.98,0.02,0.01,0.22
1697354816.58,-0.06,0.75,0.81,0.5,-0.9,76,0.98,0.02,0.01,0.22
1697354816.59,-0.06,0.75,0.81,0.5,-0.9,76,0.98,0.02,0.01,0.22
1697354816.6,-0.06,0.75,0.81,0.5,-0.9,76,0.98,0.02,0.01,0.22
1697354816.61,-0.06,0.75,0.81,0.5,-0.9,76,0.98,0.02,0.01,0.22
1697354816.62,-0.06,0.75,0.81,0.5,-0.9,76,0.98,0.02,0.01,0.22
1697354816.63,-0.06,0.75,0.81,0.5,-0.9,76,0.98,0.02,0.01,0.22
1697354816.64,-0.06,0.75,0.81,0.5,-0.9,76,0.98,0.02,0.01,0.22
1697354816.65,-0.1,0.64,0.92,-0.6,2.5,74.7,0.95,0.01,0.01,0.3
1697354816.66,-0.06,0.73,0.75,-0.6,2.5,74.7,0.95,0.01,0.01,0.3
1697354816.67,-0.22,0.68,1.22,-1.4,1.7,74.9,0.95,0.01,0.01,0.31
1697354816.68,-0.05,0.73,0.96,-1.3,1.1,75.1,0.95,0.01,0.01,0.32
1697354816.69,-0.06,0.71,1,-0.2,0.2,75.3,0.95,0.01,0.01,0.32
1697354816.7,-0.06,0.71,1,-0.2,0.2,75.3,0.94,0.01,0.01,0.33
1697354816.71,-0.07,0.62,0.95,0,-0.2,75.1,0.94,0.01,0,0.34
1697354816.72,-0.11,0.71,1.01,0.1,-0.5,74.8,0.94,0.01,0,0.34
1697354816.73,-0.15,0.56,1.1,0.2,-0.4,74.7,0.94,0.01,0,0.35
1697354816.74,-0.11,0.49,0.7,-0.5,-0.4,74.4,0.93,0.01,0,0.36
1697354816.75,-0.09,0.67,0.68,-2.5,0.8,73.9,0.93,0.01,0,0.36
1697354816.76,-0.24,0.66,1.05,-4.6,1.7,74.2,0.93,0.01,0,0.37
1697354816.77,-0.18,0.69,0.98,-4.4,2.7,74.3,0.93,0.01,0,0.37
1697354816.78,-0.13,0.78,0.98,-2.1,2.5,74,0.92,0.01,0,0.38
1697354816.79,-0.06,0.7,0.81,0.4,2.5,73.9,0.92,0.01,0,0.39
1697354816.8,-0.05,0.66,0.95,2.3,2.4,73.9,0.92,0.01,0,0.39
1697354816.81,-0.12,0.66,1.17,2.6,2.2,73.8,0.92,0.01,0,0.4
1697354816.82,-0.08,0.65,0.84,2.3,1.9,73.8,0.91,0.01,0.01,0.41
1697354816.83,-0.15,0.67,0.89,1.6,2,74.1,0.91,0.01,0.01,0.41
1697354816.84,-0.14,0.66,0.92,0.9,2,74.4,0.91,0.01,0.01,0.41
1697354816.85,-0.17,0.66,1.07,0.1,1.8,74.6,0.91,0.01,0.01,0.42
1697354816.86,-0.14,0.67,1.16,-0.2,1.6,74.9,0.91,0.01,0.01,0.42
1697354816.87,-0.07,0.67,0.98,-0.3,1.4,74.9,0.9,0.01,0.01,0.43
1697354816.88,-0.07,0.68,0.94,-0.1,1.1,74.6,0.9,0.01,0.01,0.44
1697354816.89,-0.11,0.65,0.85,-0.2,1.1,74.5,0.9,0.01,0.01,0.44
1697354816.9,-0.12,0.63,0.92,-0.6,1.1,74.2,0.89,0.01,0.01,0.45
1697354816.91,-0.11,0.66,1.03,-1.2,1.1,73.7,0.89,0.01,0.01,0.45
1697354816.92,-0.05,0.65,0.82,-2.2,1.2,73.6,0.89,0.01,0.01,0.46
1697354816.93,-0.13,0.67,1.04,-2.2,1.2,73.2,0.89,0.01,0.01,0.46
1697354816.94,-0.1,0.64,1.23,-2,1.2,72.9,0.88,0.01,0.01,0.47
1697354816.95,-0.05,0.66,0.98,-1.7,1.1,72.7,0.88,0.01,0.01,0.48
1697354816.96,-0.12,0.65,1.03,-0.9,1,72.4,0.88,0.01,0.01,0.48
1697354816.97,-0.06,0.51,0.94,0,1.6,72.3,0.87,0.01,0.01,0.49
1697354816.98,-0.02,0.63,0.74,0.3,1.7,71.7,0.87,0.01,0.01,0.49
1697354816.99,-0.07,0.59,0.93,0.3,1.7,71.6,0.87,0.01,0.01,0.5
1697354817,-0.07,0.64,1.07,0.2,1.4,71.5,0.86,0.01,0.01,0.51
1697354817.01,-0.07,0.67,0.77,0,0.7,72.1,0.86,0.01,0.01,0.51
1697354817.02,-0.18,0.69,1.23,-0.1,0.3,72.6,0.86,0.01,0.01,0.52
1697354817.03,-0.1,0.67,0.98,0.9,0.5,72.7,0.85,0.01,0.01,0.52
1697354817.04,-0.1,0.67,0.98,0.9,0.5,72.7,0.85,0.01,0.01,0.52
1697354817.05,-0.1,0.67,0.98,0.9,0.5,72.7,0.85,0.01,0.01,0.52
1697354817.06,-0.1,0.67,0.98,0.9,0.5,72.7,0.85,0.01,0.01,0.52
1697354817.07,-0.1,0.67,0.98,0.9,0.5,72.7,0.85,0.01,0.01,0.52
1697354817.08,-0.1,0.67,0.98,0.9,0.5,72.7,0.85,0.01,0.01,0.52
1697354817.09,-0.1,0.67,0.98,0.9,0.5,72.7,0.85,0.01,0.01,0.52
1697354817.1,-0.1,0.67,0.98,0.9,0.5,72.7,0.85,0.01,0.01,0.52
1697354817.11,-0.1,0.67,0.98,0.9,0.5,72.7,0.85,0.01,0.01,0.52
1697354817.12,-0.1,0.67,0.98,0.9,0.5,72.7,0.85,0.01,0.01,0.52
1697354817.13,-0.1,0.67,0.98,0.9,0.5,72.7,0.85,0.01,0.01,0.52
1697354817.14,-0.1,0.67,0.98,0.9,0.5,72.7,0.85,0.01,0.01,0.52
1697354817.15,-0.1,0.67,0.98,0.9,0.5,72.7,0.85,0.01,0.01,0.52
1697354817.16,-0.1,0.67,0.98,0.9,0.5,72.7,0.85,0.01,0.01,0.52
1697354817.17,-0.1,0.67,0.98,0.9,0.5,72.7,0.85,0.01,0.01,0.52
1697354817.18,-0.07,0.58,0.86,-3.5,0.8,58,0.8,0.01,0,0.59
1697354817.19,-0.06,0.55,1.03,-0.7,1.8,58.1,0.8,0.01,0,0.6
1697354817.2,-0.03,0.36,1.2,1.7,2.1,58.3,0.8,0.01,0,0.6
1697354817.21,-0.03,0.36,1.2,2.6,2.2,58.4,0.79,0.01,0,0.61
1697354817.22,0.07,0.34,0.9,1.4,1.9,58.6,0.79,0.01,0,0.61
1697354817.23,-0.03,0.36,1.19,0.2,0.9,58.3,0.79,0.01,0,0.61
1697354817.24,0.06,0.23,0.95,-0.3,-0.2,57.8,0.79,0.01,0,0.62
1697354817.25,0.09,0.2,1.11,-0.8,-1.6,57,0.79,0.01,0,0.62
1697354817.26,0.08,0.27,0.95,-1.2,-3.2,55.2,0.78,0.01,0,0.63
1697354817.27,-0.01,0.24,0.76,-2.2,-3.9,53,0.78,0.01,0,0.63
1697354817.28,-0.04,0.32,0.97,-2.3,-2.9,50.8,0.78,0.01,0,0.63
1697354817.29,0.02,0.32,0.89,-2.4,-1.6,48.6,0.77,0.01,0,0.63
1697354817.3,-0.08,0.3,1.17,-2.1,-0.5,46.4,0.77,0.01,0,0.64
1697354817.31,0.01,0.24,0.73,-1.3,-0.2,44.6,0.77,0.01,0,0.64
1697354817.32,0,0.26,1.03,-0.9,0.6,42.7,0.76,0.01,0,0.64
1697354817.33,-0.06,0.22,1.07,-1,1.6,41.4,0.76,0.01,0,0.65
1697354817.34,0,0.13,1.15,-1.5,2.1,40.1,0.76,0.01,0,0.65
1697354817.35,-0.03,0.16,0.99,-2.7,2.8,38.5,0.76,0.01,0,0.65
1697354817.36,0.01,0.13,1.03,-3.6,2.9,37.6,0.76,0.01,0,0.66
1697354817.37,0.05,0.17,1.03,-3,3,36.6,0.75,0.01,0,0.66
1697354817.38,0,0.14,1.07,-1.8,3,35.4,0.75,0.01,0,0.66
1697354817.39,0.05,0.11,1.12,-0.4,2.7,34.3,0.75,0.01,0,0.66
1697354817.4,0.09,0.02,0.78,-0.3,2.4,32.8,0.75,0.01,0,0.66
1697354817.41,0.05,0.02,1,-0.8,1.8,30.8,0.74,0.01,0,0.67
1697354817.42,0.12,-0.04,1.18,-1.3,1,29,0.74,0.01,0,0.67
1697354817.43,0.18,-0.11,0.9,-1.4,0.5,27.2,0.74,0.01,0,0.67
1697354817.44,0.05,-0.05,1.11,-1.8,0,25.3,0.74,0.01,0,0.68
1697354817.45,0.1,-0.04,0.97,-2.3,-0.6,23.5,0.74,0.01,0,0.68
1697354817.46,-0,-0.01,1.15,-1.9,-1.1,21.4,0.73,0.01,0,0.68
1697354817.47,0.04,0.04,1.06,-1.9,-1.1,21.4,0.73,0.01,0,0.68
1697354817.48,0.02,0.01,1.11,-1.2,-1.6,17.7,0.73,0.01,0,0.68
1697354817.49,0.06,-0.01,0.98,-0.9,-1.5,16.2,0.73,0.01,0,0.68
1697354817.5,0.06,-0.01,0.98,-0.9,-1.5,16.2,0.73,0.01,0,0.68
1697354817.51,-0.01,-0.2,0.95,-2,-1,12.7,0.73,0.01,0,0.68
1697354817.52,-0.01,-0.2,0.95,-2,-1,12.7,0.73,0.01,-0,0.68
1697354817.53,0.01,-0.23,0.92,-4.1,-0.4,11.2,0.73,0.01,-0,0.68
1697354817.54,0.11,-0.13,0.98,-4,-0.2,9.6,0.73,0.01,-0,0.69
1697354817.55,0.06,-0.09,1.09,-1,-0.1,7.9,0.73,0.01,-0,0.69
1697354817.56,-0.14,-0.21,0.98,1.1,0,6.5,0.73,0.01,-0,0.69
1697354817.57,0.08,-0.42,0.93,2.1,0.1,4.5,0.73,0.01,-0,0.69
1697354817.58,0.08,-0.42,0.93,2.1,0.1,4.5,0.73,0.01,-0,0.69
1697354817.59,0.08,-0.42,0.93,2.1,0.1,4.5,0.73,0.01,-0,0.69
1697354817.6,0.08,-0.42,0.93,2.1,0.1,4.5,0.73,0.01,-0,0.69
1697354817.61,0.08,-0.42,0.93,2.1,0.1,4.5,0.73,0.01,-0,0.69
1697354817.62,0.08,-0.42,0.93,2.1,0.1,4.5,0.73,0.01,-0,0.69
1697354817.63,0.08,-0.42,0.93,2.1,0.1,4.5,0.73,0.01,-0,0.69
1697354817.64,0.08,-0.42,0.93,2.1,0.1,4.5,0.73,0.01,-0,0.69
1697354817.65,0.08,-0.42,0.93,2.1,0.1,4.5,0.73,0.01,-0,0.69
1697354817.66,0.08,-0.42,0.93,2.1,0.1,4.5,0.73,0.01,-0,0.69
1697354817.67,0.08,-0.42,0.93,2.1,0.1,4.5,0.73,0.01,-0,0.69
1697354817.68,0.08,-0.42,0.93,2.1,0.1,4.5,0.73,0.01,-0,0.69
1697354817.69,0.08,-0.42,0.93,2.1,0.1,4.5,0.73,0.01,-0,0.69
1697354817.7,0.02,-0.5,0.86,-0.5,0,-17.7,0.73,0,-0.01,0.68
1697354817.71,0.06,-0.48,1,-1.9,-0.3,-19.9,0.73,0,-0.01,0.68
1697354817.72,-0.1,-0.24,1.11,-1.7,-0.9,-21.3,0.74,0,-0.01,0.68
1697354817.73,0.04,-0.46,1.12,0.2,-0.1,-22.1,0.74,0,-0.01,0.68
1697354817.74,-0.01,-0.72,0.72,1.3,0.2,-24.2,0.74,0,-0.01,0.67
1697354817.75,-0.02,-0.54,0.81,0,0.9,-26.6,0.74,0,-0.01,0.67
1697354817.76,-0.05,-0.5,1.19,-3.7,2.3,-28.8,0.74,0,-0.01,0.67
1697354817.77,-0.03,-0.52,0.97,-2.3,2.2,-30.9,0.74,0,-0.01,0.67
1697354817.78,0.03,-0.45,0.97,-0.7,1.9,-32.4,0.74,0,-0.01,0.67
1697354817.79,-0.01,-0.55,1.13,0.1,1.3,-33.5,0.75,0,-0.01,0.66
1697354817.8,0.01,-0.58,0.99,0.1,1.3,-33.5,0.75,0,-0.01,0.66
1697354817.81,-0.05,-0.63,0.96,-0.7,-1.4,-36.4,0.75,0,-0.01,0.66
1697354817.82,-0.01,-0.63,1.09,-1.4,-2.3,-37.6,0.75,0,-0.01,0.66
1697354817.83,0.03,-0.58,0.97,-1.7,-2.7,-38.2,0.76,0,-0.01,0.65
1697354817.84,-0.02,-0.48,0.86,-1.1,-2.8,-38.6,0.76,0,-0.01,0.65
1697354817.85,-0.14,-0.51,1.02,-0.6,-2.4,-39.3,0.76,0,-0.01,0.65
1697354817.86,-0.06,-0.51,0.95,-0.8,-1.7,-39.7,0.76,0,-0.01,0.65
1697354817.87,-0.04,-0.58,0.78,-1.3,-1,-40.3,0.76,0,-0.01,0.65
1697354817.88,-0.06,-0.57,1.04,-2.2,-0.4,-40.8,0.77,0,-0.01,0.64
1697354817.89,-0.06,-0.57,1.04,-2.2,-0.4,-40.8,0.77,0,-0.01,0.64
1697354817.9,0,-0.56,1.04,-2.3,-0.3,-41,0.77,0,-0.01,0.64
1697354817.91,-0.07,-0.51,1.01,-1.1,0.8,-42.5,0.77,0,-0.01,0.63
1697354817.92,-0.04,-0.5,0.94,0.4,1.2,-43.4,0.78,0,-0.01,0.63
1697354817.93,-0.07,-0.58,1.12,1.7,1.2,-44.4,0.78,0,-0.01,0.63
1697354817.94,-0.07,-0.58,1.12,2,1.2,-45.3,0.78,0,-0.01,0.63
1697354817.95,-0.05,-0.59,1.1,1.3,0.9,-46,0.78,0,-0.01,0.62
1697354817.96,-0.01,-0.58,1.02,0.3,0.4,-46.6,0.79,0,-0.01,0.62
1697354817.97,-0.01,-0.52,1.1,-0.3,0.1,-46.7,0.79,0,-0.01,0.62
1697354817.98,-0.06,-0.45,1.02,0.5,-0.3,-46.7,0.79,0,-0.01,0.61
1697354817.99,-0.03,-0.5,0.96,1.2,-0.3,-46.5,0.79,0,-0.01,0.61
1697354818,-0.02,-0.61,0.94,-0.5,0,-46.1,0.8,0,-0.01,0.61
1697354818.01,0.12,-0.47,0.77,-3,-0.1,-45.7,0.8,0,-0.01,0.6
1697354818.02,-0.09,-0.37,0.99,-1.7,-0.5,-45.6,0.8,0,-0.01,0.6
1697354818.03,0.03,-0.47,0.93,0,-0.7,-45.1,0.8,0,-0.01,0.6
1697354818.04,-0.04,-0.51,0.82,0.3,-0.8,-45.1,0.81,0,-0.01,0.59
1697354818.05,-0,-0.5,0.89,1,-1,-45.4,0.81,0,-0.01,0.59
1697354818.06,-0.06,-0.58,0.84,0.9,-0.7,-45.6,0.81,0,-0.01,0.59
1697354818.07,-0.12,-0.56,1.05,0,-0.2,-46.1,0.81,0,-0.01,0.59
1697354818.08,-0.06,-0.51,1.15,-1,0,-46.4,0.82,0,-0.01,0.58
1697354818.09,-0.06,-0.51,1.15,-1,0,-46.4,0.82,0,-0.01,0.58
1697354818.1,-0.06,-0.51,1.15,-1,0,-46.4,0.82,0,-0.01,0.58
1697354818.11,-0.06,-0.51,1.15,-1,0,-46.4,0.82,0,-0.01,0.58
1697354818.12,-0.06,-0.51,1.15,-1,0,-46.4,0.82,0,-0.01,0.58
1697354818.13,-0.06,-0.51,1.15,-1,0,-46.4,0.82,0,-0.01,0.58
1697354818.14,-0.06,-0.51,1.15,-1,0,-46.4,0.82,0,-0.01,0.58
1697354818.15,-0.06,-0.51,1.15,-1,0,-46.4,0.82,0,-0.01,0.58
1697354818.16,-0.06,-0.51,1.15,-1,0,-46.4,0.82,0,-0.01,0.58
1697354818.17,-0.06,-0.51,1.15,-1,0,-46.4,0.82,0,-0.01,0.58
1697354818.18,-0.06,-0.51,1.15,-1,0,-46.4,0.82,0,-0.01,0.58
1697354818.19,-0.06,-0.51,1.15,-1,0,-46.4,0.82,0,-0.01,0.58
1697354818.2,-0.06,-0.51,1.15,-1,0,-46.4,0.82,0,-0.01,0.58
1697354818.21,-0.06,-0.51,1.15,-1,0,-46.4,0.82,0,-0.01,0.58
1697354818.22,-0.09,-0.56,1.02,0.7,1.4,-45.1,0.85,0,-0.01,0.53
1697354818.23,-0,-0.69,1.21,2.5,2.2,-45.3,0.85,0,-0.01,0.53
1697354818.24,0.06,-0.66,0.88,1.2,1.9,-45.5,0.85,0,-0.01,0.53
1697354818.25,0.06,-0.66,0.88,-1.1,0.8,-45.9,0.85,0,-0.01,0.52
1697354818.26,-0.01,-0.51,1.09,-3.1,0,-46.1,0.85,0,-0.01,0.52
1697354818.27,0,-0.36,1.04,-2.8,-0.2,-46.2,0.86,0,-0.01,0.52
1697354818.28,0.02,-0.37,1.01,-0.6,-0.3,-46.2,0.86,0,-0.01,0.51
1697354818.29,-0.06,-0.4,1.13,1.6,-0.6,-46.3,0.86,0,-0.01,0.51
1697354818.3,-0.03,-0.54,0.96,2.4,-0.2,-46.1,0.86,0,-0.01,0.51
1697354818.31,-0.01,-0.62,0.9,1.2,0.1,-46.1,0.86,0,-0.01,0.51
1697354818.32,0.01,-0.57,1.11,-1,0.4,-46.3,0.87,0,-0.01,0.5
1697354818.33,0.05,-0.47,0.79,-3.2,0.5,-46.1,0.87,0,-0.01,0.49
1697354818.34,-0.04,-0.38,0.91,-3.7,0.5,-46.1,0.87,0,-0.01,0.49
1697354818.35,0.01,-0.32,0.92,-2.1,0.4,-45.9,0.87,0,-0.01,0.49
1697354818.36,-0.01,-0.39,1.08,0.6,0.4,-45.7,0.87,0,-0.01,0.49
1697354818.37,-0.02,-0.5,0.95,2.7,0,-45.6,0.87,0,-0.01,0.48
1697354818.38,-0.02,-0.59,1.04,3,-0.4,-45.8,0.88,0,-0.01,0.48
1697354818.39,-0.04,-0.57,0.94,1.1,-0.4,-46.1,0.88,0,-0.01,0.48
1697354818.4,0.03,-0.55,0.93,0,-0.1,-46.1,0.88,0,-0.01,0.47
1697354818.41,-0.04,-0.52,0.92,0,0.5,-46,0.88,0,-0.01,0.47
1697354818.42,0.07,-0.5,1.06,-1,0.6,-45.5,0.88,0,-0.01,0.47
1697354818.43,0.09,-0.41,0.9,-1.7,0.7,-45.2,0.89,0,-0.01,0.46
1697354818.44,0.04,-0.39,0.96,-0.7,0.5,-45,0.89,0,-0.01,0.46
1697354818.45,-0.03,-0.45,1.02,0.7,0.7,-44.4,0.89,0,-0.01,0.45
1697354818.46,-0.03,-0.52,0.88,1.7,0.9,-44.2,0.89,0,-0.01,0.45
1697354818.47,-0.01,-0.48,0.9,1.8,1.1,-44.1,0.89,0,-0.01,0.45
1697354818.48,-0.05,-0.56,1,0.5,2,-44.2,0.9,0,-0.01,0.44
1697354818.49,-0.04,-0.42,0.97,-0.8,2.6,-44.4,0.9,0,-0.01,0.44
1697354818.5,-0.04,-0.42,0.97,-0.8,2.6,-44.4,0.9,0,-0.01,0.44
1697354818.51,0.01,-0.32,1.07,-0.5,2.4,-43.8,0.9,0,-0.01,0.43
1697354818.52,0.01,-0.32,1.07,-0.5,2.4,-43.8,0.9,0,-0.01,0.43
1697354818.53,-0.01,-0.52,1.15,2.6,0.5,-43.5,0.9,0,-0.01,0.43
1697354818.54,0.06,-0.51,0.84,2.6,0.5,-43.5,0.91,0,-0.01,0.42
1697354818.55,0.06,-0.51,0.84,2.7,-0.7,-43.3,0.91,0,-0.01,0.42
1697354818.56,-0.05,-0.49,0.93,0.9,-1.5,-43.3,0.91,0,-0.01,0.42
1697354818.57,0.01,-0.36,0.93,-0.1,-1.5,-43.2,0.91,0,-0.01,0.42
1697354818.58,-0.05,-0.33,1.1,0,-1.2,-42.9,0.91,0,-0.01,0.41
1697354818.59,-0.01,-0.34,1.01,0.6,-0.5,-42.2,0.91,0,-0.01,0.41
1697354818.6,-0.04,-0.35,0.99,1.3,0.2,-41.7,0.91,0,-0.01,0.41
1697354818.61,-0.04,-0.35,0.99,1.3,0.2,-41.7,0.91,0,-0.01,0.41
1697354818.62,-0.04,-0.35,0.99,1.3,0.2,-41.7,0.91,0,-0.01,0.41
1697354818.63,-0.04,-0.35,0.99,1.3,0.2,-41.7,0.91,0,-0.01,0.41
1697354818.64,-0.04,-0.35,0.99,1.3,0.2,-41.7,0.91,0,-0.01,0.41
1697354818.65,-0.04,-0.35,0.99,1.3,0.2,-41.7,0.91,0,-0.01,0.41
1697354818.66,-0.04,-0.35,0.99,1.3,0.2,-41.7,0.91,0,-0.01,0.41
1697354818.67,-0.04,-0.35,0.99,1.3,0.2,-41.7,0.91,0,-0.01,0.41
1697354818.68,-0.04,-0.35,0.99,1.3,0.2,-41.7,0.91,0,-0.01,0.41
1697354818.69,-0.04,-0.35,0.99,1.3,0.2,-41.7,0.91,0,-0.01,0.41
1697354818.7,-0.04,-0.35,0.99,1.3,0.2,-41.7,0.91,0,-0.01,0.41
1697354818.71,-0.04,-0.35,0.99,1.3,0.2,-41.7,0.91,0,-0.01,0.41
1697354818.72,-0.04,-0.35,0.99,-0.5,1.1,-35.1,0.91,0,-0.01,0.41
1697354818.73,0.04,-0.27,1,-1.5,-1.3,-34.4,0.93,0,-0,0.36
1697354818.74,0.01,-0.3,0.95,-0.2,-1.6,-34.2,0.93,0,-0.01,0.36
1697354818.75,0.04,-0.31,1.05,0.6,-1.3,-34,0.93,0,-0.01,0.36
1697354818.76,0.03,-0.34,0.96,0.9,-0.8,-33.8,0.93,0,-0.01,0.35
1697354818.77,-0.1,-0.35,1.03,0.9,0,-33.6,0.94,0,-0.01,0.35
1697354818.78,-0.02,-0.3,0.92,1.1,1.2,-33.8,0.94,0,-0.01,0.35
1697354818.79,-0.08,-0.33,1.01,1.1,2.1,-33.7,0.94,0,-0.01,0.34
1697354818.8,-0.06,-0.34,1.06,1.1,2.1,-33.7,0.94,0,-0.01,0.34
1697354818.81,0.03,-0.32,1.1,1.4,3,-33.4,0.94,0,-0,0.34
1697354818.82,0.04,-0.37,1,1.6,2.5,-33.1,0.94,0,-0,0.34
1697354818.83,-0,-0.34,1.01,1.6,2.5,-33.1,0.94,0,-0,0.33
1697354818.84,0.04,-0.35,0.89,1.3,0.9,-32.7,0.94,0,-0,0.33
1697354818.85,0.01,-0.35,1.15,1.3,0.9,-32.7,0.94,0,-0,0.33
1697354818.86,-0.06,-0.39,1,0.2,0.1,-32.5,0.95,0,-0,0.32
1697354818.87,0.03,-0.36,0.82,-0.4,0.1,-32.3,0.95,0,-0,0.32
1697354818.88,0.02,-0.28,0.84,-1.5,0,-31.8,0.95,0,-0,0.32
1697354818.89,0.04,-0.28,0.9,-1.5,0,-31.4,0.95,0,-0,0.32
1697354818.9,-0.03,-0.19,1.13,-1.5,0,-31.4,0.95,0,-0,0.32
1697354818.91,0.12,-0.2,1.14,0.3,-0.8,-31,0.95,0,-0,0.31
1697354818.92,0.12,-0.2,1.14,3.9,-2.2,-30.9,0.95,0,-0,0.31
1697354818.93,0.04,-0.28,1.08,3.9,-2.2,-30.9,0.95,0,-0,0.31
1697354818.94,-0.04,-0.49,1.11,5.2,-3.9,-30.7,0.95,0,-0,0.31
1697354818.95,-0.09,-0.52,1.29,4.7,-5.1,-31.1,0.95,0,-0.01,0.3
1697354818.96,0.02,-0.48,1.01,0.5,-5.4,-32.6,0.95,0,-0.01,0.3
1697354818.97,-0.03,-0.43,0.92,-2,-4.4,-33.1,0.95,0,-0.01,0.3
1697354818.98,-0.04,-0.26,1.14,-2.2,-3.1,-33,0.96,0,-0.01,0.29
1697354818.99,-0.01,-0.17,0.95,-1.2,-1.4,-32.5,0.96,0,-0.01,0.29
1697354819,-0.05,-0.21,0.92,0.4,0,-32.3,0.96,0,-0.01,0.29
1697354819.01,0.02,-0.19,0.8,1.1,1.3,-31.6,0.96,0,-0.01,0.29
1697354819.02,0.03,-0.29,0.81,0.6,2.2,-31.3,0.96,0,-0.01,0.28
1697354819.03,-0.1,-0.31,1.13,-0.1,2.5,-31.1,0.96,0,-0.01,0.28
1697354819.04,0.07,-0.33,0.8,-0.4,2.5,-31.2,0.96,0,-0.01,0.28
1697354819.05,0.07,-0.32,0.9,-0.1,2.3,-31.1,0.96,0,-0.01,0.28
1697354819.06,0.06,-0.3,0.85,0,2.2,-31,0.96,0,-0.01,0.27
1697354819.07,0.06,-0.31,0.82,1.6,1.6,-30.7,0.96,0,-0.01,0.27
1697354819.08,0.09,-0.34,0.96,1.7,1.4,-30.7,0.96,0,-0,0.27
1697354819.09,0.05,-0.38,1.04,1.2,1,-30.6,0.96,0,-0,0.26
1697354819.1,0.04,-0.38,0.9,0.6,0.7,-30.5,0.97,0,-0,0.26
1697354819.11,0,-0.35,1.01,0.5,0.6,-30.6,0.97,0,-0,0.26
1697354819.12,0,-0.35,1.01,0.5,0.6,-30.6,0.97,0,-0,0.26
1697354819.13,0,-0.35,1.01,0.5,0.6,-30.6,0.97,0,-0,0.26
1697354819.14,0,-0.35,1.01,0.5,0.6,-30.6,0.97,0,-0,0.26
1697354819.15,0,-0.35,1.01,0.5,0.6,-30.6,0.97,0,-0,0.26
1697354819.16,0,-0.35,1.01,0.5,0.6,-30.6,0.97,0,-0,0.26
1697354819.17,0,-0.35,1.01,0.5,0.6,-30.6,0.97,0,-0,0.26
1697354819.18,0,-0.35,1.01,0.5,0.6,-30.6,0.97,0,-0,0.26
1697354819.19,0,-0.35,1.01,0.5,0.6,-30.6,0.97,0,-0,0.26
1697354819.2,0,-0.35,1.01,0.5,0.6,-30.6,0.97,0,-0,0.26
1697354819.21,0,-0.35,1.01,0.5,0.6,-30.6,0.97,0,-0,0.26
1697354819.22,0,-0.35,1.01,0.5,0.6,-30.6,0.97,0,-0,0.26
1697354819.23,0,-0.35,1.01,0.5,0.6,-30.6,0.97,0,-0,0.26
1697354819.24,0,-0.35,1.01,0.5,0.6,-30.6,0.97,0,-0,0.26
1697354819.25,0,-0.35,1.01,0.5,0.6,-30.6,0.97,0,-0,0.26
1697354819.26,0,-0.35,1.01,0.5,0.6,-30.6,0.97,0,-0,0.26
1697354819.27,0,-0.35,1.01,0.5,0.6,-30.6,0.97,0,-0,0.26
1697354819.28,0.07,-0.11,0.92,1.9,-4.8,-21.9,0.97,0.01,0,0.22
1697354819.29,0.05,-0.12,1.03,1.6,-5.2,-22,0.98,0.01,-0,0.22
1697354819.3,0.03,-0.18,0.97,1.3,-5,-22.2,0.98,0.01,-0,0.22
1697354819.31,-0.06,-0.21,0.88,0.8,-4,-22.3,0.98,0.01,-0,0.22
1697354819.32,-0.01,-0.17,1.06,0,-2.7,-22,0.98,0.01,-0,0.21
1697354819.33,-0.01,-0.15,0.99,-0.5,-1.2,-21.7,0.98,0.01,-0,0.21
1697354819.34,-0.02,-0.15,0.93,-0.4,0.2,-21.2,0.98,0.01,-0,0.21
1697354819.35,0.01,-0.14,1.14,0.1,1.5,-20.6,0.98,0.01,-0,0.21
1697354819.36,0.03,-0.17,1,0.5,2.4,-19.8,0.98,0.01,-0,0.21
1697354819.37,-0.01,-0.21,1.12,0.5,2.4,-19.8,0.98,0.01,-0,0.21
1697354819.38,0.12,-0.17,0.96,0.5,2.5,-18.3,0.98,0.01,-0,0.21
1697354819.39,0.2,-0.16,0.82,0.5,2.5,-18.3,0.98,0.01,-0,0.21
1697354819.4,0.02,-0.16,0.88,0.6,-0.4,-16.7,0.98,0.01,0,0.2
1697354819.41,0.02,-0.16,0.88,0.6,-0.4,-16.7,0.98,0.01,0,0.2
1697354819.42,0.1,-0.17,0.92,0.9,-2.3,-16.3,0.98,0.01,-0,0.2
1697354819.43,0.09,-0.2,1,0.9,-2.4,-16.2,0.98,0.01,-0,0.2
1697354819.44,0.03,-0.15,1.01,0.6,-2.2,-16.4,0.98,0.01,-0,0.19
1697354819.45,0.02,-0.16,0.97,0.6,-2.2,-16.4,0.98,0.01,-0,0.19
1697354819.46,0.02,-0.16,0.97,0.3,-1.5,-16.5,0.98,0.01,-0,0.19
1697354819.47,0.04,-0.17,0.96,0,0,-16.8,0.98,0.01,-0,0.19
1697354819.48,0.03,-0.2,1.01,-0.2,0.6,-17.2,0.98,0,-0,0.19
1697354819.49,0,-0.17,1.24,-0.2,0.6,-17.2,0.98,0,-0,0.19
1697354819.5,0,-0.17,1.24,-0.6,0.8,-17.3,0.98,0,-0,0.19
1697354819.51,0.03,-0.19,1.02,-0.6,0.9,-17.7,0.98,0,-0,0.19
1697354819.52,-0.02,-0.12,0.97,-0.6,0.9,-17.7,0.98,0,-0,0.18
1697354819.53,0.06,-0.19,0.95,-0.4,0.8,-18,0.98,0,-0,0.18
1697354819.54,0.05,-0.16,1.05,-0.2,0.9,-18.1,0.98,0,-0,0.18
1697354819.55,0.03,-0.25,0.94,0.1,0.7,-18.2,0.98,0,-0,0.18
1697354819.56,0.08,-0.33,0.96,0.3,0.6,-18,0.98,0,-0,0.18
1697354819.57,0.1,-0.28,1.02,0,0.8,-17.9,0.98,0,-0,0.18
1697354819.58,0.1,-0.11,0.94,-2.2,0.6,-17.7,0.98,0,-0,0.17
1697354819.59,0.04,-0.04,0.88,-4.6,-0.2,-17.4,0.98,0,-0,0.17
1697354819.6,0.05,-0.1,0.81,-4.3,-0.7,-16.8,0.99,0,-0,0.17
1697354819.61,0.05,-0.18,0.9,-1.2,-0.6,-16.6,0.99,0,-0,0.17
1697354819.62,-0.03,-0.33,1,1.6,-0.3,-16.6,0.99,0,-0,0.17
1697354819.63,0.05,-0.3,0.84,2.8,0,-16.7,0.99,0,-0,0.17
1697354819.64,0.17,-0.24,0.81,1.8,0.8,-17,0.99,0,-0,0.17
1697354819.65,0.03,-0.19,0.94,0,1.6,-17.2,0.99,0,-0,0.16
1697354819.66,-0.03,-0.13,1.06,-1.3,2.5,-17.4,0.99,0,-0,0.16
1697354819.67,0.08,-0.1,0.96,-1.4,2.9,-17.3,0.99,0,-0,0.16
1697354819.68,0.08,-0.1,0.96,-1.4,2.9,-17.3,0.99,0,-0,0.16
1697354819.69,0.08,-0.1,0.96,-1.4,2.9,-17.3,0.99,0,-0,0.16
1697354819.7,0.08,-0.1,0.96,-1.4,2.9,-17.3,0.99,0,-0,0.16
1697354819.71,0.08,-0.1,0.96,-1.4,2.9,-17.3,0.99,0,-0,0.16
1697354819.72,0.08,-0.1,0.96,-1.4,2.9,-17.3,0.99,0,-0,0.16
1697354819.73,0.08,-0.1,0.96,-1.4,2.9,-17.3,0.99,0,-0,0.16
1697354819.74,0.08,-0.1,0.96,-1.4,2.9,-17.3,0.99,0,-0,0.16
1697354819.75,0.08,-0.1,0.96,-1.4,2.9,-17.3,0.99,0,-0,0.16
1697354819.76,0.08,-0.1,0.96,-1.4,2.9,-17.3,0.99,0,-0,0.16
1697354819.77,0.08,-0.1,0.96,-1.4,2.9,-17.3,0.99,0,-0,0.16
1697354819.78,0.08,-0.1,0.96,-1.4,2.9,-17.3,0.99,0,-0,0.16
1697354819.79,0.08,-0.1,0.96,-1.4,2.9,-17.3,0.99,0,-0,0.16
1697354819.8,0.08,-0.1,0.96,-1.4,2.9,-17.3,0.99,0,-0,0.16
1697354819.81,0.08,-0.1,0.96,-1.4,2.9,-17.3,0.99,0,-0,0.16
1697354819.82,0.08,-0.1,0.96,-1.4,2.9,-17.3,0.99,0,-0,0.16
1697354819.83,0.08,-0.1,0.96,-1.4,2.9,-17.3,0.99,0,-0,0.16
1697354819.84,0.08,-0.1,0.96,-1.4,2.9,-17.3,0.99,0,-0,0.16
1697354819.85,0.08,-0.1,0.96,-1.4,2.9,-17.3,0.99,0,-0,0.16
1697354819.86,0.08,-0.1,0.96,-1.4,2.9,-17.3,0.99,0,-0,0.16
1697354819.87,0.08,-0.1,0.96,-1.4,2.9,-17.3,0.99,0,-0,0.16
1697354819.88,0.08,-0.1,0.96,-1.4,2.9,-17.3,0.99,0,-0,0.16
1697354819.89,0.08,-0.1,0.96,-1.4,2.9,-17.3,0.99,0,-0,0.16
1697354819.9,0.08,-0.1,0.96,-1.4,2.9,-17.3,0.99,0,-0,0.16
1697354819.91,0.1,-0.14,0.81,0.1,1.1,-16.1,0.99,-0,0,0.13
1697354819.92,0.06,-0.1,0.99,-1.8,1.5,-15.8,0.99,-0,0,0.13
1697354819.93,0.01,-0.12,1.02,-2,1.8,-15.3,0.99,-0,0,0.13
1697354819.94,0.04,-0.12,0.85,-0.6,1.7,-15.1,0.99,-0,0,0.12
1697354819.95,0.01,-0.2,1.17,1,1.2,-14.8,0.99,-0,0,0.12
1697354819.96,0,-0.22,1.07,0.6,0.7,-14.6,0.99,-0,0,0.12
1697354819.97,-0,-0.17,0.88,-0.1,0.7,-14.6,0.99,-0,0,0.12
1697354819.98,-0.08,-0.14,1.23,-0.8,0.9,-14.5,0.99,-0,0,0.12
1697354819.99,-0.08,-0.14,1.23,-1,1.3,-14.5,0.99,-0,0,0.12
1697354820,0.07,-0.1,0.93,-1.1,1.6,-14.4,0.99,-0,0,0.12
1697354820.01,-0.01,-0.15,1.26,-0.8,2.1,-14.5,0.99,-0,0,0.12
1697354820.02,0.05,-0.17,1.12,0,1.9,-14.5,0.99,-0,0,0.11
1697354820.03,0.1,-0.07,0.97,-0.5,1.5,-14.6,0.99,-0,0,0.11
1697354820.04,0.04,-0.12,0.88,-0.6,1.3,-14.8,0.99,-0,0,0.11
1697354820.05,-0.01,-0.17,1.11,0.2,0.8,-14.7,0.99,-0,0,0.11
1697354820.06,0.09,-0.21,0.87,1.7,0.3,-14.7,0.99,-0,0,0.11
1697354820.07,-0.02,-0.2,0.96,2,-0.2,-14.7,0.99,-0,0,0.11
1697354820.08,-0.09,-0.2,0.99,1.2,-0.2,-14.9,0.99,-0,0,0.11
1697354820.09,0.01,-0.1,0.93,0.5,-0.1,-14.8,0.99,-0,0,0.11
1697354820.1,0.13,-0.02,1.03,0.3,0,-14.5,0.99,-0,0,0.1
1697354820.11,-0.07,-0.18,1.23,1.2,0,-14.1,0.99,-0,0,0.1
1697354820.12,0.06,-0.16,0.79,2.9,-0.4,-13.7,0.99,-0,0,0.1
1697354820.13,0.06,-0.16,0.79,3.9,-0.7,-13.7,0.99,-0,0,0.1
1697354820.14,0,-0.18,0.94,3.2,-0.7,-13.2,1,-0,0,0.1
1697354820.15,0,-0.18,0.94,3.2,-0.7,-13.2,1,-0,0,0.1
1697354820.16,-0.02,-0.06,0.92,0.5,-1.2,-13,1,-0,0,0.1
1697354820.17,0.03,0.01,0.85,-2.5,-1.4,-13.1,1,-0,0,0.1
1697354820.18,0.09,0.18,0.91,-3,-0.9,-12.4,1,-0,0,0.09
1697354820.19,0.05,0.05,1.01,-1.1,-0.8,-11.3,1,-0,0,0.09
1697354820.2,0.03,-0.14,0.97,1.8,-0.9,-10.4,1,-0,0,0.09
1697354820.21,0.03,-0.21,0.93,3.9,-0.9,-9.7,1,-0,0,0.09
1697354820.22,-0.04,-0.17,1.16,2.7,-1.2,-9.7,1,-0,0,0.09
1697354820.23,0.01,0.03,1.04,-0.9,-1.2,-9.2,1,-0,0,0.09
1697354820.24,-0.01,0.04,1.02,-3.1,-1,-9,1,-0,0,0.09
1697354820.25,-0.04,0.05,1.15,1.2,-0.2,-8.5,1,-0,0,0.09
1697354820.26,-0.01,0.01,1.13,3.5,0,-8.6,1,-0,0,0.09
1697354820.27,0.02,-0.2,1.02,3.2,0.5,-8.9,1,-0,0,0.09
1697354820.28,0.07,-0.21,0.9,1.3,0.8,-9.2,1,-0,0,0.09
1697354820.29,0.01,-0.17,1.03,-1.1,1.2,-9.3,1,-0,0,0.09
1697354820.3,0.01,-0.17,1.03,-1.1,1.2,-9.3,1,-0,0,0.09
1697354820.31,0.01,-0.17,1.03,-1.1,1.2,-9.3,1,-0,0,0.09
1697354820.32,0.01,-0.17,1.03,-1.1,1.2,-9.3,1,-0,0,0.09
1697354820.33,0.01,-0.17,1.03,-1.1,1.2,-9.3,1,-0,0,0.09
1697354820.34,0.01,-0.17,1.03,-1.1,1.2,-9.3,1,-0,0,0.09
1697354820.35,0.01,-0.17,1.03,-1.1,1.2,-9.3,1,-0,0,0.09
1697354820.36,0.01,-0.17,1.03,-1.1,1.2,-9.3,1,-0,0,0.09
1697354820.37,0.01,-0.17,1.03,-1.1,1.2,-9.3,1,-0,0,0.09
1697354820.38,0.01,-0.17,1.03,-1.1,1.2,-9.3,1,-0,0,0.09
1697354820.39,0.01,-0.17,1.03,-1.1,1.2,-9.3,1,-0,0,0.09
1697354820.4,0.01,-0.17,1.03,-1.1,1.2,-9.3,1,-0,0,0.09
1697354820.41,0.01,-0.17,1.03,-1.1,1.2,-9.3,1,-0,0,0.09
1697354820.42,0.01,-0.17,1.03,-1.1,1.2,-9.3,1,-0,0,0.09
1697354820.43,0.01,-0.17,1.03,-1.1,1.2,-9.3,1,-0,0,0.09
1697354820.44,0.01,-0.17,1.03,-1.1,1.2,-9.3,1,-0,0,0.09
1697354820.45,0.01,-0.17,1.03,-1.1,1.2,-9.3,1,-0,0,0.09
1697354820.46,0.01,-0.17,1.03,-1.1,1.2,-9.3,1,-0,0,0.09
1697354820.47,0.01,-0.17,1.03,-1.1,1.2,-9.3,1,-0,0,0.09
1697354820.48,0.01,-0.17,1.03,-1.1,1.2,-9.3,1,-0,0,0.09
1697354820.49,0.01,-0.17,1.03,-1.1,1.2,-9.3,1,-0,0,0.09
1697354820.5,0.01,-0.17,1.03,-1.1,1.2,-9.3,1,-0,0,0.09
1697354820.51,0.01,-0.17,1.03,-1.1,1.2,-9.3,1,-0,0,0.09
1697354820.52,0.01,-0.17,1.03,-1.1,1.2,-9.3,1,-0,0,0.09
1697354820.53,0.04,-0.06,0.9,3,-1.5,-4.7,1,-0,0,0.09
1697354820.54,0.04,-0.07,0.9,2.3,-1.6,-5,1,-0.01,-0,0.07
1697354820.55,0.03,-0.15,0.92,0.9,-1.6,-5,1,-0.01,-0,0.07
1697354820.56,0.02,-0.04,0.94,0.3,-2.1,-5.2,1,-0.01,-0,0.07
1697354820.57,0.01,-0,0.96,0.3,-2.1,-5.2,1,-0.01,-0,0.07
1697354820.58,0.05,0.04,0.99,0.9,-2.2,-4.9,1,-0,-0,0.07
1697354820.59,-0.07,-0.02,1.02,0.7,-2.3,-4.7,1,-0,-0,0.07
1697354820.6,-0.08,-0.01,1.01,-0.8,-1.9,-4.5,1,-0,-0,0.07
1697354820.61,0.04,-0.02,1.07,-1.9,-1.3,-4.2,1,-0.01,-0,0.07
1697354820.62,0.05,-0.04,0.89,-3.1,-0.7,-4,1,-0.01,-0,0.07
1697354820.63,0.03,0.01,1.15,-3.1,-0.7,-4,1,-0.01,-0,0.07
1697354820.64,0.06,0.02,0.87,-3.9,-0.3,-3.7,1,-0.01,-0,0.07
1697354820.65,-0.01,0.02,0.97,-3.6,0.1,-3.8,1,-0.01,-0,0.07
1697354820.66,0.01,0.04,1.18,-2.7,0.4,-3.7,1,-0.01,-0,0.06
1697354820.67,0,0,1.17,-1.7,0.9,-3.8,1,-0.01,-0,0.06
1697354820.68,0.1,-0.08,1.07,-1,1,-4,1,-0.01,-0,0.06
1697354820.69,0.04,-0.11,1.06,-0.8,0.7,-4.2,1,-0.01,-0,0.06
1697354820.7,-0.02,-0.1,1.03,-1.1,0.6,-4.5,1,-0.01,-0,0.06
1697354820.71,0.08,-0.06,0.94,-1.6,0.5,-4.6,1,-0.01,-0,0.06
1697354820.72,-0,-0.03,1.13,-1.6,0.5,-4.5,1,-0.01,-0,0.06
1697354820.73,0.12,-0.03,0.92,-0.5,0,-3.7,1,-0.01,-0,0.06
1697354820.74,0.17,-0.05,0.82,-0.3,0,-3.7,1,-0.01,-0,0.06
1697354820.75,0.01,-0.17,1.02,-0.9,0,-3.7,1,-0.01,-0,0.06
1697354820.76,-0.04,-0.02,1.07,-0.5,0,-3.2,1,-0.01,-0,0.06
1697354820.77,0.09,0.09,0.84,1.9,0.8,-3,1,-0.01,-0,0.06
1697354820.78,0,-0.04,0.81,4.7,1.3,-3.6,1,-0.01,-0,0.06
1697354820.79,0.06,-0.14,1.02,3.4,1.6,-3.6,1,-0.01,-0,0.06
1697354820.8,0.01,-0.2,0.88,3.4,1.6,-3.6,1,-0.01,-0,0.06
1697354820.81,-0.03,-0.16,1.13,-0.5,1,-3.8,1,-0.01,-0,0.06
1697354820.82,-0.03,-0.16,1.13,-0.5,1,-3.8,1,-0.01,-0,0.06
1697354820.83,-0.05,0.03,1.1,1.6,-0.5,-3.8,1,-0.01,-0,0.06
1697354820.84,-0.04,-0.04,1.16,1.2,-0.3,-4,1,-0.01,-0,0.06
1697354820.85,-0.04,-0.04,1.16,1.2,-0.3,-4,1,-0.01,-0,0.06
1697354820.86,-0.01,-0.03,0.92,-1.9,0,-3.1,1,-0.01,-0,0.06
1697354820.87,0.06,0.05,0.96,-1.9,0,-3.1,1,-0.01,-0,0.06
1697354820.88,0.06,0.05,0.96,-1.3,-0.2,-3.1,1,-0.01,-0,0.06
1697354820.89,0.03,0,0.95,-0.6,-0.6,-2.8,1,-0.01,-0,0.06
1697354820.9,0.1,0.01,0.82,-0.4,-0.8,-2.7,1,-0.01,-0,0.06
1697354820.91,-0.01,0.02,0.98,-0.3,-0.8,-2.6,1,-0.01,-0,0.06
1697354820.92,0.01,-0.06,0.84,-0.7,-0.4,-2.7,1,-0.01,-0,0.06
1697354820.93,0.01,-0.06,0.84,-0.7,-0.4,-2.7,1,-0.01,-0,0.06
1697354820.94,0.01,-0.06,0.84,-0.7,-0.4,-2.7,1,-0.01,-0,0.06
1697354820.95,0.01,-0.06,0.84,-0.7,-0.4,-2.7,1,-0.01,-0,0.06
1697354820.96,0.01,-0.06,0.84,-0.7,-0.4,-2.7,1,-0.01,-0,0.06
1697354820.97,0.01,-0.06,0.84,-0.7,-0.4,-2.7,1,-0.01,-0,0.06
1697354820.98,0.01,-0.06,0.84,-0.7,-0.4,-2.7,1,-0.01,-0,0.06
1697354820.99,0.01,-0.06,0.84,-0.7,-0.4,-2.7,1,-0.01,-0,0.06
1697354821,0.01,-0.06,0.84,-0.7,-0.4,-2.7,1,-0.01,-0,0.06
1697354821.01,0.01,-0.06,0.84,-0.7,-0.4,-2.7,1,-0.01,-0,0.06
1697354821.02,0.01,-0.06,0.84,-0.7,-0.4,-2.7,1,-0.01,-0,0.06
1697354821.03,0.01,-0.06,0.84,-0.7,-0.4,-2.7,1,-0.01,-0,0.06
1697354821.04,0.01,-0.06,0.84,-0.7,-0.4,-2.7,1,-0.01,-0,0.06
1697354821.05,0.01,-0.06,0.84,-0.7,-0.4,-2.7,1,-0.01,-0,0.06
1697354821.06,-0.01,0.09,0.97,1.7,-1.2,0.5,1,-0.01,-0,0.06
1697354821.07,-0.01,0.09,0.97,1.7,-1.2,0.5,1,-0.01,-0,0.06
1697354821.08,0.08,0.02,1.02,-0.3,-0.5,0.9,1,-0.01,-0,0.06
1697354821.09,0.08,0.02,1.02,-0.3,-0.5,0.9,1,-0.01,-0,0.06
1697354821.1,-0.01,0.13,1.07,-2,0.8,1.8,1,-0,-0,0.06
1697354821.11,-0.07,0.23,1.06,-2,0.8,1.8,1,-0.01,-0,0.06
1697354821.12,-0.06,0.2,1.07,-3.3,1.2,2,1,-0.01,-0,0.06
1697354821.13,-0.08,0.14,1.32,-2.9,1.1,2.7,1,-0.01,-0,0.06
1697354821.14,0.06,0.02,1.3,-1.3,0.7,2.9,1,-0,-0,0.06
1697354821.15,0.13,-0.01,0.94,-1,0,3.3,1,-0.01,-0,0.06
1697354821.16,0.12,0.01,1.21,-1.7,-1.1,3.1,1,-0.01,-0,0.06
1697354821.17,0.05,0.07,0.89,-2.3,-2.4,3.2,1,-0.01,-0,0.06
1697354821.18,0.03,0.05,1.11,-2.2,-3.4,3.4,1,-0.01,-0,0.06
1697354821.19,0.01,0.07,1.07,-1.1,-3.6,3.2,1,-0.01,-0,0.06
1697354821.2,0.02,0.01,0.79,0,-3.5,3.5,1,-0.01,-0,0.06
1697354821.21,-0.01,0.06,1.04,1.1,-3.2,3.9,1,-0.01,-0,0.06
1697354821.22,0.05,0.02,1.03,1.1,-3.2,3.9,1,-0.01,-0,0.06
1697354821.23,-0.06,0.03,1.05,1.8,-2.9,4.7,1,-0,-0,0.06
1697354821.24,-0.06,0.15,1.1,1.2,-3,5.5,1,-0,-0.01,0.06
1697354821.25,-0.01,0.17,1.19,2.8,-3.1,7.3,1,-0,-0.01,0.06
1697354821.26,-0.03,0.17,0.97,3.4,-3.5,7.8,1,-0,-0.01,0.06
1697354821.27,-0.03,0.12,1.16,2.4,-3.3,8.2,1,-0,-0.01,0.06
1697354821.28,0.08,0.18,0.87,1.2,-3.1,8.8,1,-0,-0.01,0.06
1697354821.29,0.01,0.14,1.01,0.6,-3,9.3,1,-0,-0.01,0.06
1697354821.3,-0.01,0.16,1.18,0.2,-2.9,9.3,1,-0,-0.01,0.07
1697354821.31,0,0.22,0.95,0,-2.7,9.7,1,-0,-0.01,0.07
1697354821.32,-0.01,0.2,0.88,0,-2.7,10,1,-0,-0.01,0.07
1697354821.33,0.02,0.27,1.02,1.1,-3.1,10,1,-0,-0.01,0.07
1697354821.34,0.11,0.17,1.05,0.2,-3.2,10,1,-0,-0.01,0.07
1697354821.35,0.09,0.1,0.97,-1.1,-3.5,9.8,1,-0,-0.01,0.07
1697354821.36,0.12,0.18,0.86,-2.3,-3.7,10,1,-0,-0.01,0.07
1697354821.37,0.02,0.24,0.92,-2.3,-3.7,10,1,-0,-0.01,0.07
1697354821.38,-0.11,0.18,1.14,-2.3,-3,10.9,1,-0,-0.01,0.07
1697354821.39,0.04,0.19,0.9,-2.7,-1.8,11.4,1,-0,-0.01,0.07
1697354821.4,-0.05,0.18,0.95,-2.4,-0.3,11.9,1,-0,-0.01,0.07
1697354821.41,-0.04,0.21,1.09,-1.7,0.7,12.3,1,-0,-0.01,0.08
1697354821.42,-0.04,0.21,1.09,-1.7,0.7,12.3,1,-0,-0.01,0.08
1697354821.43,0.02,0.19,0.98,-1.7,0.7,12.3,1,-0,-0.01,0.08
1697354821.44,0.07,0.16,1.07,-0.7,2,12.6,1,-0,-0.01,0.08
1697354821.45,0.07,0.16,1.07,-0.7,2,12.6,1,-0,-0.01,0.08
1697354821.46,0.07,0.16,1.07,-0.7,2,12.6,1,-0,-0.01,0.08
1697354821.47,0.07,0.16,1.07,-0.7,2,12.6,1,-0,-0.01,0.08
1697354821.48,0.07,0.16,1.07,-0.7,2,12.6,1,-0,-0.01,0.08
1697354821.49,0.07,0.16,1.07,-0.7,2,12.6,1,-0,-0.01,0.08
1697354821.5,0.07,0.16,1.07,-0.7,2,12.6,1,-0,-0.01,0.08
1697354821.51,0.07,0.16,1.07,-0.7,2,12.6,1,-0,-0.01,0.08
1697354821.52,0.07,0.16,1.07,-0.7,2,12.6,1,-0,-0.01,0.08
1697354821.53,0.07,0.16,1.07,-0.7,2,12.6,1,-0,-0.01,0.08
1697354821.54,0.07,0.16,1.07,-0.7,2,12.6,1,-0,-0.01,0.08
1697354821.55,0.07,0.16,1.07,-0.7,2,12.6,1,-0,-0.01,0.08
1697354821.56,0.07,0.16,1.07,-0.7,2,12.6,1,-0,-0.01,0.08
1697354821.57,0.03,0.23,1.04,-0.7,2,12.6,1,-0,-0.01,0.08
1697354821.58,0.07,0.26,1.03,1.3,0.4,16.3,1,0,-0.01,0.1
1697354821.59,0.09,0.26,1.13,1.3,0,16.9,1,0,-0.01,0.1
1697354821.6,0.02,0.24,1.06,0.5,-0.5,17.5,1,0,-0.01,0.1
1697354821.61,-0.07,0.31,1.06,-0.1,-1.1,18.4,0.99,0,-0.01,0.1
1697354821.62,-0.01,0.31,1.08,0.2,-1.9,19.2,0.99,0,-0.01,0.1
1697354821.63,0.06,0.35,0.89,0.2,-1.9,19.2,0.99,0,-0.01,0.1
1697354821.64,-0.01,0.36,0.91,0.2,-1.9,19.2,0.99,0,-0.01,0.1
1697354821.65,0.01,0.35,0.85,1.1,-2.2,21,0.99,0,-0.01,0.11
1697354821.66,0.01,0.37,1.07,1.1,-2.2,21,0.99,0,-0.01,0.11
1697354821.67,0.11,0.36,0.83,1.8,-2.1,22.5,0.99,0.01,-0.01,0.11
1697354821.68,-0.04,0.34,0.97,1.2,-1.9,23.1,0.99,0.01,-0.01,0.11
1697354821.69,-0.06,0.38,1.09,0,-2.2,24,0.99,0.01,-0.01,0.12
1697354821.7,-0.06,0.58,0.95,-0.8,-2.3,24.9,0.99,0.01,-0.01,0.12
1697354821.71,-0.03,0.52,0.94,0.4,-1.7,26,0.99,0.01,-0.01,0.12
1697354821.72,-0.03,0.52,0.94,0.4,-1.7,26,0.99,0.01,-0.01,0.12
1697354821.73,-0.05,0.29,1.12,2.9,0.6,28,0.99,0.01,-0.01,0.12
1697354821.74,-0.05,0.33,1.05,2.9,0.6,28,0.99,0.01,-0.01,0.12
1697354821.75,-0.02,0.31,1.12,0.7,0.8,28.7,0.99,0.01,-0.01,0.13
1697354821.76,0.05,0.34,0.91,-0.1,0.9,28.9,0.99,0.01,-0.01,0.13
1697354821.77,0.11,0.37,0.87,-0.1,0.9,28.9,0.99,0.01,-0.01,0.13
1697354821.78,-0.01,0.36,0.97,0.7,0.7,28.5,0.99,0.01,-0.01,0.14
1697354821.79,0.06,0.4,1.05,1.4,0.3,28.3,0.99,0.01,-0.01,0.14
1697354821.8,-0.01,0.36,0.9,1,0,27.8,0.99,0.01,-0.01,0.14
1697354821.81,-0.12,0.34,1.18,0.2,0,27.5,0.99,0.01,-0.01,0.14
1697354821.82,-0.12,0.34,1.18,0.2,0,27.5,0.99,0.01,-0.01,0.15
1697354821.83,-0.07,0.35,1.03,-4.7,1.4,27.2,0.99,0.01,-0.01,0.15
1697354821.84,-0.07,0.35,1.03,-4.7,1.4,27.2,0.99,0.01,-0.01,0.15
1697354821.85,0.01,0.4,0.9,-4.3,2.4,27.5,0.99,0.01,-0.01,0.15
1697354821.86,0.01,0.45,1.13,-2.2,2.6,27.6,0.99,0.01,-0.01,0.15
1697354821.87,-0.04,0.39,0.84,-0.3,2.8,27.8,0.99,0.01,-0.01,0.16
1697354821.88,-0.02,0.33,0.98,0,2.7,28,0.99,0.01,-0.01,0.16
1697354821.89,0.09,0.23,0.84,-1,2.1,28.1,0.99,0.01,-0.01,0.16
1697354821.9,-0.02,0.21,1.03,-1,2.1,28.1,0.99,0.01,-0.01,0.16
1697354821.91,0,0.24,0.86,-2.4,1.5,28.2,0.99,0.01,-0.01,0.17
1697354821.92,0.1,0.37,0.91,-2.5,0.9,28.2,0.99,0.01,-0.01,0.17
1697354821.93,0.04,0.23,0.76,-1.2,0.8,28.2,0.98,0.01,-0.01,0.17
1697354821.94,0,0.34,0.98,-1.3,0.9,28.2,0.98,0.01,-0.01,0.17
1697354821.95,0.07,0.29,0.93,-0.8,1,28.3,0.98,0.01,-0.01,0.18
1697354821.96,0.16,0.34,0.83,0,0.9,28.3,0.98,0.01,-0.01,0.18
1697354821.97,0.16,0.34,0.83,0,0.9,28.3,0.98,0.01,-0.01,0.18
1697354821.98,0.16,0.34,0.83,0,0.9,28.3,0.98,0.01,-0.01,0.18
1697354821.99,0.16,0.34,0.83,0,0.9,28.3,0.98,0.01,-0.01,0.18
1697354822,0.16,0.34,0.83,0,0.9,28.3,0.98,0.01,-0.01,0.18
1697354822.01,0.16,0.34,0.83,0,0.9,28.3,0.98,0.01,-0.01,0.18
1697354822.02,0.16,0.34,0.83,0,0.9,28.3,0.98,0.01,-0.01,0.18
1697354822.03,0.16,0.34,0.83,0,0.9,28.3,0.98,0.01,-0.01,0.18
1697354822.04,0.16,0.34,0.83,0,0.9,28.3,0.98,0.01,-0.01,0.18
1697354822.05,0.16,0.34,0.83,0,0.9,28.3,0.98,0.01,-0.01,0.18
1697354822.06,0.16,0.34,0.83,0,0.9,28.3,0.98,0.01,-0.01,0.18
1697354822.07,0.16,0.34,0.83,0,0.9,28.3,0.98,0.01,-0.01,0.18
1697354822.08,0.16,0.34,0.83,0,0.9,28.3,0.98,0.01,-0.01,0.18
1697354822.09,0.16,0.34,0.83,0,0.9,28.3,0.98,0.01,-0.01,0.18
1697354822.1,0.16,0.34,0.83,0,0.9,28.3,0.98,0.01,-0.01,0.18
1697354822.11,0.16,0.34,0.83,0,0.9,28.3,0.98,0.01,-0.01,0.18
1697354822.12,0.16,0.34,0.83,0,0.9,28.3,0.98,0.01,-0.01,0.18
1697354822.13,0.16,0.34,0.83,0,0.9,28.3,0.98,0.01,-0.01,0.18
1697354822.14,0.16,0.34,0.83,0,0.9,28.3,0.98,0.01,-0.01,0.18
1697354822.15,0.16,0.34,0.83,0,0.9,28.3,0.98,0.01,-0.01,0.18
1697354822.16,0.16,0.34,0.83,0,0.9,28.3,0.98,0.01,-0.01,0.18
1697354822.17,0.16,0.34,0.83,0,0.9,28.3,0.98,0.01,-0.01,0.18
1697354822.18,0.16,0.34,0.83,0,0.9,28.3,0.98,0.01,-0.01,0.18
1697354822.19,0.16,0.34,0.83,0,0.9,28.3,0.98,0.01,-0.01,0.18
1697354822.2,0.16,0.34,0.83,0,0.9,28.3,0.98,0.01,-0.01,0.18
1697354822.21,0.16,0.34,0.83,0,0.9,28.3,0.98,0.01,-0.01,0.18
1697354822.22,0.16,0.34,0.83,0,0.9,28.3,0.98,0.01,-0.01,0.18
1697354822.23,0.16,0.34,0.83,0,0.9,28.3,0.98,0.01,-0.01,0.18
1697354822.24,0.16,0.34,0.83,0,0.9,28.3,0.98,0.01,-0.01,0.18
1697354822.25,0.16,0.34,0.83,0,0.9,28.3,0.98,0.01,-0.01,0.18
1697354822.26,0.12,0.35,0.9,1.4,0.4,33.9,0.97,0.01,-0,0.26
1697354822.27,-0.06,0.34,1.09,0.4,-0.2,34,0.96,0.01,-0,0.26
1697354822.28,-0.11,0.38,1.02,-0.2,-0.3,34,0.96,0.01,-0,0.27
1697354822.29,-0.11,0.42,1.27,-1.2,-0.3,34.6,0.96,0.01,-0,0.27
1697354822.3,-0.06,0.49,1.02,-1.5,0,35.2,0.96,0.01,-0,0.27
1697354822.31,-0.06,0.59,0.95,-0.2,0.5,35.9,0.96,0.01,-0,0.27
1697354822.32,-0.1,0.64,0.99,2.1,0.8,37,0.96,0.01,-0,0.28
1697354822.33,-0.05,0.58,1.04,4.3,1.1,38,0.96,0.01,-0,0.28
1697354822.34,-0.01,0.42,0.95,4.5,1.5,38.4,0.96,0.01,-0,0.28
1697354822.35,-0.05,0.39,1.1,2.9,1.4,38.9,0.96,0.01,-0,0.29
1697354822.36,-0.09,0.47,0.96,0.4,1.2,39.7,0.96,0.01,-0,0.29
1697354822.37,-0.08,0.58,1.04,0.6,1.2,40.6,0.96,0.01,-0,0.29
1697354822.38,0.1,0.7,0.94,2.8,1.1,41.6,0.95,0.01,-0,0.3
1697354822.39,-0.01,0.63,0.99,4.8,0.8,42.6,0.95,0.01,-0,0.3
1697354822.4,-0.14,0.51,1.11,5.8,0.8,43.3,0.95,0.01,-0,0.3
1697354822.41,-0.02,0.46,0.78,5,1.1,43.8,0.95,0.01,-0,0.3
1697354822.42,-0.05,0.44,1.1,2.7,1,44.1,0.95,0.01,-0,0.31
1697354822.43,-0.1,0.55,0.93,0.2,0.6,44.6,0.95,0.01,-0,0.31
1697354822.44,-0.17,0.62,0.89,-0.7,0.6,45.3,0.95,0.01,-0,0.32
1697354822.45,-0.08,0.69,1.15,0,0.4,45.9,0.95,0.01,-0,0.32
1697354822.46,-0.07,0.69,1.12,0.8,0.5,46.3,0.95,0.01,-0,0.32
1697354822.47,-0.1,0.7,0.96,0.8,0.5,46.3,0.94,0.01,-0,0.33
1697354822.48,-0.04,0.65,1.2,1.8,0.3,47,0.94,0.01,-0,0.33
1697354822.49,-0.01,0.58,1,2,0.3,47.2,0.94,0.01,-0,0.34
1697354822.5,-0.04,0.54,0.96,2,0.3,47.2,0.94,0.01,-0,0.34
1697354822.51,-0.06,0.56,1.07,1.5,0.2,47.2,0.94,0.01,-0,0.34
1697354822.52,-0.01,0.53,0.96,0.6,0.4,47.3,0.94,0.01,-0,0.35
1697354822.53,-0.08,0.56,1.06,-0.1,0.6,47.4,0.94,0.01,-0,0.35
1697354822.54,-0.08,0.56,1.06,-0.4,1,47.5,0.93,0.01,-0,0.36
1697354822.55,-0.03,0.52,0.98,-0.1,1,47.8,0.93,0.01,-0,0.36
1697354822.56,-0.04,0.53,0.93,0.3,0.7,48,0.93,0.01,-0,0.36
1697354822.57,-0.04,0.53,0.93,0.7,0.2,48.1,0.93,0.01,-0,0.37
1697354822.58,0.1,0.52,0.67,0.9,-0.2,48.2,0.93,0.01,-0,0.37
1697354822.59,-0.02,0.58,0.9,1.4,-0.7,48,0.93,0.01,-0,0.38
1697354822.6,0,0.53,1,1.5,-1.4,47.9,0.92,0.01,-0,0.38
1697354822.61,0.07,0.53,1.01,1.6,-1.5,47.5,0.92,0.01,-0,0.38
1697354822.62,-0.04,0.59,1.03,1.8,-1.5,47.5,0.92,0.01,-0,0.39
1697354822.63,-0.11,0.59,0.95,2.1,-1.2,47.5,0.92,0.01,-0,0.39
1697354822.64,-0.17,0.52,1.03,3.2,-0.7,47.6,0.92,0.01,-0,0.4
1697354822.65,-0.17,0.52,1.03,3.2,-0.7,47.6,0.92,0.01,-0,0.4
1697354822.66,-0.17,0.52,1.03,3.2,-0.7,47.6,0.92,0.01,-0,0.4
1697354822.67,-0.17,0.52,1.03,3.2,-0.7,47.6,0.92,0.01,-0,0.4
1697354822.68,-0.17,0.52,1.03,3.2,-0.7,47.6,0.92,0.01,-0,0.4
1697354822.69,-0.17,0.52,1.03,3.2,-0.7,47.6,0.92,0.01,-0,0.4
1697354822.7,-0.17,0.52,1.03,3.2,-0.7,47.6,0.92,0.01,-0,0.4
1697354822.71,-0.17,0.52,1.03,3.2,-0.7,47.6,0.92,0.01,-0,0.4
1697354822.72,-0.17,0.52,1.03,3.2,-0.7,47.6,0.92,0.01,-0,0.4
1697354822.73,-0.17,0.52,1.03,3.2,-0.7,47.6,0.92,0.01,-0,0.4
1697354822.74,-0.17,0.52,1.03,3.2,-0.7,47.6,0.92,0.01,-0,0.4
1697354822.75,-0.17,0.52,1.03,3.2,-0.7,47.6,0.92,0.01,-0,0.4
1697354822.76,-0.17,0.52,1.03,3.2,-0.7,47.6,0.92,0.01,-0,0.4
1697354822.77,-0.17,0.52,1.03,3.2,-0.7,47.6,0.92,0.01,-0,0.4
1697354822.78,-0.03,0.65,1.19,0.5,0,48.5,0.89,0.01,-0,0.45
1697354822.79,-0.04,0.52,1.19,1.5,-0.1,48.5,0.89,0.01,-0,0.45
1697354822.8,-0.01,0.49,0.93,1.3,-0.4,48.1,0.89,0.01,-0,0.45
1697354822.81,-0.03,0.49,0.95,0.8,-0.7,48.1,0.89,0.01,-0,0.46
1697354822.82,-0.02,0.52,0.83,0.8,-0.7,48.1,0.89,0.01,-0,0.46
1697354822.83,-0.1,0.58,1,-0.9,-0.1,47.9,0.88,0.01,-0,0.47
1697354822.84,-0.07,0.61,1.03,-0.1,0.2,47.9,0.88,0.01,-0,0.47
1697354822.85,-0.08,0.6,0.88,1.3,0.6,47.9,0.88,0.01,-0,0.47
1697354822.86,-0.05,0.53,0.91,2.4,0.8,48,0.88,0.01,-0,0.48
1697354822.87,-0.05,0.52,1.08,2.4,0.8,48,0.88,0.01,-0,0.48
1697354822.88,-0.09,0.51,1.2,0.8,0,48.2,0.87,0.01,-0,0.48
1697354822.89,0.05,0.55,1.06,0.8,0,48.2,0.87,0.01,-0,0.49
1697354822.9,-0.02,0.63,0.89,-0.1,-0.1,48.2,0.87,0.01,-0,0.49
1697354822.91,-0.06,0.58,0.92,0.5,0,48.4,0.87,0.01,-0,0.5
1697354822.92,-0.1,0.54,0.97,0.5,0,48.4,0.87,0.01,-0,0.5
1697354822.93,-0.09,0.53,1.18,1.2,0,48.1,0.86,0.01,-0,0.5
1697354822.94,-0.09,0.53,1.18,1.2,0,48.1,0.86,0.01,-0,0.51
1697354822.95,-0.13,0.54,1.18,0.3,0.4,48,0.86,0.01,-0,0.51
1697354822.96,-0.13,0.54,1.18,-0.6,0.3,48,0.86,0.01,-0,0.51
1697354822.97,-0.05,0.6,0.91,-1.5,0.6,47.8,0.86,0.01,-0,0.52
1697354822.98,-0.1,0.6,0.94,-1.3,0.8,48,0.85,0.01,-0,0.52
1697354822.99,-0.09,0.58,0.98,-1.2,0.9,48.1,0.85,0.01,-0,0.52
1697354823,-0.1,0.59,1.02,-0.8,1,48.1,0.85,0.01,-0,0.52
1697354823.01,0,0.56,0.93,-0.7,1.1,48.3,0.85,0.01,-0,0.53
1697354823.02,-0.03,0.51,0.89,-0.6,0.4,48.3,0.85,0.01,-0,0.53
1697354823.03,-0.08,0.57,1.18,-1.2,0.1,48.2,0.84,0.01,-0,0.54
1697354823.04,-0.1,0.57,1.07,-1.5,-0.3,48.2,0.84,0.01,-0,0.54
1697354823.05,0.01,0.57,0.99,-0.8,-0.4,48.1,0.84,0.01,-0,0.54
1697354823.06,-0.11,0.59,0.89,0.1,-0.2,48,0.84,0.01,-0,0.55
1697354823.07,0,0.53,0.85,1.4,0.1,48.1,0.83,0.01,-0,0.55
1697354823.08,0.04,0.44,1.18,2,0.3,48,0.83,0.01,-0,0.55
1697354823.09,0.04,0.44,0.8,1.8,0.7,47.7,0.83,0.01,-0,0.56
1697354823.1,-0.09,0.45,0.94,-0.1,0.9,47.7,0.83,0.01,-0,0.56
1697354823.11,-0.08,0.52,0.87,-1.7,1.2,47.7,0.82,0.01,-0,0.57
1697354823.12,-0.12,0.65,0.99,-0.9,1.5,47.6,0.82,0.01,-0,0.57
1697354823.13,-0.03,0.62,1.18,0.8,1.9,47.8,0.82,0.01,-0,0.57
1697354823.14,-0.07,0.51,1.28,2.3,1.7,47.9,0.82,0.01,-0,0.58
1697354823.15,-0.07,0.51,1.28,2.3,1.7,47.9,0.82,0.01,-0,0.58
1697354823.16,-0.07,0.51,1.28,2.3,1.7,47.9,0.82,0.01,-0,0.58
1697354823.17,-0.07,0.51,1.28,2.3,1.7,47.9,0.82,0.01,-0,0.58
1697354823.18,-0.07,0.51,1.28,2.3,1.7,47.9,0.82,0.01,-0,0.58
1697354823.19,-0.07,0.51,1.28,2.3,1.7,47.9,0.82,0.01,-0,0.58
1697354823.2,-0.07,0.51,1.28,2.3,1.7,47.9,0.82,0.01,-0,0.58
1697354823.21,-0.07,0.51,1.28,2.3,1.7,47.9,0.82,0.01,-0,0.58
1697354823.22,-0.07,0.51,1.28,2.3,1.7,47.9,0.82,0.01,-0,0.58
1697354823.23,-0.07,0.51,1.28,2.3,1.7,47.9,0.82,0.01,-0,0.58
1697354823.24,-0.07,0.51,1.28,2.3,1.7,47.9,0.82,0.01,-0,0.58
1697354823.25,-0.07,0.51,1.28,2.3,1.7,47.9,0.82,0.01,-0,0.58
1697354823.26,-0.07,0.51,1.28,2.3,1.7,47.9,0.82,0.01,-0,0.58
1697354823.27,-0.07,0.51,1.28,2.3,1.7,47.9,0.82,0.01,-0,0.58
1697354823.28,-0.08,0.59,1.08,0,0.2,47.8,0.79,0.01,-0,0.62
1697354823.29,0.07,0.59,0.92,0.7,0.5,47.8,0.78,0.01,-0,0.63
1697354823.3,-0.06,0.5,0.84,0.9,1.3,47.4,0.78,0.01,-0,0.63
1697354823.31,-0.06,0.52,0.99,0.6,1.6,47.4,0.77,0.01,-0,0.63
1697354823.32,-0.04,0.51,1.05,0,1.7,47.5,0.77,0.01,-0,0.63
1697354823.33,0.01,0.55,0.79,0.1,1.4,47.6,0.77,0.01,-0,0.64
1697354823.34,-0,0.59,0.92,0.8,1.3,48,0.77,0.01,-0,0.64
1697354823.35,-0.12,0.59,1.12,0.8,1.3,48,0.76,0.01,-0,0.64
1697354823.36,-0.12,0.59,1.12,1.9,1.1,48.2,0.76,0.01,-0,0.65
1697354823.37,-0.02,0.52,1.17,2.3,1.3,48.3,0.76,0.01,-0,0.65
1697354823.38,-0.04,0.5,1.21,2.2,1.2,48.4,0.76,0.01,-0,0.65
1697354823.39,-0.04,0.5,1.21,1,1.2,48.4,0.76,0.01,-0,0.65
1697354823.4,-0.1,0.59,1.04,-1.2,1.5,48,0.75,0.01,-0,0.66
1697354823.41,-0.12,0.63,1.14,-1,1.6,48.1,0.74,0.01,-0,0.67
1697354823.42,-0.03,0.61,1.15,0.4,1.5,48.2,0.74,0.01,-0,0.67
1697354823.43,-0.04,0.55,0.97,1.1,1.5,48.2,0.74,0.01,-0,0.67
1697354823.44,-0.03,0.49,0.86,1.2,1.1,48.3,0.74,0.01,-0,0.68
1697354823.45,-0.12,0.5,1.06,0.1,1,48.2,0.73,0.01,-0,0.68
1697354823.46,-0.03,0.58,0.8,-1.2,0.7,48.3,0.73,0.01,-0,0.68
1697354823.47,-0.02,0.59,0.88,-1.5,1,48.3,0.73,0.01,-0,0.69
1697354823.48,-0.03,0.57,0.83,-0.6,0.9,48.2,0.72,0.01,-0,0.69
1697354823.49,-0.07,0.54,1.06,0.5,0.7,48.2,0.72,0.01,-0,0.69
1697354823.5,0.02,0.55,0.96,1.1,0.5,48.1,0.72,0.01,-0,0.69
1697354823.51,-0.05,0.51,0.9,0.9,0,47.7,0.72,0.01,-0,0.7
1697354823.52,-0.04,0.53,0.81,0.9,0,47.7,0.72,0.01,-0,0.7
1697354823.53,-0.12,0.6,0.87,-0.5,0.5,47.5,0.71,0.01,-0,0.7
1697354823.54,-0.07,0.58,1.07,-0.5,0.5,47.5,0.71,0.01,-0,0.7
1697354823.55,-0.11,0.56,0.84,-0.3,0.8,47.6,0.71,0.01,-0,0.71
1697354823.56,-0.11,0.56,0.84,0.3,1.3,47.7,0.7,0.01,-0,0.71
1697354823.57,-0.02,0.55,0.77,0.8,1.6,47.8,0.7,0.01,-0,0.71
1697354823.58,-0.08,0.49,1.06,0.4,1.8,47.6,0.7,0.01,-0,0.72
1697354823.59,-0.02,0.46,1.03,-0.2,1.9,47,0.69,0.01,-0,0.72
1697354823.6,0.02,0.41,1.02,-1.1,1.4,46.7,0.69,0.01,-0,0.72
1697354823.61,0.02,0.39,1.11,-1.7,1.4,45.7,0.69,0.01,-0,0.73
1697354823.62,0.06,0.44,0.93,-1.4,1.2,44.8,0.68,0.01,-0,0.73
1697354823.63,0.07,0.4,1.01,-0.6,0.9,43.6,0.68,0.01,-0,0.73
1697354823.64,0.05,0.32,0.9,0,0.3,41.8,0.68,0.01,-0,0.73
1697354823.65,-0.09,0.28,1.17,0,0.3,41.8,0.68,0.01,-0,0.73
1697354823.66,-0.09,0.28,1.17,0,0.3,41.8,0.68,0.01,-0,0.73
1697354823.67,-0.09,0.28,1.17,0,0.3,41.8,0.68,0.01,-0,0.73
1697354823.68,-0.09,0.28,1.17,0,0.3,41.8,0.68,0.01,-0,0.73
1697354823.69,-0.09,0.28,1.17,0,0.3,41.8,0.68,0.01,-0,0.73
1697354823.7,-0.09,0.28,1.17,0,0.3,41.8,0.68,0.01,-0,0.73
1697354823.71,-0.09,0.28,1.17,0,0.3,41.8,0.68,0.01,-0,0.73
1697354823.72,-0.09,0.28,1.17,0,0.3,41.8,0.68,0.01,-0,0.73
1697354823.73,-0.09,0.28,1.17,0,0.3,41.8,0.68,0.01,-0,0.73
1697354823.74,-0.09,0.28,1.17,0,0.3,41.8,0.68,0.01,-0,0.73
1697354823.75,-0.09,0.28,1.17,0,0.3,41.8,0.68,0.01,-0,0.73
1697354823.76,-0.09,0.28,1.17,0,0.3,41.8,0.68,0.01,-0,0.73
1697354823.77,-0.09,0.28,1.17,0,0.3,41.8,0.68,0.01,-0,0.73
1697354823.78,-0.09,0.28,1.17,0,0.3,41.8,0.68,0.01,-0,0.73
1697354823.79,-0,0.18,1.07,-1.6,0.6,25.1,0.65,0.01,-0,0.76
1697354823.8,0.04,0.16,0.95,-1.6,0.6,25.1,0.65,0.01,-0,0.76
1697354823.81,-0.02,0.07,1.08,-0.7,0.2,23.6,0.64,0.01,-0,0.77
1697354823.82,-0.02,0.07,1.08,-0.7,0.2,23.6,0.64,0.01,-0,0.77
1697354823.83,0.05,0.07,0.99,-0.7,-1.2,21.7,0.64,0.01,-0,0.77
1697354823.84,0.05,0.07,0.99,-0.7,-1.2,21.7,0.64,0.01,-0,0.77
1697354823.85,-0.01,0.01,0.97,0.5,-1,19.2,0.64,0.01,-0,0.77
1697354823.86,-0.07,0,1.03,0.5,-1,19.2,0.64,0.01,-0,0.77
1697354823.87,-0.08,0.05,1.15,0.3,-0.8,18,0.64,0.01,-0,0.77
1697354823.88,-0.04,0.05,1.09,-1.1,0.1,15.7,0.63,0.01,-0,0.77
1697354823.89,-0.07,0.08,1.08,-1.6,1.2,14,0.63,0.01,-0,0.77
1697354823.9,0.01,0.12,0.95,-1.1,1.5,13.4,0.63,0.01,-0,0.77
1697354823.91,0.01,0.12,0.95,-1.1,1.5,13.4,0.63,0.01,-0,0.77
1697354823.92,-0.03,0.09,1.2,-0.6,1.3,13,0.63,0.01,-0,0.78
1697354823.93,0.15,0.06,0.68,-0.8,1.2,12.4,0.63,0.01,-0,0.78
1697354823.94,0.15,0.06,0.68,-1.4,0.7,11.9,0.63,0.01,-0,0.78
1697354823.95,0.07,0.04,0.84,-1.7,-0.1,11.3,0.63,0.01,-0,0.78
1697354823.96,0.09,0,0.89,-1.6,-0.5,10.4,0.63,0.01,-0,0.78
1697354823.97,0.04,-0.01,0.9,-1.5,-0.6,9.4,0.63,0.01,-0,0.78
1697354823.98,0.09,-0.03,0.84,-1.7,-0.3,8.5,0.63,0.01,-0,0.78
1697354823.99,0.06,-0.01,0.84,-1.6,-0.1,7.7,0.63,0.01,-0,0.78
1697354824,0.05,-0.02,0.98,-1.3,0.2,6.4,0.63,0.01,-0,0.78
1697354824.01,0.01,-0.09,0.98,-1.5,0.4,5.3,0.63,0.01,-0,0.78
1697354824.02,0.03,-0.12,0.93,-1.9,0.1,4.4,0.63,0.01,-0,0.78
1697354824.03,0.16,-0.03,0.82,-2,-0.4,3.3,0.63,0.01,-0,0.78
1697354824.04,0.03,-0.11,1.12,-2.5,-0.2,2.2,0.62,0.01,-0,0.78
1697354824.05,0.06,-0.14,0.89,-3.1,-0.2,1.1,0.62,0.01,-0.01,0.78
1697354824.06,0.09,-0.06,0.86,-3.2,0.4,0.2,0.62,0.01,-0.01,0.78
1697354824.07,-0.03,-0.07,0.96,-2.5,1.1,-0.6,0.62,0.01,-0.01,0.78
1697354824.08,-0.03,-0.11,1.24,-0.6,1.3,-1.8,0.62,0.01,-0.01,0.78
1697354824.09,0.14,-0.15,0.97,-0.5,1,-2.9,0.63,0.01,-0.01,0.78
1697354824.1,-0.01,-0.28,0.91,-1.4,0.7,-3.7,0.63,0.01,-0.01,0.78
1697354824.11,0.04,-0.27,1.08,-2.8,0.3,-4.7,0.63,0.01,-0.01,0.78
1697354824.12,0.05,-0.23,0.94,-3.6,0,-5.3,0.63,0.01,-0.01,0.78
1697354824.13,0.02,-0.18,0.98,-3,-0.3,-5.9,0.63,0.01,-0.01,0.78
1697354824.14,0.02,-0.18,0.98,-3,-0.3,-5.9,0.63,0.01,-0.01,0.78
1697354824.15,-0.06,-0.21,1,-1.1,-0.7,-7.2,0.63,0.01,-0.01,0.78
1697354824.16,-0.04,-0.26,1.07,-0.3,-1,-7.9,0.63,0.01,-0.01,0.78
1697354824.17,0.01,-0.28,1.07,0.3,-1.1,-9,0.63,0.01,-0.01,0.78
1697354824.18,0.09,-0.32,0.91,0.4,-1.2,-10.2,0.63,0.01,-0.01,0.78
1697354824.19,0.09,-0.32,0.91,0.4,-1.2,-10.2,0.63,0.01,-0.01,0.78
1697354824.2,0.09,-0.32,0.91,0.4,-1.2,-10.2,0.63,0.01,-0.01,0.78
1697354824.21,0.09,-0.32,0.91,0.4,-1.2,-10.2,0.63,0.01,-0.01,0.78
1697354824.22,0.09,-0.32,0.91,0.4,-1.2,-10.2,0.63,0.01,-0.01,0.78
1697354824.23,0.09,-0.32,0.91,0.4,-1.2,-10.2,0.63,0.01,-0.01,0.78
1697354824.24,0.09,-0.32,0.91,0.4,-1.2,-10.2,0.63,0.01,-0.01,0.78
1697354824.25,0.09,-0.32,0.91,0.4,-1.2,-10.2,0.63,0.01,-0.01,0.78
1697354824.26,0.09,-0.32,0.91,0.4,-1.2,-10.2,0.63,0.01,-0.01,0.78
1697354824.27,0.09,-0.32,0.91,0.4,-1.2,-10.2,0.63,0.01,-0.01,0.78
1697354824.28,0.09,-0.32,0.91,0.4,-1.2,-10.2,0.63,0.01,-0.01,0.78
1697354824.29,0.09,-0.32,0.91,0.4,-1.2,-10.2,0.63,0.01,-0.01,0.78
1697354824.3,0.09,-0.32,0.91,0.4,-1.2,-10.2,0.63,0.01,-0.01,0.78
1697354824.31,0.09,-0.32,0.91,0.4,-1.2,-10.2,0.63,0.01,-0.01,0.78
1697354824.32,-0.1,-0.46,1.16,-2.6,1,-26.6,0.65,0,-0.01,0.76
1697354824.33,-0.04,-0.44,0.94,-2,1.5,-27.3,0.65,0,-0.01,0.76
1697354824.34,0.09,-0.44,0.97,-0.8,1,-28.2,0.65,0,-0.01,0.76
1697354824.35,0.04,-0.5,0.95,0,1.1,-28.5,0.65,0,-0.01,0.76
1697354824.36,-0.03,-0.46,1.02,0.2,1.1,-28.9,0.66,0,-0.01,0.76
1697354824.37,0.08,-0.48,1.07,-0.2,1,-29.1,0.66,0,-0.01,0.75
1697354824.38,0.03,-0.47,1.02,-1.6,0.5,-29.4,0.66,0,-0.01,0.75
1697354824.39,0.07,-0.28,0.96,-1.2,0.3,-29.6,0.66,0,-0.01,0.75
1697354824.4,0.09,-0.27,0.98,0.2,-0.2,-29.5,0.66,0,-0.01,0.75
1697354824.41,0.04,-0.33,0.79,1.5,-0.4,-29.7,0.67,0,-0.01,0.75
1697354824.42,0.01,-0.36,1.18,2.1,-0.2,-29.6,0.67,0,-0.01,0.74
1697354824.43,-0.02,-0.43,0.85,2.4,-0.1,-29.7,0.67,0,-0.01,0.74
1697354824.44,-0.08,-0.39,0.96,2.1,0,-29.8,0.67,0,-0.01,0.74
1697354824.45,-0.02,-0.38,1.06,1.1,0.4,-29.6,0.67,0,-0.01,0.74
1697354824.46,-0.01,-0.36,0.96,0,0.7,-29.6,0.68,0,-0.01,0.74
1697354824.47,0.06,-0.37,1.11,0,0,-29.8,0.68,0,-0.01,0.74
1697354824.48,-0.02,-0.39,0.96,-0.3,-0.6,-30,0.68,0,-0.01,0.73
1697354824.49,0.03,-0.35,0.89,-0.8,-0.5,-30,0.68,0,-0.01,0.73
1697354824.5,0.06,-0.36,0.99,-0.8,-0.5,-30.2,0.68,0,-0.01,0.73
1697354824.51,0.04,-0.33,0.74,-0.4,-0.4,-30.5,0.68,0,-0.01,0.73
1697354824.52,-0.05,-0.32,1.02,0.1,-0.5,-30.4,0.68,0,-0.01,0.73
1697354824.53,0.01,-0.3,1.1,0.8,-0.7,-30.5,0.69,0,-0.01,0.73
1697354824.54,-0.11,-0.4,0.98,1.1,-0.6,-30.6,0.69,0,-0.01,0.72
1697354824.55,-0.15,-0.4,1.05,1.1,-0.6,-30.6,0.69,0,-0.01,0.72
1697354824.56,-0.15,-0.4,1.05,1.1,-0.6,-30.6,0.69,0,-0.01,0.72
1697354824.57,-0.15,-0.4,1.05,1.1,-0.6,-30.6,0.69,0,-0.01,0.72
1697354824.58,-0.15,-0.4,1.05,1.1,-0.6,-30.6,0.69,0,-0.01,0.72
1697354824.59,-0.15,-0.4,1.05,1.1,-0.6,-30.6,0.69,0,-0.01,0.72
1697354824.6,-0.15,-0.4,1.05,1.1,-0.6,-30.6,0.69,0,-0.01,0.72
1697354824.61,-0.15,-0.4,1.05,1.1,-0.6,-30.6,0.69,0,-0.01,0.72
1697354824.62,-0.15,-0.4,1.05,1.1,-0.6,-30.6,0.69,0,-0.01,0.72
1697354824.63,-0.15,-0.4,1.05,1.1,-0.6,-30.6,0.69,0,-0.01,0.72
1697354824.64,-0.15,-0.4,1.05,1.1,-0.6,-30.6,0.69,0,-0.01,0.72
1697354824.65,-0.15,-0.4,1.05,1.1,-0.6,-30.6,0.69,0,-0.01,0.72
1697354824.66,-0.15,-0.4,1.05,1.1,-0.6,-30.6,0.69,0,-0.01,0.72
1697354824.67,0.02,-0.28,0.95,0.3,0.1,-31.4,0.71,0,-0.01,0.7
1697354824.68,-0.01,-0.37,0.98,1.3,0.3,-31.3,0.72,0,-0.01,0.7
1697354824.69,-0.08,-0.45,1.01,0.5,0.5,-31.3,0.72,0,-0.01,0.69
1697354824.7,-0.06,-0.47,1.11,-1.3,0.3,-31.2,0.72,0,-0.01,0.69
1697354824.71,-0.04,-0.41,0.99,-2.4,0.2,-31.3,0.72,0,-0.01,0.69
1697354824.72,0.02,-0.29,0.86,-3.7,0,-30.9,0.72,0,-0.01,0.69
1697354824.73,-0.02,-0.25,1.19,-0.4,-0.9,-30.4,0.73,0,-0.01,0.69
1697354824.74,-0.1,-0.42,1.05,1.8,-0.9,-30.8,0.73,0,-0.01,0.69
1697354824.75,-0.03,-0.29,0.96,2,0.4,-30.8,0.73,0,-0.01,0.68
1697354824.76,-0.07,-0.42,1.08,1,1.3,-30.1,0.73,0,-0.01,0.68
1697354824.77,-0.11,-0.39,0.95,1.4,2,-30.2,0.73,0,-0.01,0.68
1697354824.78,-0.02,-0.39,1.08,2.2,2.3,-30.6,0.73,0,-0.01,0.68
1697354824.79,0,-0.44,0.89,2,2.3,-30.2,0.74,0,-0.01,0.68
1697354824.8,0.02,-0.35,0.85,1.3,2.3,-30.2,0.74,0,-0.01,0.68
1697354824.81,-0.03,-0.39,1.01,-0.1,2,-30.2,0.74,0,-0.01,0.67
1697354824.82,0.06,-0.34,1,-0.1,2,-30.2,0.74,0,-0.01,0.67
1697354824.83,0.06,-0.34,1,-0.8,1.1,-30,0.74,0,-0.01,0.67
1697354824.84,0.06,-0.22,1.06,0.3,-0.6,-29.9,0.74,0,-0.01,0.67
1697354824.85,0.03,-0.37,0.93,0.3,-0.6,-29.9,0.75,0,-0.01,0.67
1697354824.86,-0,-0.4,0.93,1,-1.9,-29.9,0.75,0,-0.01,0.66
1697354824.87,-0.04,-0.4,0.88,1,-1.9,-29.9,0.75,0,-0.01,0.66
1697354824.88,-0.11,-0.42,1.05,-0.4,-1,-30.3,0.75,0,-0.01,0.66
1697354824.89,-0.11,-0.42,1.05,-0.4,-1,-30.3,0.75,0,-0.01,0.66
1697354824.9,-0.01,-0.28,0.87,-3,0.3,-30.3,0.76,0,-0.01,0.65
1697354824.91,-0.01,-0.28,0.87,-3,0.3,-30.3,0.76,0,-0.01,0.65
1697354824.92,0.12,-0.23,1.08,-1.9,0.3,-30.3,0.76,0,-0.01,0.65
1697354824.93,0.04,-0.3,1.03,-0.3,0,-30.2,0.76,0,-0.01,0.65
1697354824.94,-0.01,-0.36,1.07,0.2,-0.1,-30.1,0.76,0,-0.01,0.65
1697354824.95,-0.05,-0.42,1.02,0.4,0,-29.9,0.76,0,-0.01,0.64
1697354824.96,-0.02,-0.43,0.98,0.7,0.3,-29.9,0.77,0,-0.01,0.64
1697354824.97,-0.02,-0.44,0.92,-0.5,0.2,-30,0.77,0,-0.01,0.64
1697354824.98,0.07,-0.36,0.9,-2.2,0,-30.1,0.77,0,-0.01,0.64
1697354824.99,0.03,-0.24,0.84,-1.1,0.2,-30.2,0.77,0,-0.01,0.64
1697354825,0.04,-0.29,0.86,0.1,0.2,-29.8,0.77,0,-0.01,0.63
1697354825.01,-0.05,-0.38,1.05,1.7,0.2,-29.6,0.77,0,-0.01,0.63
1697354825.02,0.02,-0.38,1.1,1.4,-0.1,-29.6,0.77,0,-0.01,0.63
1697354825.03,-0.02,-0.42,0.96,0.3,-0.9,-29.4,0.78,0,-0.01,0.63
1697354825.04,0.05,-0.34,0.91,-0.4,-1.3,-29.3,0.78,0,-0.01,0.63
1697354825.05,-0.01,-0.38,0.88,0,-1.6,-29.4,0.78,0,-0.01,0.63
1697354825.06,0.03,-0.3,0.97,0.9,-0.9,-29.3,0.78,0,-0.01,0.62
1697354825.07,0.03,-0.3,0.97,0.9,-0.9,-29.3,0.78,0,-0.01,0.62
1697354825.08,0.03,-0.3,0.97,0.9,-0.9,-29.3,0.78,0,-0.01,0.62
1697354825.09,0.03,-0.3,0.97,0.9,-0.9,-29.3,0.78,0,-0.01,0.62
1697354825.1,0.03,-0.3,0.97,0.9,-0.9,-29.3,0.78,0,-0.01,0.62
1697354825.11,0.03,-0.3,0.97,0.9,-0.9,-29.3,0.78,0,-0.01,0.62
1697354825.12,0.03,-0.3,0.97,0.9,-0.9,-29.3,0.78,0,-0.01,0.62
1697354825.13,0.03,-0.3,0.97,0.9,-0.9,-29.3,0.78,0,-0.01,0.62
1697354825.14,0.03,-0.3,0.97,0.9,-0.9,-29.3,0.78,0,-0.01,0.62
1697354825.15,0.03,-0.3,0.97,0.9,-0.9,-29.3,0.78,0,-0.01,0.62
1697354825.16,0.03,-0.3,0.97,0.9,-0.9,-29.3,0.78,0,-0.01,0.62
1697354825.17,0.03,-0.3,0.97,0.9,-0.9,-29.3,0.78,0,-0.01,0.62
1697354825.18,0.03,-0.3,0.97,0.9,-0.9,-29.3,0.78,0,-0.01,0.62
1697354825.19,0.03,-0.3,0.97,0.9,-0.9,-29.3,0.78,0,-0.01,0.62
1697354825.2,0.03,-0.3,0.97,0.9,-0.9,-29.3,0.78,0,-0.01,0.62
1697354825.21,-0.05,-0.28,1.2,0,0.5,-30.3,0.81,0,-0.01,0.59
1697354825.22,0.01,-0.39,0.99,2.5,0.6,-30.2,0.81,0,-0.01,0.59
1697354825.23,0.05,-0.49,0.88,3,1,-29.9,0.81,0,-0.01,0.59
1697354825.24,-0.13,-0.42,1.16,3,1,-29.9,0.81,0,-0.01,0.59
1697354825.25,0.02,-0.3,0.89,0.3,1.3,-28.7,0.81,0,-0.01,0.58
1697354825.26,0.01,-0.37,0.85,1.5,1.4,-28.6,0.82,0,-0.01,0.58
1697354825.27,0.01,-0.33,1.08,1.5,1.4,-28.6,0.82,0,-0.01,0.58
1697354825.28,0.12,-0.37,1.03,0.7,0.9,-28.3,0.82,0,-0.01,0.58
1697354825.29,0.12,-0.37,1.03,0.7,0.9,-28.3,0.82,0,-0.01,0.57
1697354825.3,0.07,-0.32,0.83,0,0.7,-28.8,0.82,0,-0.01,0.57
1697354825.31,0.07,-0.32,0.83,0.1,0.6,-29.1,0.82,0,-0.01,0.57
1697354825.32,0.08,-0.23,1.08,2.2,0.7,-29.1,0.82,0,-0.01,0.57
1697354825.33,0.06,-0.36,0.91,3.2,0.4,-29.6,0.82,0,-0.01,0.57
1697354825.34,0.01,-0.37,1.1,1.8,0,-29.9,0.83,0,-0.01,0.56
1697354825.35,-0.02,-0.43,1.03,0.8,-0.5,-30.2,0.83,0.01,-0.01,0.56
1697354825.36,-0.01,-0.37,1.13,-0.5,-1.2,-30.2,0.83,0.01,-0.01,0.56
1697354825.37,-0.03,-0.3,1.03,-1.1,-1.2,-30.2,0.83,0.01,-0.01,0.56
1697354825.38,0.05,-0.35,0.83,-1.2,-1.5,-30.2,0.83,0.01,-0.01,0.56
1697354825.39,-0.02,-0.29,0.96,-1.7,-1.3,-30.2,0.83,0.01,-0.01,0.55
1697354825.4,-0.12,-0.29,0.98,-1.5,-0.8,-30,0.83,0.01,-0.01,0.55
1697354825.41,-0,-0.32,1.24,-1,-0.1,-29.9,0.84,0.01,-0.01,0.55
1697354825.42,0.07,-0.31,0.91,-0.7,0.1,-29.6,0.84,0.01,-0.01,0.55
1697354825.43,-0.01,-0.39,1.01,-0.7,0.7,-29.4,0.84,0,-0.01,0.54
1697354825.44,-0.07,-0.36,1,-0.7,0.7,-29.4,0.84,0,-0.01,0.54
1697354825.45,-0.04,-0.35,0.99,-2.2,0.8,-29.2,0.84,0,-0.01,0.54
1697354825.46,-0.02,-0.34,1.17,-1.8,0.7,-29.1,0.84,0,-0.01,0.54
1697354825.47,0.03,-0.35,0.95,-0.5,0.6,-29,0.84,0,-0.01,0.53
1697354825.48,0.05,-0.33,0.78,0.3,0.5,-28.7,0.85,0,-0.01,0.53
1697354825.49,0.09,-0.34,1.09,1.8,0.1,-28.7,0.85,0,-0.01,0.53
1697354825.5,0.07,-0.36,0.81,2.3,0,-28.7,0.85,0,-0.01,0.53
1697354825.51,-0.02,-0.38,0.99,2.1,0,-28.8,0.85,0,-0.01,0.53
1697354825.52,-0.06,-0.4,1.09,0.6,0,-28.9,0.85,0.01,-0.01,0.52
1697354825.53,0,-0.43,1.11,-0.5,-0.3,-28.8,0.85,0.01,-0.01,0.52
1697354825.54,0.06,-0.36,0.87,-1.3,-0.5,-28.6,0.85,0.01,-0.01,0.52
1697354825.55,-0.06,-0.23,1.15,-0.5,-0.3,-28.1,0.86,0,-0.01,0.52
1697354825.56,0,-0.16,1.12,1.4,0,-27.8,0.86,0.01,-0.01,0.52
1697354825.57,0.01,-0.19,0.9,1.4,0,-27.8,0.86,0.01,-0.01,0.52
1697354825.58,0.01,-0.19,0.9,1.9,0.1,-27.7,0.86,0.01,-0.01,0.51
1697354825.59,0.01,-0.19,0.9,1.9,0.1,-27.7,0.86,0.01,-0.01,0.51
1697354825.6,0.01,-0.19,0.9,1.9,0.1,-27.7,0.86,0.01,-0.01,0.51
1697354825.61,0.01,-0.19,0.9,1.9,0.1,-27.7,0.86,0.01,-0.01,0.51
1697354825.62,0.01,-0.19,0.9,1.9,0.1,-27.7,0.86,0.01,-0.01,0.51
1697354825.63,0.01,-0.19,0.9,1.9,0.1,-27.7,0.86,0.01,-0.01,0.51
1697354825.64,0.01,-0.19,0.9,1.9,0.1,-27.7,0.86,0.01,-0.01,0.51
1697354825.65,0.01,-0.19,0.9,1.9,0.1,-27.7,0.86,0.01,-0.01,0.51
1697354825.66,0.01,-0.19,0.9,1.9,0.1,-27.7,0.86,0.01,-0.01,0.51
1697354825.67,0.01,-0.19,0.9,1.9,0.1,-27.7,0.86,0.01,-0.01,0.51
1697354825.68,0.01,-0.19,0.9,1.9,0.1,-27.7,0.86,0.01,-0.01,0.51
1697354825.69,0.01,-0.19,0.9,1.9,0.1,-27.7,0.86,0.01,-0.01,0.51
1697354825.7,0.01,-0.19,0.9,1.9,0.1,-27.7,0.86,0.01,-0.01,0.51
1697354825.71,0.01,-0.19,0.9,-0.4,0,-17.7,0.86,0.01,-0.01,0.51
1697354825.72,-0.04,-0.01,1.08,1.4,0.7,-16.6,0.87,0,-0.01,0.49
1697354825.73,-0.01,-0.09,0.96,3.5,1.2,-15.6,0.87,0,-0.01,0.49
1697354825.74,-0.04,-0.19,1.07,3.1,1.6,-15.3,0.87,0,-0.01,0.48
1697354825.75,-0.06,-0.2,1,2.2,1.7,-15.3,0.88,0,-0.01,0.48
1697354825.76,0.01,-0.18,1.13,0.9,1.8,-15.2,0.88,0,-0.01,0.48
1697354825.77,0,-0.14,0.9,0.2,1.6,-15,0.88,0,-0.01,0.48
1697354825.78,-0.01,-0.04,1.06,0.1,1.6,-14.9,0.88,0,-0.01,0.48
1697354825.79,-0.04,-0.04,0.9,0.3,1.3,-14.1,0.88,0,-0.01,0.48
1697354825.8,0.03,-0.06,1.04,2.1,0.9,-13.6,0.88,0,-0.01,0.48
1697354825.81,0.05,-0.19,0.95,3.2,0.2,-12.8,0.88,0,-0.01,0.48
1697354825.82,0.1,-0.18,0.93,2.3,-0.2,-11.9,0.88,0,-0.01,0.48
1697354825.83,-0,-0.09,0.92,-0.2,-0.8,-11.7,0.88,0,-0.01,0.48
1697354825.84,0.04,-0,0.89,-3.1,-1.3,-11.5,0.88,0,-0.01,0.47
1697354825.85,0.01,0.04,0.88,-4.3,-1.2,-11.4,0.88,0,-0.01,0.47
1697354825.86,0,0,1.01,-3.6,-1,-11.2,0.88,0,-0.01,0.47
1697354825.87,0,0,1.01,-1.9,-1,-10.8,0.88,0,-0.01,0.47
1697354825.88,0.14,-0.04,0.97,0.4,-0.6,-10.5,0.88,0,-0.01,0.47
1697354825.89,-0.07,-0.11,0.91,1.6,-0.3,-10.4,0.88,0,-0.01,0.47
1697354825.9,-0.02,-0.13,1.2,1.6,-0.3,-10.4,0.88,0,-0.01,0.47
1697354825.91,-0.06,-0.09,1.3,1,0.2,-9.9,0.88,0,-0.01,0.47
1697354825.92,-0.06,-0.09,1.3,-0.1,0.4,-9.2,0.88,0,-0.01,0.47
1697354825.93,0.02,-0.04,1.04,-0.5,0.7,-8.5,0.88,0,-0.01,0.47
1697354825.94,0.02,-0.04,1.04,-0.4,0.9,-7.7,0.88,0,-0.01,0.47
1697354825.95,0.01,-0.01,1,-0.2,0.7,-6.6,0.88,0,-0.01,0.47
1697354825.96,-0.05,-0.01,0.67,1.2,0.6,-5.5,0.88,0,-0.01,0.47
1697354825.97,-0.12,-0.01,1.3,3.4,-0.1,-4.1,0.88,0,-0.01,0.47
1697354825.98,-0.01,-0.05,1.05,2.9,-0.4,-3.7,0.88,0,-0.01,0.47
1697354825.99,0.09,-0.01,0.64,2,-0.6,-3.2,0.89,0,-0.01,0.47
1697354826,0.03,0.04,1.02,1.8,-1.2,-2.9,0.89,0,-0.01,0.47
1697354826.01,0.1,0.07,0.96,1.9,-1.5,-2.2,0.89,0,-0.01,0.46
1697354826.02,0.07,0.16,0.84,3,-2,-0.9,0.89,0,-0.01,0.46
1697354826.03,-0.01,0.16,1.08,4.3,-1.7,0,0.89,0,-0.01,0.46
1697354826.04,-0.08,0.11,1.04,3.8,-1.2,0.9,0.89,0,-0.01,0.46
1697354826.05,-0.05,0.08,0.94,2.1,-0.7,1.7,0.89,0,-0.01,0.46
1697354826.06,-0.08,0.1,1.11,-0.1,-0.2,2.7,0.89,0,-0.01,0.47
1697354826.07,0.05,0.2,0.89,-0.9,0.3,3.3,0.89,0,-0.01,0.47
1697354826.08,-0.03,0.3,0.98,-0.5,0.9,4.2,0.88,0,-0.01,0.47
1697354826.09,0.07,0.26,0.93,-0.5,0.9,4.2,0.88,0,-0.01,0.47
1697354826.1,0.09,0.3,1.16,0.9,0.7,5.9,0.88,0.01,-0.01,0.47
1697354826.11,0.09,0.3,1.16,0.9,0.7,5.9,0.88,0.01,-0.01,0.47
1697354826.12,0.09,0.3,1.16,0.9,0.7,5.9,0.88,0.01,-0.01,0.47
1697354826.13,0.09,0.3,1.16,0.9,0.7,5.9,0.88,0.01,-0.01,0.47
1697354826.14,0.09,0.3,1.16,0.9,0.7,5.9,0.88,0.01,-0.01,0.47
1697354826.15,0.09,0.3,1.16,0.9,0.7,5.9,0.88,0.01,-0.01,0.47
1697354826.16,0.09,0.3,1.16,0.9,0.7,5.9,0.88,0.01,-0.01,0.47
1697354826.17,0.09,0.3,1.16,0.9,0.7,5.9,0.88,0.01,-0.01,0.47
1697354826.18,0.09,0.3,1.16,0.9,0.7,5.9,0.88,0.01,-0.01,0.47
1697354826.19,0.09,0.3,1.16,0.9,0.7,5.9,0.88,0.01,-0.01,0.47
1697354826.2,0.09,0.3,1.16,0.9,0.7,5.9,0.88,0.01,-0.01,0.47
1697354826.21,0.09,0.3,1.16,0.9,0.7,5.9,0.88,0.01,-0.01,0.47
1697354826.22,0.09,0.3,1.16,0.9,0.7,5.9,0.88,0.01,-0.01,0.47
1697354826.23,0.01,0.19,1.11,1.5,1.5,13.1,0.88,0.01,-0,0.48
1697354826.24,0.1,0.12,0.83,2.1,1.3,13.2,0.88,0.01,-0,0.48
1697354826.25,-0.01,0.14,1.08,1.8,0.8,13.3,0.88,0.01,-0,0.48
1697354826.26,-0.02,0.14,0.8,1.2,0.6,13.4,0.88,0.01,-0,0.48
1697354826.27,-0.02,0.14,0.8,0.7,0.1,13,0.88,0.01,-0,0.48
1697354826.28,0.02,0.18,0.98,0.7,0.3,12.7,0.88,0.01,-0,0.48
1697354826.29,0.08,0.18,0.81,0.9,0.5,12.3,0.88,0.01,-0,0.48
1697354826.3,-0.04,0.17,0.93,0.5,0.5,12,0.88,0.01,-0,0.48
1697354826.31,-0.11,0.08,1.29,-0.8,0.2,11.7,0.88,0.01,-0,0.48
1697354826.32,-0.02,0.17,1.02,-2,0,11.6,0.87,0.01,-0,0.48
1697354826.33,0.04,0.19,0.7,-2.4,-0.4,11.6,0.87,0.01,-0,0.49
1697354826.34,-0.02,0.28,1.14,-1.2,-1.1,11.8,0.87,0.01,-0,0.49
1697354826.35,0.1,0.16,1.11,0.1,-1.4,11.8,0.87,0.01,-0,0.49
1697354826.36,0.07,0.13,0.79,0.1,-2,12,0.87,0.01,-0,0.49
1697354826.37,0.02,0.05,1,-1.3,-1.9,12.3,0.87,0.01,-0,0.49
1697354826.38,0.14,0.12,0.75,-1.4,-1.7,12.2,0.87,0.01,-0,0.49
1697354826.39,-0.08,0.13,0.85,-1.4,-1.7,12.2,0.87,0.01,-0,0.49
1697354826.4,-0.06,0.14,1.27,-1.5,-1.4,12.4,0.87,0.01,-0,0.49
1697354826.41,-0.07,0.19,1.02,-0.5,-0.9,12.7,0.87,0.01,-0,0.49
1697354826.42,-0.03,0.16,0.99,0.6,-0.7,12.9,0.87,0.01,-0,0.49
1697354826.43,-0.01,0.12,1.03,1.3,0.2,13.1,0.87,0.01,-0,0.5
1697354826.44,-0.04,0.1,1.23,1.1,0.7,13.2,0.87,0.01,-0,0.5
1697354826.45,-0.03,0.1,0.87,0.6,0.8,13.3,0.87,0.01,-0,0.5
1697354826.46,0,0.15,0.78,1,0.8,13.4,0.87,0.01,-0,0.5
1697354826.47,-0.01,0.23,1.04,1.3,0.3,13.5,0.87,0.01,-0,0.5
1697354826.48,-0,0.18,1.02,1.2,0,14,0.87,0.01,-0,0.5
1697354826.49,0.02,0.24,1.11,1.3,-0.2,14.2,0.87,0.01,-0,0.5
1697354826.5,-0.02,0.22,1.01,1.7,-0.6,14.4,0.86,0.01,-0,0.5
1697354826.51,0.11,0.2,0.92,1.7,-0.6,14.4,0.86,0.01,-0,0.5
1697354826.52,0.08,0.1,1.08,1.8,-0.7,14.4,0.86,0.01,-0,0.5
1697354826.53,0.07,0.08,0.89,1.8,-0.7,14.4,0.86,0.01,-0,0.5
1697354826.54,-0.05,0.2,0.82,-0.9,-0.4,13.8,0.86,0.01,-0,0.51
1697354826.55,-0.05,0.2,0.82,-0.9,-0.4,13.8,0.86,0.01,-0,0.51
1697354826.56,-0.02,0.19,1.12,-2,-0.1,13.4,0.86,0.01,-0,0.51
1697354826.57,-0.02,0.19,1.12,-2,-0.1,13.4,0.86,0.01,-0,0.51
1697354826.58,0.08,0.15,0.86,-0.1,0.4,13.1,0.86,0.01,-0,0.51
1697354826.59,0.08,0.15,0.86,-0.1,0.4,13.1,0.86,0.01,-0,0.51
1697354826.6,0.07,0.12,0.76,-0.1,0.7,13.1,0.86,0.01,-0,0.51
1697354826.61,0.01,0.12,1.29,-0.9,0.7,13,0.86,0.01,-0,0.51
1697354826.62,0.01,0.12,1.29,-0.9,0.7,13,0.86,0.01,-0,0.51
1697354826.63,0.01,0.12,1.29,-0.9,0.7,13,0.86,0.01,-0,0.51
1697354826.64,0.01,0.12,1.29,-0.9,0.7,13,0.86,0.01,-0,0.51
1697354826.65,0.01,0.12,1.29,-0.9,0.7,13,0.86,0.01,-0,0.51
1697354826.66,0.01,0.12,1.29,-0.9,0.7,13,0.86,0.01,-0,0.51
1697354826.67,0.01,0.12,1.29,-0.9,0.7,13,0.86,0.01,-0,0.51
1697354826.68,0.01,0.12,1.29,-0.9,0.7,13,0.86,0.01,-0,0.51
1697354826.69,0.01,0.12,1.29,-0.9,0.7,13,0.86,0.01,-0,0.51
1697354826.7,0.01,0.12,1.29,-0.9,0.7,13,0.86,0.01,-0,0.51
1697354826.71,0.01,0.12,1.29,-0.9,0.7,13,0.86,0.01,-0,0.51
1697354826.72,0.01,0.12,1.29,-0.9,0.7,13,0.86,0.01,-0,0.51
1697354826.73,0.01,0.12,1.29,-0.9,0.7,13,0.86,0.01,-0,0.51
1697354826.74,0.05,0.2,1.02,-0.9,0.7,13,0.86,0.01,-0,0.51
1697354826.75,-0.01,0.25,1.29,-0.1,0.2,14.3,0.85,0.01,-0,0.53
1697354826.76,0.1,0.21,0.95,0.9,-0.2,14.1,0.85,0.01,-0,0.53
1697354826.77,0.04,0.16,1.15,1.3,-0.7,14,0.85,0.01,-0,0.53
1697354826.78,0.03,0.15,1.14,0.4,-1.2,14.1,0.85,0.01,-0,0.53
1697354826.79,-0.04,0.12,1.12,-0.8,-1.3,13.9,0.85,0.01,-0,0.53
1697354826.8,-0.09,0.16,1.18,-1.1,-1.2,13.9,0.85,0.01,-0,0.53
1697354826.81,-0.04,0.19,0.84,-1.7,-1.2,14,0.84,0.01,-0,0.53
1697354826.82,-0.01,0.2,0.89,-1.7,-0.8,14.1,0.84,0.01,-0,0.54
1697354826.83,-0.09,0.16,1.09,-0.8,-0.3,13.9,0.84,0.01,-0,0.54
1697354826.84,-0.03,0.15,0.69,0.2,0.3,13.9,0.84,0.01,-0,0.54
1697354826.85,0.01,0.15,0.91,0.3,0.8,14,0.84,0.01,-0,0.54
1697354826.86,0.09,0.17,1.06,0.3,1,13.9,0.84,0.01,-0,0.54
1697354826.87,0.06,0.2,0.94,-0.3,1.4,13.9,0.84,0.01,-0,0.54
1697354826.88,-0.09,0.21,1.15,-0.5,1.4,13.8,0.84,0.01,-0,0.54
1697354826.89,-0.09,0.21,1.15,-0.5,1.4,13.8,0.84,0.01,-0,0.54
1697354826.9,0.01,0.14,0.88,1.2,2.3,14.3,0.84,0.01,-0,0.54
1697354826.91,0.01,0.14,0.88,2.6,2.3,14.1,0.84,0.01,-0,0.54
1697354826.92,-0.02,0.06,1.09,2.6,2.3,14.1,0.84,0.01,-0,0.55
1697354826.93,0.08,0.13,1.03,1.5,2,14.1,0.84,0.01,-0,0.55
1697354826.94,0.06,0.23,1.27,-0.8,1.2,13.9,0.84,0.01,-0,0.55
1697354826.95,0.15,0.21,0.92,-1.9,-1,13.9,0.84,0.01,-0,0.55
1697354826.96,0.03,0.21,0.94,-1.1,-1.6,13.8,0.84,0.01,-0,0.55
1697354826.97,0.01,0.16,0.91,-1.1,-1.6,13.8,0.83,0.01,-0,0.55
1697354826.98,-0.05,0.11,1.06,-0.3,-1.8,13.4,0.83,0.01,-0,0.55
1697354826.99,-0.07,0.08,1.11,0.2,-1.4,13.2,0.83,0.01,-0,0.55
1697354827,-0.03,0.13,1.08,0.3,-0.8,12.6,0.83,0.01,-0,0.55
1697354827.01,0.04,0.12,0.89,-1.2,-0.3,12.5,0.83,0.01,-0,0.55
1697354827.02,0.03,0.16,0.7,-2.2,0.3,12.5,0.83,0.01,-0,0.56
1697354827.03,-0.03,0.17,1.12,-2.6,0.8,12.3,0.83,0.01,-0,0.56
1697354827.04,0.07,0.2,0.82,-2.3,1.3,12.6,0.83,0.01,-0,0.56
1697354827.05,0,0.19,1.05,-1.9,1.4,12.8,0.83,0.01,-0,0.56
1697354827.06,-0.02,0.21,0.93,-0.6,0.9,13,0.83,0.01,-0,0.56
1697354827.07,0.03,0.13,1.03,0.6,0.2,13.1,0.83,0.01,-0,0.56
1697354827.08,0.12,0.11,0.77,1,-0.5,13.1,0.83,0.01,-0,0.56
1697354827.09,0.07,0.05,0.84,0.3,-1.4,13.2,0.83,0.01,-0,0.56
1697354827.1,0,0.14,1.06,-1.1,-1.8,13.3,0.83,0.01,-0,0.56
1697354827.11,-0,0.25,0.86,-1.5,-2.1,13.3,0.83,0.01,-0,0.56
1697354827.12,-0.03,0.26,1.05,0.1,-1.9,13.8,0.82,0.02,-0,0.57
1697354827.13,-0.03,0.26,1.05,0.1,-1.9,13.8,0.82,0.02,-0,0.57
1697354827.14,-0.03,0.26,1.05,0.1,-1.9,13.8,0.82,0.02,-0,0.57
1697354827.15,-0.03,0.26,1.05,0.1,-1.9,13.8,0.82,0.02,-0,0.57
1697354827.16,-0.03,0.26,1.05,0.1,-1.9,13.8,0.82,0.02,-0,0.57
1697354827.17,-0.03,0.26,1.05,0.1,-1.9,13.8,0.82,0.02,-0,0.57
1697354827.18,-0.03,0.26,1.05,0.1,-1.9,13.8,0.82,0.02,-0,0.57
1697354827.19,-0.03,0.26,1.05,0.1,-1.9,13.8,0.82,0.02,-0,0.57
1697354827.2,-0.03,0.26,1.05,0.1,-1.9,13.8,0.82,0.02,-0,0.57
1697354827.21,-0.03,0.26,1.05,0.1,-1.9,13.8,0.82,0.02,-0,0.57
1697354827.22,-0.03,0.26,1.05,0.1,-1.9,13.8,0.82,0.02,-0,0.57
1697354827.23,-0.03,0.26,1.05,0.1,-1.9,13.8,0.82,0.02,-0,0.57
1697354827.24,-0.03,0.26,1.05,0.1,-1.9,13.8,0.82,0.02,-0,0.57
1697354827.25,-0.03,0.26,1.05,0.1,-1.9,13.8,0.82,0.02,-0,0.57
1697354827.26,0.07,0.24,1.15,-3.8,0.1,12,0.82,0.02,-0,0.58
1697354827.27,0.07,0.24,1.15,-4,-0.3,12,0.82,0.02,-0,0.58
1697354827.28,0.01,0.36,0.75,-2.6,-0.7,12.2,0.82,0.02,-0,0.58
1697354827.29,-0.06,0.16,1.13,1.1,-1.9,12,0.81,0.02,-0,0.58
1697354827.3,-0.12,-0.03,1.31,0.7,-3.1,11.6,0.81,0.02,-0,0.58
1697354827.31,-0.06,0.03,0.83,-2.4,-2.1,11.8,0.81,0.02,-0,0.58
1697354827.32,-0.02,0.08,1.18,-4.2,-1.2,11.9,0.81,0.02,-0,0.58
1697354827.33,0.16,0.18,0.94,-3.6,-0.3,11.8,0.81,0.02,-0,0.58
1697354827.34,-0.04,0.27,0.91,-1.4,0.8,12.1,0.81,0.02,-0,0.58
1697354827.35,-0.04,0.33,1.25,1.5,1.9,12.6,0.81,0.02,-0,0.59
1697354827.36,-0,0.11,1.18,3.7,2.2,12.6,0.81,0.02,-0,0.59
1697354827.37,0.06,0.02,1.1,4,2,12.3,0.81,0.02,-0,0.59
1697354827.38,0.01,-0.02,1.19,2.4,1.8,11.4,0.81,0.02,-0,0.59
1697354827.39,-0.03,-0.12,1.22,-0.3,1.3,10.2,0.81,0.02,-0,0.59
1697354827.4,-0.08,0.03,1.07,-0.3,1.3,10.2,0.81,0.02,-0,0.59
1697354827.41,-0.15,0.09,1.29,-1.1,0.7,9.6,0.81,0.02,-0,0.59
1697354827.42,0.08,0.05,0.86,-0.6,0.6,8.9,0.81,0.02,-0,0.59
1697354827.43,0.08,0.04,0.99,0.7,0.4,7.9,0.81,0.02,-0,0.59
1697354827.44,-0.01,-0.1,0.92,0.7,0,7,0.81,0.02,-0,0.59
1697354827.45,0.08,-0.08,1.08,-0.9,-1.2,6,0.81,0.02,-0,0.59
1697354827.46,0.14,-0.02,0.91,-3,-2.2,4.8,0.81,0.02,-0,0.59
1697354827.47,-0.04,0.03,1.09,-4.3,-2.9,3.8,0.81,0.02,-0,0.59
1697354827.48,0.03,0.11,0.89,-4.8,-3.3,2.9,0.81,0.02,-0,0.59
1697354827.49,-0.01,0.06,0.79,-2.3,-3,1.9,0.81,0.02,-0,0.59
1697354827.5,0.03,-0.01,0.71,0.6,-1.2,1.3,0.8,0.02,-0,0.59
1697354827.51,-0.06,-0.12,1.31,0.6,-0.1,1.1,0.8,0.02,-0,0.59
1697354827.52,0.04,-0.16,0.81,-1.5,1,1.2,0.8,0.02,-0,0.59
1697354827.53,-0.05,-0.1,0.93,-2,1.9,1.2,0.8,0.01,-0,0.59
1697354827.54,0.01,-0.01,1.26,-1.6,2.5,1.8,0.8,0.01,-0,0.59
1697354827.55,0.06,0,0.99,0.1,2.3,2,0.8,0.01,-0,0.59
1697354827.56,0.06,0,0.99,0.1,2.3,2,0.8,0.01,-0,0.59
1697354827.57,0.07,-0.03,0.97,1.7,0.5,2.7,0.8,0.01,-0,0.59
1697354827.58,-0.03,0.03,1.19,3.1,-0.3,3.1,0.8,0.01,-0,0.59
1697354827.59,0.03,0.02,1.08,3.1,-0.3,3.1,0.8,0.01,-0,0.59
1697354827.6,0.03,0.02,1.08,3.9,-0.7,2.9,0.8,0.01,-0,0.59
1697354827.61,-0.02,-0.01,0.93,3.9,-0.7,2.9,0.8,0.01,-0,0.59
1697354827.62,-0.02,-0.01,0.93,3.9,-1.2,3,0.8,0.02,-0,0.59
1697354827.63,-0.04,-0.04,1.26,2.6,-0.9,2.9,0.8,0.02,-0,0.6
1697354827.64,0.01,0.06,0.82,1.1,-0.8,2.3,0.8,0.02,-0,0.6
1697354827.65,-0.07,0.04,1.28,-0.5,-0.3,2.4,0.8,0.02,-0,0.6
1697354827.66,-0.07,0.04,1.28,-0.5,-0.3,2.4,0.8,0.02,-0,0.6
1697354827.67,-0.07,0.04,1.28,-0.5,-0.3,2.4,0.8,0.02,-0,0.6
1697354827.68,-0.07,0.04,1.28,-0.5,-0.3,2.4,0.8,0.02,-0,0.6
1697354827.69,-0.07,0.04,1.28,-0.5,-0.3,2.4,0.8,0.02,-0,0.6
1697354827.7,-0.07,0.04,1.28,-0.5,-0.3,2.4,0.8,0.02,-0,0.6
1697354827.71,-0.07,0.04,1.28,-0.5,-0.3,2.4,0.8,0.02,-0,0.6
1697354827.72,-0.07,0.04,1.28,-0.5,-0.3,2.4,0.8,0.02,-0,0.6
1697354827.73,-0.07,0.04,1.28,-0.5,-0.3,2.4,0.8,0.02,-0,0.6
1697354827.74,-0.07,0.04,1.28,-0.5,-0.3,2.4,0.8,0.02,-0,0.6
1697354827.75,-0.07,0.04,1.28,-0.5,-0.3,2.4,0.8,0.02,-0,0.6
1697354827.76,-0.07,0.04,1.28,-0.5,-0.3,2.4,0.8,0.02,-0,0.6
1697354827.77,-0.07,0.04,1.28,-0.5,-0.3,2.4,0.8,0.02,-0,0.6
1697354827.78,-0.07,0.04,1.28,-0.5,-0.3,2.4,0.8,0.02,-0,0.6
1697354827.79,-0.04,-0.17,1.17,1.6,-1.1,2.4,0.8,0.01,-0,0.6
1697354827.8,-0.14,-0.04,1.27,0.6,-0.7,2.3,0.8,0.02,-0,0.6
1697354827.81,0.05,0,1.02,0.4,-0.2,2.4,0.8,0.02,-0,0.6
1697354827.82,0.06,0.01,0.69,0.7,0.4,2.6,0.8,0.02,-0,0.6
1697354827.83,-0.04,0.08,1.23,1.6,1.1,2.6,0.8,0.02,-0,0.6
1697354827.84,-0.03,0.09,1.08,2.1,1.6,2.7,0.8,0.02,-0,0.6
1697354827.85,0.08,0.04,1.2,2.2,1.4,2.8,0.8,0.02,-0,0.6
1697354827.86,0.16,0.02,1.01,1.5,1.1,2.7,0.8,0.02,-0,0.6
1697354827.87,0.07,-0,0.93,0,0.5,2.5,0.8,0.02,-0,0.6
1697354827.88,-0.04,0.06,1.13,-0.7,0,2.3,0.8,0.02,-0,0.6
1697354827.89,0.04,0.04,1.18,-0.9,-0.5,2,0.8,0.02,-0,0.6
1697354827.9,0.1,0.04,0.97,-1.1,-0.8,1.8,0.8,0.02,-0,0.6
1697354827.91,0.05,-0,0.81,-1.7,-0.7,1.5,0.8,0.02,-0,0.6
1697354827.92,-0.06,0.02,1.15,-2.5,-0.6,0.8,0.8,0.02,-0,0.6
1697354827.93,-0.04,0.02,0.77,-3.1,0,0.6,0.8,0.02,-0,0.6
1697354827.94,0.02,0.1,0.81,-4,0.4,0.5,0.8,0.02,-0,0.6
1697354827.95,0.03,0.07,1.3,-4,0.2,0.6,0.8,0.01,-0,0.6
1697354827.96,0,0.04,1.4,-2.9,-0.3,0.8,0.8,0.01,-0,0.6
1697354827.97,-0.04,0.04,1.07,-0.2,-1.1,0.9,0.8,0.01,-0,0.6
1697354827.98,-0.09,-0.07,1.03,0.8,-1,1.3,0.8,0.01,-0,0.6
1697354827.99,0,-0.14,0.94,1.6,-0.6,1.6,0.8,0.01,-0,0.6
1697354828,-0.01,-0.1,1.15,0.6,0.4,1.6,0.8,0.01,-0,0.6
1697354828.01,-0.03,-0.02,0.81,0.6,0.4,1.6,0.8,0.01,-0,0.6
1697354828.02,0.1,0.14,0.83,-0.9,1.3,1.8,0.8,0.01,-0,0.6
1697354828.03,0.02,0.05,1.25,-0.1,2.3,2.2,0.8,0.01,-0,0.6
1697354828.04,0.02,0.05,1.25,1.5,2.1,2.7,0.8,0.01,-0,0.6
1697354828.05,-0,-0.04,0.95,2.4,1.7,2.7,0.8,0.01,-0,0.6
1697354828.06,0.09,-0.01,1.01,1.3,1,2.8,0.8,0.01,-0,0.6
1697354828.07,0.1,0.11,1.13,0.8,0.2,2.8,0.8,0.01,-0,0.6
1697354828.08,0.09,0.12,1.11,0.8,-0.5,2.9,0.8,0.01,-0,0.6
1697354828.09,0.03,0.11,0.82,1.9,-1.1,2.6,0.8,0.01,-0,0.6
1697354828.1,-0.1,0.07,1.31,2.7,-1.8,2.3,0.8,0.01,-0,0.6
1697354828.11,0.14,-0.05,0.83,2.3,-2,2.3,0.8,0.01,-0,0.6
1697354828.12,-0,-0.03,1.1,0.8,-2.4,2,0.8,0.02,-0,0.6
1697354828.13,0,0.03,0.93,-1.8,-2.5,1.8,0.8,0.02,-0,0.6
1697354828.14,0.03,0.09,0.8,-3.5,-2.5,1.7,0.8,0.02,-0,0.6
1697354828.15,-0.01,0.12,1.05,-3.6,-2.7,1.9,0.8,0.02,-0,0.6
1697354828.16,0.01,0.17,1.3,-2.7,-2.5,1.9,0.8,0.02,-0,0.6
1697354828.17,0.01,0.17,1.3,-2.7,-2.5,1.9,0.8,0.02,-0,0.6
1697354828.18,0.01,0.17,1.3,-2.7,-2.5,1.9,0.8,0.02,-0,0.6
1697354828.19,0.01,0.17,1.3,-2.7,-2.5,1.9,0.8,0.02,-0,0.6
1697354828.2,0.01,0.17,1.3,-2.7,-2.5,1.9,0.8,0.02,-0,0.6
1697354828.21,0.01,0.17,1.3,-2.7,-2.5,1.9,0.8,0.02,-0,0.6
1697354828.22,0.01,0.17,1.3,-2.7,-2.5,1.9,0.8,0.02,-0,0.6
1697354828.23,0.01,0.17,1.3,-2.7,-2.5,1.9,0.8,0.02,-0,0.6
1697354828.24,0.01,0.17,1.3,-2.7,-2.5,1.9,0.8,0.02,-0,0.6
1697354828.25,0.01,0.17,1.3,-2.7,-2.5,1.9,0.8,0.02,-0,0.6
1697354828.26,0.01,0.17,1.3,-2.7,-2.5,1.9,0.8,0.02,-0,0.6
1697354828.27,0.01,0.17,1.3,-2.7,-2.5,1.9,0.8,0.02,-0,0.6
1697354828.28,0.01,0.17,1.3,-2.7,-2.5,1.9,0.8,0.02,-0,0.6
1697354828.29,0.01,0.17,1.3,-2.7,-2.5,1.9,0.8,0.02,-0,0.6
1697354828.3,-0.14,0.11,0.87,-0.8,-0.1,1.6,0.8,0.02,-0.01,0.6
1697354828.31,-0.04,0.04,1.15,2.2,1.2,1.6,0.8,0.02,-0.01,0.6
1697354828.32,0.07,-0.15,0.94,3,2.2,1.6,0.8,0.02,-0.01,0.6
1697354828.33,0.19,-0.12,1.21,1.8,2.6,1.2,0.8,0.02,-0,0.6
1697354828.34,0.04,-0.08,1.05,-0.8,2.4,0.7,0.8,0.02,-0,0.6
1697354828.35,-0.04,0.07,0.89,-3.7,1.8,0.5,0.8,0.02,-0,0.6
1697354828.36,-0.04,0.07,0.89,-3.7,1.8,0.5,0.8,0.02,-0,0.6
1697354828.37,0.1,0.12,1.33,-1.5,0.7,0.3,0.8,0.02,-0,0.6
1697354828.38,0.16,-0.03,0.59,1.2,-0.3,0.2,0.8,0.01,-0,0.6
1697354828.39,0.07,-0.12,0.97,1.2,-0.3,0.2,0.8,0.01,-0,0.6
1697354828.4,0.07,-0.12,0.97,2.3,-0.9,0.1,0.8,0.02,-0,0.6
1697354828.41,0.06,-0.08,0.77,-1,-1.8,-0.3,0.8,0.02,-0,0.6
1697354828.42,0.11,-0.01,1.08,-2.9,-2,-0.4,0.8,0.02,-0,0.6
1697354828.43,-0.08,0.09,0.91,-2.6,-1.8,-0.3,0.8,0.02,-0.01,0.6
1697354828.44,-0.08,0.09,0.91,-2.6,-1.8,-0.3,0.8,0.02,-0.01,0.6
1697354828.45,0.06,0.01,1.05,1.7,-0.6,0.2,0.8,0.02,-0.01,0.6
1697354828.46,0.06,0.01,1.05,1.7,-0.6,0.2,0.8,0.02,-0.01,0.6
1697354828.47,-0.05,-0.13,0.98,3.9,0,0.2,0.8,0.02,-0.01,0.6
1697354828.48,-0.1,-0.2,1.42,3.7,0.1,0.5,0.8,0.02,-0.01,0.6
1697354828.49,0.23,-0,0.87,1.5,-0.2,0.4,0.8,0.02,-0.01,0.6
1697354828.5,0.02,0.01,0.77,-0.7,-0.8,0.5,0.8,0.02,-0.01,0.6
1697354828.51,-0.06,0.13,0.97,-1.1,-1.1,0.7,0.8,0.02,-0.01,0.6
1697354828.52,-0.04,0.07,1.18,0.9,-0.6,0.6,0.8,0.02,-0.01,0.6
1697354828.53,0.1,0,1.15,2.9,-0.6,0.6,0.8,0.02,-0.01,0.6
1697354828.54,0.09,-0.02,1.1,3.2,-1.1,0.4,0.8,0.02,-0.01,0.6
1697354828.55,-0.03,-0.06,0.9,2.6,-1.2,0.1,0.8,0.02,-0,0.61
1697354828.56,-0.01,-0.02,0.81,1,-1.3,0,0.8,0.02,-0,0.61
1697354828.57,-0.01,0.01,0.95,-1,-1.1,0,0.8,0.02,-0.01,0.61
1697354828.58,0.02,0.05,1.27,-2.5,-0.9,0,0.8,0.02,-0.01,0.61
1697354828.59,0,0.07,0.78,-2.5,-0.7,0,0.8,0.02,-0.01,0.61
1697354828.6,0.06,0.08,0.92,-1.9,-0.2,0.2,0.8,0.02,-0.01,0.61
1697354828.61,0.1,0.09,0.77,-1.1,0.2,0.5,0.8,0.02,-0.01,0.61
1697354828.62,-0.06,-0.01,0.74,0.3,0.4,0.4,0.8,0.02,-0.01,0.61
1697354828.63,0.06,-0.14,0.88,0.9,1.1,0.1,0.8,0.02,-0.01,0.61
1697354828.64,0.07,-0.11,0.87,0.4,1.1,-0.3,0.8,0.02,-0.01,0.61
1697354828.65,0.05,-0.03,1.16,-1.4,0.8,-0.3,0.8,0.02,-0.01,0.61
1697354828.66,0.01,0.02,1.03,-1.9,0.3,0,0.8,0.02,-0.01,0.61
1697354828.67,-0.01,0.09,0.98,-1,0,0,0.8,0.02,-0.01,0.61
1697354828.68,-0.03,0.06,1.21,1,0,0.3,0.8,0.02,-0.01,0.61
1697354828.69,-0.03,0.06,1.21,1,0,0.3,0.8,0.02,-0.01,0.61
1697354828.7,-0.03,0.06,1.21,1,0,0.3,0.8,0.02,-0.01,0.61
1697354828.71,-0.03,0.06,1.21,1,0,0.3,0.8,0.02,-0.01,0.61
1697354828.72,-0.03,0.06,1.21,1,0,0.3,0.8,0.02,-0.01,0.61
1697354828.73,-0.03,0.06,1.21,1,0,0.3,0.8,0.02,-0.01,0.61
1697354828.74,-0.03,0.06,1.21,1,0,0.3,0.8,0.02,-0.01,0.61
1697354828.75,-0.03,0.06,1.21,1,0,0.3,0.8,0.02,-0.01,0.61
1697354828.76,-0.03,0.06,1.21,1,0,0.3,0.8,0.02,-0.01,0.61
1697354828.77,-0.03,0.06,1.21,1,0,0.3,0.8,0.02,-0.01,0.61
1697354828.78,-0.03,0.06,1.21,1,0,0.3,0.8,0.02,-0.01,0.61
1697354828.79,-0.03,0.06,1.21,1,0,0.3,0.8,0.02,-0.01,0.61
1697354828.8,-0.03,0.06,1.21,1,0,0.3,0.8,0.02,-0.01,0.61
1697354828.81,-0.03,0.06,1.21,1,0,0.3,0.8,0.02,-0.01,0.61
1697354828.82,-0.03,0.06,1.21,1,0,0.3,0.8,0.02,-0.01,0.61
1697354828.83,-0.03,0.06,1.21,1,0,0.3,0.8,0.02,-0.01,0.61
1697354828.84,-0.03,0.06,1.21,1,0,0.3,0.8,0.02,-0.01,0.61
1697354828.85,-0.03,0.06,1.21,1,0,0.3,0.8,0.02,-0.01,0.61
1697354828.86,-0.03,0.06,1.21,1,0,0.3,0.8,0.02,-0.01,0.61
1697354828.87,-0.03,0.06,1.21,1,0,0.3,0.8,0.02,-0.01,0.61
1697354828.88,-0.03,0.06,1.21,1,0,0.3,0.8,0.02,-0.01,0.61
1697354828.89,-0.03,0.06,1.21,1,0,0.3,0.8,0.02,-0.01,0.61
1697354828.9,-0.03,0.06,1.21,1,0,0.3,0.8,0.02,-0.01,0.61
1697354828.91,-0.03,0.06,1.21,1,0,0.3,0.8,0.02,-0.01,0.61
1697354828.92,-0.03,0.06,1.21,1,0,0.3,0.8,0.02,-0.01,0.61
1697354828.93,-0.03,0.06,1.21,1,0,0.3,0.8,0.02,-0.01,0.61
1697354828.94,-0.03,0.06,1.21,1,0,0.3,0.8,0.02,-0.01,0.61
1697354828.95,-0.03,0.06,1.21,1,0,0.3,0.8,0.02,-0.01,0.61
1697354828.96,-0.03,0.06,1.21,1,0,0.3,0.8,0.02,-0.01,0.61
1697354828.97,-0.03,0.06,1.21,1,0,0.3,0.8,0.02,-0.01,0.61
1697354828.98,-0.03,0.06,1.21,1,0,0.3,0.8,0.02,-0.01,0.61
1697354828.99,-0.03,0.06,1.21,1,0,0.3,0.8,0.02,-0.01,0.61
1697354829,-0.03,0.06,1.21,1,0,0.3,0.8,0.02,-0.01,0.61
1697354829.01,-0.03,0.06,1.21,1,0,0.3,0.8,0.02,-0.01,0.61
1697354829.02,-0.03,0.06,1.21,1,0,0.3,0.8,0.02,-0.01,0.61
1697354829.03,-0.03,0.06,1.21,1,0,0.3,0.8,0.02,-0.01,0.61
1697354829.04,0.02,0.04,1.12,-1,-0.4,0,0.79,0.02,-0,0.61
1697354829.05,0.02,-0.03,0.97,-0.2,-0.6,0.2,0.79,0.02,-0,0.61
1697354829.06,0.04,-0.04,0.83,-0.4,-0.6,0.4,0.79,0.02,-0,0.61
1697354829.07,-0.05,-0.05,0.99,-1.5,-0.6,0.6,0.79,0.02,-0,0.61
1697354829.08,0.06,0.02,1,-1.8,-0.3,0.6,0.79,0.02,-0,0.61
1697354829.09,0.08,0.04,0.63,-2,0,0.8,0.79,0.02,-0,0.61
1697354829.1,-0,0.01,1.29,-1.5,0.3,1,0.79,0.02,-0,0.61
1697354829.11,0.04,0.04,0.86,-0.1,0.6,1.3,0.79,0.02,-0,0.61
1697354829.12,0.02,0.04,1.1,0.8,0.9,1.4,0.79,0.02,-0,0.61
1697354829.13,-0.01,0,0.95,2.3,0.7,1.4,0.79,0.02,-0,0.61
1697354829.14,-0.01,0,0.95,2.3,0.7,1.4,0.79,0.02,-0,0.61
1697354829.15,-0.02,-0.06,1.06,2.3,0.7,1.5,0.79,0.02,-0,0.61
1697354829.16,0.03,-0.04,1.12,0.8,0.8,1.6,0.79,0.02,-0,0.61
1697354829.17,0.1,0.1,0.72,0,1,1.5,0.79,0.02,-0,0.61
1697354829.18,-0.02,0.09,1.12,0.3,0.8,1.5,0.79,0.02,-0,0.61
1697354829.19,0.01,0.02,1.18,1.2,0.2,1.5,0.79,0.02,-0,0.61
1697354829.2,0.13,0.03,1.17,1.6,-0.4,1.5,0.79,0.02,-0,0.61
1697354829.21,-0.02,0,1.13,1.4,-1.2,1.3,0.79,0.02,-0,0.61
1697354829.22,0.13,-0,0.86,0.4,-1.6,1.2,0.79,0.02,-0,0.61
1697354829.23,-0.09,0.01,0.97,0.4,-1.6,1.2,0.79,0.02,-0,0.61
1697354829.24,0.07,0.06,1.2,-1.6,-1.8,0.9,0.79,0.02,-0,0.61
1697354829.25,-0.01,0.04,0.87,-1.5,-1.3,1,0.79,0.02,-0,0.61
1697354829.26,-0.01,0.04,0.87,-1.5,-1.3,1,0.79,0.02,-0,0.61
1697354829.27,0.03,-0,1.07,-0.9,-1,0.7,0.79,0.02,-0,0.61
1697354829.28,0.03,-0,1.07,-0.9,-1,0.7,0.79,0.02,-0,0.61
1697354829.29,0.06,0.01,1.06,-1.6,-1,0.9,0.79,0.02,-0,0.61
1697354829.3,0.06,0.01,1.06,-2.6,-0.5,0.8,0.79,0.02,-0,0.61
1697354829.31,-0.01,0.05,1.14,-2.9,-0.7,0.9,0.79,0.02,-0.01,0.61
1697354829.32,0,0.03,0.98,-1.9,-0.5,1.2,0.79,0.02,-0.01,0.61
1697354829.33,0.08,0.02,1.03,-0.1,-0.3,1.1,0.79,0.02,-0.01,0.61
1697354829.34,0.01,0.03,0.99,0.6,-0.3,1.2,0.79,0.02,-0.01,0.61
1697354829.35,-0.07,0.01,0.83,1.2,0.1,1.2,0.79,0.02,-0,0.61
1697354829.36,-0.11,-0.04,1.26,2,0.9,1.2,0.79,0.02,-0,0.61
1697354829.37,-0.01,-0.07,1.06,1.9,1.3,1,0.79,0.02,-0,0.61
1697354829.38,-0.01,-0.05,1.14,0,1.7,1.5,0.79,0.02,-0,0.61
1697354829.39,-0.04,0.03,1.04,0,1.5,1.4,0.79,0.02,-0,0.61
1697354829.4,0.11,0.07,1.16,1.6,0.8,1.3,0.79,0.02,-0,0.61
1697354829.41,0.21,0.03,1.05,3,0.4,1.3,0.79,0.02,-0,0.61
1697354829.42,0.21,0.03,1.05,3,0.4,1.3,0.79,0.02,-0,0.61
1697354829.43,0.21,0.03,1.05,3,0.4,1.3,0.79,0.02,-0,0.61
1697354829.44,0.21,0.03,1.05,3,0.4,1.3,0.79,0.02,-0,0.61
1697354829.45,0.21,0.03,1.05,3,0.4,1.3,0.79,0.02,-0,0.61
1697354829.46,0.21,0.03,1.05,3,0.4,1.3,0.79,0.02,-0,0.61
1697354829.47,0.21,0.03,1.05,3,0.4,1.3,0.79,0.02,-0,0.61
1697354829.48,0.21,0.03,1.05,3,0.4,1.3,0.79,0.02,-0,0.61
1697354829.49,0.21,0.03,1.05,3,0.4,1.3,0.79,0.02,-0,0.61
1697354829.5,0.21,0.03,1.05,3,0.4,1.3,0.79,0.02,-0,0.61
1697354829.51,0.21,0.03,1.05,3,0.4,1.3,0.79,0.02,-0,0.61
1697354829.52,0.21,0.03,1.05,3,0.4,1.3,0.79,0.02,-0,0.61
1697354829.53,0.21,0.03,1.05,3,0.4,1.3,0.79,0.02,-0,0.61
1697354829.54,0.21,0.03,1.05,3,0.4,1.3,0.79,0.02,-0,0.61
1697354829.55,0.03,0,1.2,1.5,0.4,0.8,0.79,0.02,-0,0.61
1697354829.56,-0.04,-0.01,1.02,2.1,0.5,0.8,0.79,0.02,-0,0.61
1697354829.57,0.02,-0.09,0.77,2.3,0.4,1.2,0.79,0.02,-0,0.61
1697354829.58,-0.07,-0.04,1.23,1.1,0.2,1.2,0.79,0.02,-0,0.61
1697354829.59,0.09,0.02,0.93,0.1,0,1.5,0.79,0.02,-0,0.61
1697354829.6,-0.16,0,1.08,0.9,-0.2,1.3,0.79,0.02,-0,0.61
1697354829.61,0.03,0.07,0.82,1.4,-0.6,1.3,0.79,0.02,-0,0.61
1697354829.62,-0.04,0.05,1.25,1.9,-0.2,1.5,0.79,0.02,-0,0.61
1697354829.63,0.03,0.01,1.11,2,-0.7,1.4,0.79,0.02,-0,0.61
1697354829.64,0.01,0.02,0.86,1.4,-0.8,1.2,0.79,0.02,-0,0.61
1697354829.65,0.01,0.02,0.86,1.4,-0.8,1.2,0.79,0.02,-0,0.61
1697354829.66,0.08,-0.01,1.06,0.4,-0.7,1.2,0.79,0.02,-0,0.61
1697354829.67,0.05,0.09,1,-1,-0.4,1,0.79,0.02,-0,0.61
1697354829.68,0.05,0.09,1,-2,-0.4,0.9,0.79,0.02,-0,0.61
1697354829.69,0.06,0.1,0.85,-1.6,-0.5,0.8,0.79,0.02,-0,0.61
1697354829.7,-0.02,0.07,0.95,-0.6,-0.8,0.8,0.79,0.02,-0,0.61
1697354829.71,-0.06,0.01,1.2,0.4,-0.8,0.8,0.79,0.02,-0,0.61
1697354829.72,-0.06,0.01,1.2,1,-0.6,1.1,0.79,0.02,-0,0.61
1697354829.73,-0.09,-0.05,1.01,0.3,-0.1,1.1,0.79,0.02,-0,0.61
1697354829.74,0.05,-0.09,0.95,-0.9,0,1.2,0.79,0.02,-0,0.61
1697354829.75,0.05,-0.04,0.77,-2.1,0.1,1.1,0.79,0.02,-0,0.61
1697354829.76,-0.02,0.03,0.87,-2.3,0.4,1.3,0.79,0.02,-0,0.61
1697354829.77,-0,0.04,1.25,-1.7,0.5,1.6,0.79,0.02,-0,0.61
1697354829.78,0.06,0.06,0.98,-0.5,1,1.8,0.79,0.02,-0,0.61
1697354829.79,0.01,0.09,0.66,1.7,1.4,1.6,0.79,0.02,-0,0.61
1697354829.8,0,0.06,1.12,2.9,1.7,1.7,0.79,0.02,-0,0.61
1697354829.81,-0.18,-0.06,1.15,2.3,1.7,1.7,0.79,0.02,-0,0.61
1697354829.82,-0.14,-0.11,1.09,0.8,1.8,1.6,0.79,0.02,-0,0.61
1697354829.83,-0,-0.02,0.86,-0.3,1.8,1.3,0.79,0.02,-0,0.61
1697354829.84,0.04,0.01,1.13,-0.6,1.9,1.4,0.79,0.02,-0,0.61
1697354829.85,-0.01,0.12,1.2,0,1.9,1.4,0.79,0.02,-0,0.61
1697354829.86,-0.01,0.12,1.2,0,1.9,1.4,0.79,0.02,-0,0.61
1697354829.87,-0.04,0.11,1,2.3,2,1.4,0.79,0.02,-0,0.61
1697354829.88,0.01,-0.03,1.17,1.7,1.1,1.4,0.79,0.02,-0,0.61
1697354829.89,0.06,-0.04,0.84,1.7,1.1,1.4,0.79,0.02,-0,0.61
1697354829.9,-0.04,-0.02,1.11,-2.3,0.4,1.1,0.79,0.02,-0,0.61
1697354829.91,0.01,0.04,1.03,-2.3,0.4,1.1,0.79,0.02,-0,0.61
1697354829.92,0.02,0.13,0.86,-2,0.2,1.2,0.79,0.02,-0,0.61
1697354829.93,0.02,0.12,0.94,-2,0.2,1.2,0.79,0.02,-0,0.61
1697354829.94,0.02,0.12,0.94,-2,0.2,1.2,0.79,0.02,-0,0.61
1697354829.95,0.02,0.12,0.94,-2,0.2,1.2,0.79,0.02,-0,0.61
1697354829.96,0.02,0.12,0.94,-2,0.2,1.2,0.79,0.02,-0,0.61
1697354829.97,0.02,0.12,0.94,-2,0.2,1.2,0.79,0.02,-0,0.61
1697354829.98,0.02,0.12,0.94,-2,0.2,1.2,0.79,0.02,-0,0.61
1697354829.99,0.02,0.12,0.94,-2,0.2,1.2,0.79,0.02,-0,0.61
1697354830,0.02,0.12,0.94,-2,0.2,1.2,0.79,0.02,-0,0.61
1697354830.01,0.02,0.12,0.94,-2,0.2,1.2,0.79,0.02,-0,0.61
1697354830.02,0.02,0.12,0.94,-2,0.2,1.2,0.79,0.02,-0,0.61
1697354830.03,0.02,0.12,0.94,-2,0.2,1.2,0.79,0.02,-0,0.61
1697354830.04,0.02,0.12,0.94,-2,0.2,1.2,0.79,0.02,-0,0.61
1697354830.05,0.02,0.12,0.94,-2,0.2,1.2,0.79,0.02,-0,0.61
1697354830.06,0.02,0.12,0.94,-2,0.2,1.2,0.79,0.02,-0,0.61
1697354830.07,-0.02,0.11,0.97,-1.8,0.8,0.6,0.79,0.02,-0,0.61
1697354830.08,-0.17,0.13,1.11,-0.3,0.3,0.8,0.79,0.02,-0,0.61
1697354830.09,0.11,0.15,1.34,2.9,0.3,1.2,0.79,0.02,-0,0.61
1697354830.1,-0.04,-0.02,1.18,3.4,0.2,1.2,0.79,0.02,-0,0.61
1697354830.11,-0.1,-0.16,1.2,4.1,-0.4,1.1,0.79,0.02,-0,0.61
1697354830.12,0.01,-0.14,0.88,2.5,-1.2,0.7,0.79,0.02,-0,0.61
1697354830.13,-0.03,-0.06,1.3,-0.9,-0.8,0.3,0.79,0.02,-0,0.61
1697354830.14,0.04,0.05,0.96,-3.4,-0.3,0.3,0.79,0.02,-0,0.61
1697354830.15,-0,0.15,1.14,-3.6,0,0.3,0.79,0.02,-0,0.61
1697354830.16,0,0.21,0.68,-2.3,0,0.5,0.79,0.02,-0,0.61
1697354830.17,0.01,0.01,1.15,0,-0.1,0.7,0.79,0.02,-0,0.62
1697354830.18,-0.01,-0.03,1.09,1.6,-0.5,0.6,0.79,0.02,-0,0.62
1697354830.19,0.23,-0.2,0.62,1.7,-0.6,0.4,0.79,0.02,-0,0.62
1697354830.2,-0.14,-0.18,0.99,-0.3,-1.1,-0.2,0.79,0.02,-0,0.62
1697354830.21,0.02,-0.07,1.01,-4.2,-1.3,-0.8,0.79,0.02,-0,0.62
1697354830.22,-0.01,0.12,1.06,-5.8,-1.6,-1.2,0.79,0.02,-0,0.61
1697354830.23,-0.03,0.16,0.7,-3.4,-1.6,-1.3,0.79,0.01,-0,0.61
1697354830.24,-0.04,-0.01,0.97,2.5,-0.5,-1.1,0.79,0.02,-0,0.61
1697354830.25,-0.02,-0.12,0.94,1.3,-0.4,-0.9,0.79,0.02,-0,0.61
1697354830.26,-0.04,-0.1,1.28,-0.3,0.3,-0.9,0.79,0.02,-0,0.61
1697354830.27,0.1,-0.03,1.38,-1.2,1,-0.9,0.79,0.02,-0,0.61
1697354830.28,-0.03,-0.13,0.99,-1.2,1.7,-1,0.79,0.02,-0,0.61
1697354830.29,-0.01,-0.04,1.07,-1.2,1.7,-1,0.79,0.01,-0,0.61
1697354830.3,-0.01,0.13,1.32,-0.8,2.2,-1,0.79,0.01,-0,0.61
1697354830.31,-0.01,0.13,1.32,-0.8,2.2,-1,0.79,0.01,-0,0.61
1697354830.32,-0.03,-0.06,1.21,3.4,1.8,-1.2,0.79,0.01,-0,0.61
1697354830.33,-0.03,-0.06,1.21,3.4,1.8,-1.2,0.79,0.01,-0,0.61
1697354830.34,0.03,-0.18,0.91,-1.8,0,-1.4,0.79,0.01,-0,0.61
1697354830.35,0.03,-0.18,0.91,-1.8,0,-1.4,0.79,0.01,-0,0.61
1697354830.36,0.02,0.13,0.51,-4.1,-1.2,-1.6,0.79,0.01,-0,0.61
1697354830.37,0.02,0.13,0.51,-4.3,-1.5,-1.6,0.79,0.01,-0,0.61
1697354830.38,-0.15,0.01,0.99,-2,-1.5,-1.4,0.79,0.01,-0,0.61
1697354830.39,-0.15,0.01,0.99,0.9,-1.5,-1.1,0.79,0.01,-0,0.61
1697354830.4,0.07,-0.12,0.82,1.8,-1.6,-1.3,0.79,0.01,-0,0.61
1697354830.41,-0.04,-0.18,0.83,1.5,-1.5,-1.6,0.79,0.01,-0,0.61
1697354830.42,-0.05,-0.12,0.98,-0.3,-1.4,-2.2,0.79,0.01,-0,0.61
1697354830.43,0.03,-0.09,0.98,-2.5,-0.6,-2.3,0.79,0.01,-0,0.61
1697354830.44,-0.03,0.04,0.65,-2.8,0.3,-2.7,0.79,0.01,-0,0.61
1697354830.45,0.09,0,1.08,-0.4,0.9,-2.9,0.79,0.01,-0,0.61
1697354830.46,-0.1,-0.07,0.7,1.2,1.4,-2.9,0.79,0.01,-0,0.61
1697354830.47,-0.1,-0.07,0.7,1.2,1.4,-2.9,0.79,0.01,-0,0.61
1697354830.48,-0.1,-0.07,0.7,1.2,1.4,-2.9,0.79,0.01,-0,0.61
1697354830.49,-0.1,-0.07,0.7,1.2,1.4,-2.9,0.79,0.01,-0,0.61
1697354830.5,-0.1,-0.07,0.7,1.2,1.4,-2.9,0.79,0.01,-0,0.61
1697354830.51,-0.1,-0.07,0.7,1.2,1.4,-2.9,0.79,0.01,-0,0.61
1697354830.52,-0.1,-0.07,0.7,1.2,1.4,-2.9,0.79,0.01,-0,0.61
1697354830.53,-0.1,-0.07,0.7,1.2,1.4,-2.9,0.79,0.01,-0,0.61
1697354830.54,-0.1,-0.07,0.7,1.2,1.4,-2.9,0.79,0.01,-0,0.61
1697354830.55,-0.1,-0.07,0.7,1.2,1.4,-2.9,0.79,0.01,-0,0.61
1697354830.56,-0.1,-0.07,0.7,1.2,1.4,-2.9,0.79,0.01,-0,0.61
1697354830.57,-0.1,-0.07,0.7,1.2,1.4,-2.9,0.79,0.01,-0,0.61
1697354830.58,-0.1,-0.07,0.7,1.2,1.4,-2.9,0.79,0.01,-0,0.61
1697354830.59,-0.1,-0.07,0.7,1.2,1.4,-2.9,0.79,0.01,-0,0.61
1697354830.6,-0.1,-0.07,0.7,1.2,1.4,-2.9,0.79,0.01,-0,0.61
1697354830.61,0.01,-0.1,1.05,-1,-2.5,-3.9,0.79,0.01,-0,0.61
1697354830.62,0.07,-0.13,0.47,-2.3,-1.9,-3.7,0.79,0.01,-0,0.61
1697354830.63,-0.03,-0,1.13,-2.5,-1.2,-3.7,0.79,0.01,-0,0.61
1697354830.64,-0.05,0.04,0.79,-0.5,-0.4,-3.5,0.79,0.01,-0,0.61
1697354830.65,0.19,-0.08,0.75,2.8,-0.3,-3.2,0.79,0.01,-0,0.61
1697354830.66,-0.14,-0.16,1.02,4.2,0.1,-3.4,0.79,0.01,-0,0.61
1697354830.67,0.07,-0.16,1,3,0,-3.5,0.79,0.01,-0,0.61
1697354830.68,0.02,-0.2,1.13,-0.1,0,-3.5,0.79,0.01,-0,0.61
1697354830.69,-0.04,-0.1,1.04,-0.9,0.4,-3.7,0.79,0.01,-0,0.61
1697354830.7,0.04,0.06,0.94,-1.6,1.3,-4,0.79,0.01,-0,0.61
1697354830.71,0.04,0.06,0.94,-1.6,1.3,-4,0.8,0.01,-0,0.61
1697354830.72,-0.04,0.01,1.24,1.7,1.6,-3.9,0.8,0.01,-0,0.61
1697354830.73,-0.04,0.01,1.24,1.7,1.6,-3.9,0.8,0.01,-0,0.61
1697354830.74,0.06,-0.14,0.81,2,0.7,-4,0.8,0.01,-0,0.61
1697354830.75,0.06,-0.14,0.81,2,0.7,-4,0.8,0.01,-0,0.61
1697354830.76,0.15,-0.02,1.39,0,0,-4.2,0.8,0.01,-0,0.6
1697354830.77,0.15,-0.02,1.39,-2.2,-0.9,-4.4,0.8,0.01,-0,0.6
1697354830.78,0.08,0.04,0.97,-3,-1.6,-4.3,0.8,0.01,-0,0.6
1697354830.79,0.08,0.04,0.97,-3,-1.6,-4.3,0.8,0.01,-0,0.6
1697354830.8,0.01,-0,0.87,-0.9,-1.5,-4.3,0.8,0.01,-0,0.6
1697354830.81,-0.01,-0.12,0.94,0.8,-1,-4.4,0.8,0.01,-0,0.6
1697354830.82,0.05,-0.2,0.72,0,-0.5,-4.6,0.8,0.01,-0,0.6
1697354830.83,-0.04,-0.12,0.76,-2.7,-0.1,-4.7,0.8,0.01,-0,0.6
1697354830.84,0.02,-0,1.02,-3.4,0,-4.6,0.8,0.01,-0,0.6
1697354830.85,0.15,0.07,0.82,-1.3,0.3,-4.6,0.8,0.01,-0,0.6
1697354830.86,0.21,-0.03,0.93,2.4,0.6,-4.2,0.8,0.01,-0,0.6
1697354830.87,0.03,-0.19,0.94,4.7,0.7,-4.2,0.8,0.01,-0,0.6
1697354830.88,-0.01,-0.23,0.63,3.5,0.8,-4.1,0.8,0.01,-0,0.6
1697354830.89,-0.07,-0.21,1.3,1.1,1.2,-4.2,0.8,0.01,-0,0.6
1697354830.9,0.12,-0.14,0.98,-1.4,0.7,-4.3,0.8,0.01,-0,0.6
1697354830.91,-0.02,-0.01,0.95,-1.4,0.7,-4.3,0.8,0.01,-0,0.6
1697354830.92,0.12,0.06,0.92,-1.7,0.6,-4.1,0.8,0.01,-0,0.6
1697354830.93,-0.03,0.1,1.09,0.6,0.6,-4.1,0.8,0.01,-0,0.6
1697354830.94,-0.08,-0.07,0.76,2.4,0.3,-3.9,0.8,0.01,-0,0.6
1697354830.95,-0.02,-0.08,1.4,2.6,0.2,-4,0.8,0.01,-0,0.6
1697354830.96,0.07,-0.2,0.9,1.8,0.1,-4.1,0.8,0.01,-0,0.6
1697354830.97,0.1,-0.07,0.82,-0.2,0,-4.2,0.8,0.01,-0,0.6
1697354830.98,-0.09,-0.06,1.34,-2.7,0,-4.5,0.8,0.01,-0,0.6
1697354830.99,0.07,0.03,0.9,-2.6,-0.1,-4.5,0.8,0.01,-0,0.6
1697354831,0.07,0.03,0.9,-2.6,-0.1,-4.5,0.8,0.01,-0,0.6
1697354831.01,0.07,0.03,0.9,-2.6,-0.1,-4.5,0.8,0.01,-0,0.6
1697354831.02,0.07,0.03,0.9,-2.6,-0.1,-4.5,0.8,0.01,-0,0.6
1697354831.03,0.07,0.03,0.9,-2.6,-0.1,-4.5,0.8,0.01,-0,0.6
1697354831.04,0.07,0.03,0.9,-2.6,-0.1,-4.5,0.8,0.01,-0,0.6
1697354831.05,0.07,0.03,0.9,-2.6,-0.1,-4.5,0.8,0.01,-0,0.6
1697354831.06,0.07,0.03,0.9,-2.6,-0.1,-4.5,0.8,0.01,-0,0.6
1697354831.07,0.07,0.03,0.9,-2.6,-0.1,-4.5,0.8,0.01,-0,0.6
1697354831.08,0.07,0.03,0.9,-2.6,-0.1,-4.5,0.8,0.01,-0,0.6
1697354831.09,0.07,0.03,0.9,-2.6,-0.1,-4.5,0.8,0.01,-0,0.6
1697354831.1,0.07,0.03,0.9,-2.6,-0.1,-4.5,0.8,0.01,-0,0.6
1697354831.11,0.07,0.03,0.9,-2.6,-0.1,-4.5,0.8,0.01,-0,0.6
1697354831.12,0.07,0.03,0.9,-2.6,-0.1,-4.5,0.8,0.01,-0,0.6
1697354831.13,-0.06,-0.01,1.01,-0.6,0.6,-3.2,0.8,0.01,-0,0.59
1697354831.14,-0.09,0.04,1.5,0.5,0.9,-3.2,0.8,0.01,-0,0.59
1697354831.15,0.08,0,0.89,0.5,0.9,-3.2,0.8,0.01,-0,0.59
1697354831.16,0.08,0,0.89,1.7,0.6,-3.3,0.8,0.01,-0,0.59
1697354831.17,0.03,-0.04,1.29,2.4,0.1,-3.4,0.8,0.01,-0,0.59
1697354831.18,0.03,-0.12,1.19,1.1,-0.2,-3.5,0.81,0.01,-0,0.59
1697354831.19,0.1,-0.09,1.02,-1,-0.9,-3.5,0.81,0.01,-0,0.59
1697354831.2,-0.02,-0.05,0.88,-2.5,-1.5,-3.8,0.81,0.01,-0,0.59
1697354831.21,0.01,0.04,1.14,-3.4,-1.6,-3.8,0.81,0.01,-0,0.59
1697354831.22,0.09,0.04,0.54,-3.3,-1.6,-3.8,0.81,0.01,-0,0.59
1697354831.23,0.01,0,0.91,-1.8,-1.6,-3.6,0.81,0.01,-0,0.59
1697354831.24,0.01,0.04,0.62,-0.3,-1.4,-3.5,0.81,0.01,-0,0.59
1697354831.25,0.03,-0.11,0.92,0.6,-0.4,-3.2,0.81,0.01,-0,0.59
1697354831.26,0.09,-0.17,0.84,0.4,0.5,-3.3,0.81,0.01,-0,0.59
1697354831.27,-0.03,-0.16,0.89,-0.8,1.1,-3.2,0.81,0.01,-0,0.59
1697354831.28,-0.03,-0.16,0.89,-0.8,1.1,-3.2,0.81,0.01,-0,0.59
1697354831.29,-0.04,0.08,1.14,-0.5,0.7,-3,0.81,0.01,-0,0.59
1697354831.3,0.08,0.04,1.02,2.2,0.8,-2.4,0.81,0.01,-0,0.59
1697354831.31,0.03,-0.04,0.64,4.6,0.4,-2,0.81,0.01,-0,0.59
1697354831.32,-0.05,-0.07,1.09,4.1,-0.1,-1.8,0.81,0.01,-0,0.59
1697354831.33,0,-0.16,1.22,4.1,-0.1,-1.8,0.81,0.01,-0,0.59
1697354831.34,0.04,-0.14,1.17,-0.7,-0.6,-1.4,0.81,0.01,-0,0.59
1697354831.35,0.1,-0.05,0.68,-1.6,-0.3,-1.3,0.81,0.01,-0,0.59
1697354831.36,0.1,-0.05,0.68,-1.6,-0.3,-1.3,0.81,0.01,-0,0.59
1697354831.37,0.01,0.11,1.27,0.6,0.2,-0.8,0.81,0.01,-0,0.59
1697354831.38,0.01,0.11,1.27,0.6,0.2,-0.8,0.81,0.01,-0,0.59
1697354831.39,0.03,-0.02,0.91,0.7,1.5,-1,0.81,0.01,-0,0.59
1697354831.4,0.03,-0.02,0.91,0.7,1.5,-1,0.81,0.01,-0,0.59
1697354831.41,0.04,-0.07,1.04,-0.9,1.8,-1.3,0.81,0.01,-0,0.59
1697354831.42,0.12,0.01,0.85,-0.9,1.8,-1.3,0.81,0.01,-0,0.59
1697354831.43,-0.04,0.03,1.06,-1.8,1.7,-1.6,0.81,0.01,-0,0.59
1697354831.44,0.02,0.06,0.87,-1.6,0.5,-1.8,0.81,0.01,-0,0.59
1697354831.45,-0.03,-0.03,1.27,-0.5,0.1,-1.9,0.81,0.01,-0,0.59
1697354831.46,-0.03,-0.03,1.27,-0.5,0.1,-1.9,0.81,0.01,-0,0.59
1697354831.47,0.02,-0.02,0.83,0.1,-0.4,-1.8,0.81,0.01,-0,0.59
1697354831.48,-0.02,-0.04,0.93,-0.2,-1,-1.6,0.81,0.01,-0,0.59
1697354831.49,0.01,0,0.78,-0.8,-1.2,-1.3,0.81,0.01,-0,0.59
1697354831.5,0.01,0,0.78,-0.8,-1.2,-1.3,0.81,0.01,-0,0.59
1697354831.51,0.06,0.04,0.57,-0.7,-0.6,-1,0.81,0.01,-0,0.59
1697354831.52,-0.05,0.04,0.93,0.5,0.5,-0.8,0.81,0.01,-0,0.59
1697354831.53,-0.05,0.04,0.93,0.5,0.5,-0.8,0.81,0.01,-0,0.59
1697354831.54,-0.05,0.04,0.93,0.5,0.5,-0.8,0.81,0.01,-0,0.59
1697354831.55,-0.05,0.04,0.93,0.5,0.5,-0.8,0.81,0.01,-0,0.59
1697354831.56,-0.05,0.04,0.93,0.5,0.5,-0.8,0.81,0.01,-0,0.59
1697354831.57,-0.05,0.04,0.93,0.5,0.5,-0.8,0.81,0.01,-0,0.59
1697354831.58,-0.05,0.04,0.93,0.5,0.5,-0.8,0.81,0.01,-0,0.59
1697354831.59,-0.05,0.04,0.93,0.5,0.5,-0.8,0.81,0.01,-0,0.59
1697354831.6,-0.05,0.04,0.93,0.5,0.5,-0.8,0.81,0.01,-0,0.59
1697354831.61,-0.05,0.04,0.93,0.5,0.5,-0.8,0.81,0.01,-0,0.59
1697354831.62,-0.05,0.04,0.93,0.5,0.5,-0.8,0.81,0.01,-0,0.59
1697354831.63,-0.05,0.04,0.93,0.5,0.5,-0.8,0.81,0.01,-0,0.59
1697354831.64,-0.05,0.04,0.93,0.5,0.5,-0.8,0.81,0.01,-0,0.59
1697354831.65,-0.05,0.04,0.93,0.5,0.5,-0.8,0.81,0.01,-0,0.59
1697354831.66,-0.04,-0.03,1.21,0.8,-0.7,-0.9,0.81,0.01,-0,0.59
1697354831.67,0.04,-0.15,0.86,-1.1,-0.3,-1,0.81,0.01,-0,0.59
1697354831.68,0.11,-0.08,0.87,-2.9,-0.3,-0.9,0.81,0.01,-0,0.59
1697354831.69,0,0.05,1.17,-2.6,0.5,-0.3,0.81,0.01,-0,0.59
1697354831.7,0.05,0.12,0.99,-0.3,1,0,0.81,0.01,-0,0.59
1697354831.71,-0.12,0.13,0.86,2.4,1,0.6,0.81,0.01,-0,0.59
1697354831.72,0.02,0.05,1.09,3.7,1.1,1.1,0.81,0.01,-0,0.59
1697354831.73,0.03,-0.01,1.08,2.4,1.1,1.5,0.81,0.01,-0,0.59
1697354831.74,0.07,-0.04,0.78,0.1,0.6,2,0.81,0.01,-0,0.59
1697354831.75,0.08,0.17,1.12,0.1,0.6,2,0.81,0.01,-0,0.59
1697354831.76,0.08,0.17,1.12,-0.4,0.5,2.2,0.81,0.01,-0,0.59
1697354831.77,-0.1,0.28,0.93,0.5,0.1,4,0.81,0.01,-0,0.59
1697354831.78,-0.1,0.28,0.93,0.5,0.1,4,0.81,0.01,-0,0.59
1697354831.79,0.01,0.06,1.07,4.3,-0.2,6.4,0.81,0.01,-0,0.59
1697354831.8,0.01,0.06,1.07,4.3,-0.2,6.4,0.81,0.01,-0,0.59
1697354831.81,0.15,0.03,0.65,4.6,-0.1,7.2,0.81,0.01,-0,0.59
1697354831.82,0,0.17,1.04,3.4,-0.2,7.6,0.81,0.01,0,0.59
1697354831.83,-0.04,0.29,0.95,-1.8,-0.4,8.4,0.81,0.01,-0,0.59
1697354831.84,-0.02,0.33,1.12,-1.8,-0.4,8.4,0.81,0.01,-0,0.59
1697354831.85,-0.06,0.36,1.17,-2.2,-0.2,9,0.81,0.01,-0,0.59
1697354831.86,-0.06,0.28,0.86,0,-0.5,10.1,0.81,0.01,-0,0.59
1697354831.87,-0.01,0.19,1.03,2.2,-0.5,11,0.8,0.01,-0,0.59
1697354831.88,0.03,0.08,1.43,3,-0.6,11.6,0.8,0.02,-0,0.59
1697354831.89,-0.04,0.22,0.86,1.3,-0.6,12.1,0.8,0.02,-0,0.59
1697354831.9,0.01,0.42,0.78,-1.6,-0.4,12.6,0.8,0.02,-0,0.6
1697354831.91,-0.08,0.49,1.21,-2.9,-0.4,13.3,0.8,0.01,-0,0.6
1697354831.92,0.06,0.32,0.73,-1.3,0,14.6,0.8,0.01,-0,0.6
1697354831.93,0.06,0.32,0.73,-1.3,0,14.6,0.8,0.01,-0,0.6
1697354831.94,0.1,0.2,1.24,5,1.3,17,0.8,0.02,0,0.6
1697354831.95,-0.01,0.24,1.08,2.6,1.3,17.8,0.8,0.02,0,0.6
1697354831.96,0.02,0.43,0.76,2.6,1.3,17.8,0.8,0.02,0,0.6
1697354831.97,-0.14,0.49,1.45,-2.2,1.4,19.3,0.8,0.01,0,0.6
1697354831.98,0.02,0.43,0.95,-1.5,1.6,20.4,0.8,0.01,0,0.61
1697354831.99,0.13,0.46,1,0.4,1.3,21.2,0.79,0.01,0,0.61
1697354832,0.01,0.23,1,2.7,1.2,21.9,0.79,0.02,0,0.61
1697354832.01,0.02,0.21,0.93,4.4,0.3,22.3,0.79,0.02,0,0.61
1697354832.02,0.01,0.15,1.35,3.5,-0.6,22.3,0.79,0.02,0,0.61
1697354832.03,0.06,0.26,0.59,0.3,-1.1,22,0.79,0.02,0,0.61
1697354832.04,0.01,0.47,0.94,-2.8,-1.4,21.7,0.79,0.02,0,0.62
1697354832.05,-0.04,0.51,0.96,-4.5,-1.4,21.6,0.79,0.02,0,0.62
1697354832.06,-0.04,0.51,0.96,-4.5,-1.4,21.6,0.79,0.02,0,0.62
1697354832.07,-0.04,0.51,0.96,-4.5,-1.4,21.6,0.79,0.02,0,0.62
1697354832.08,-0.04,0.51,0.96,-4.5,-1.4,21.6,0.79,0.02,0,0.62
1697354832.09,-0.04,0.51,0.96,-4.5,-1.4,21.6,0.79,0.02,0,0.62
1697354832.1,-0.04,0.51,0.96,-4.5,-1.4,21.6,0.79,0.02,0,0.62
1697354832.11,-0.04,0.51,0.96,-4.5,-1.4,21.6,0.79,0.02,0,0.62
1697354832.12,-0.04,0.51,0.96,-4.5,-1.4,21.6,0.79,0.02,0,0.62
1697354832.13,-0.04,0.51,0.96,-4.5,-1.4,21.6,0.79,0.02,0,0.62
1697354832.14,-0.04,0.51,0.96,-4.5,-1.4,21.6,0.79,0.02,0,0.62
1697354832.15,-0.04,0.51,0.96,-4.5,-1.4,21.6,0.79,0.02,0,0.62
1697354832.16,-0.04,0.51,0.96,-4.5,-1.4,21.6,0.79,0.02,0,0.62
1697354832.17,-0.04,0.51,0.96,-4.5,-1.4,21.6,0.79,0.02,0,0.62
1697354832.18,-0.04,0.51,0.96,-4.5,-1.4,21.6,0.79,0.02,0,0.62
1697354832.19,-0.04,0.37,0.97,0.1,-0.3,22.8,0.77,0.01,-0,0.64
1697354832.2,-0,0.34,0.83,0.1,-0.3,22.8,0.77,0.01,-0,0.64
1697354832.21,-0.02,0.33,1.01,0.7,0.3,22.8,0.77,0.02,-0,0.64
1697354832.22,0.03,0.34,0.93,1.2,0.6,22.7,0.77,0.02,-0,0.64
1697354832.23,-0.04,0.27,1.41,0.5,0.7,22.8,0.77,0.02,-0,0.64
1697354832.24,0.1,0.3,0.79,-0.3,0.6,22.5,0.76,0.01,-0,0.64
1697354832.25,0.04,0.33,0.81,-1.5,0.3,22.6,0.76,0.01,-0,0.65
1697354832.26,-0.06,0.46,1.02,-1.5,0,22.8,0.76,0.01,-0,0.65
1697354832.27,0.01,0.41,1.2,-0.7,-0.3,23,0.76,0.01,-0,0.65
1697354832.28,0.11,0.33,0.73,0.1,-0.6,23.2,0.76,0.01,-0,0.65
1697354832.29,-0.03,0.3,0.95,0.2,-1,23.3,0.76,0.01,-0,0.65
1697354832.3,0.03,0.28,1.06,-0.9,-1.1,23.3,0.76,0.01,-0,0.65
1697354832.31,0.01,0.37,1.01,-2.6,-1.4,23.2,0.75,0.01,-0,0.66
1697354832.32,0.12,0.49,0.91,-3.2,-1.3,23.3,0.75,0.01,-0,0.66
1697354832.33,0.02,0.52,1.11,-1.1,-1.1,24,0.75,0.01,-0,0.66
1697354832.34,-0.07,0.36,1.16,1.6,-0.5,24.5,0.75,0.01,-0,0.66
1697354832.35,-0.04,0.28,0.66,3,0.4,24.8,0.75,0.01,-0,0.66
1697354832.36,-0.08,0.3,1.36,1.9,1.3,25.4,0.75,0.01,-0,0.66
1697354832.37,-0.09,0.43,0.95,0,1.9,25.9,0.75,0.01,-0,0.67
1697354832.38,0.07,0.41,1.05,0,1.9,25.9,0.75,0.01,-0,0.67
1697354832.39,0.01,0.44,1.22,0.5,1.8,27.2,0.74,0.01,-0,0.67
1697354832.4,-0,0.41,0.85,1.3,1.4,27.9,0.74,0.01,-0,0.67
1697354832.41,-0,0.41,0.85,1.3,1.4,27.9,0.74,0.01,-0,0.67
1697354832.42,0.07,0.37,1.09,-0.6,-1.1,28.4,0.74,0.01,-0,0.68
1697354832.43,0.07,0.37,1.09,-0.6,-1.1,28.4,0.74,0.01,-0,0.68
1697354832.44,-0.04,0.42,1.07,-0.1,-2.1,28.5,0.74,0.01,-0,0.68
1697354832.45,-0.06,0.42,1.22,0.5,-2.5,28.1,0.73,0.01,-0,0.68
1697354832.46,-0.01,0.32,0.68,0.8,-2.3,28,0.73,0.01,-0,0.68
1697354832.47,-0.13,0.32,1.09,0.4,-2,27.6,0.73,0.02,-0,0.68
1697354832.48,-0.03,0.35,0.99,-1.1,-1.5,27.2,0.73,0.02,-0,0.68
1697354832.49,0,0.4,0.76,-2,-1.2,26.9,0.73,0.02,-0,0.69
1697354832.5,-0.04,0.44,0.83,-2.6,-0.7,26.9,0.73,0.02,-0,0.69
1697354832.51,-0.04,0.44,0.83,-2.6,-0.7,26.9,0.72,0.02,-0,0.69
1697354832.52,0.04,0.41,1.11,-0.7,0.2,27,0.72,0.02,-0,0.69
1697354832.53,-0.01,0.36,1.28,1.2,0.1,27.3,0.72,0.01,-0,0.69
1697354832.54,0.05,0.3,0.94,1.8,-0.2,27.4,0.72,0.02,-0,0.69
1697354832.55,0.01,0.32,0.67,0.7,-0.3,27.7,0.72,0.02,-0,0.7
1697354832.56,0.01,0.32,0.67,0.7,-0.3,27.7,0.72,0.02,-0,0.7
1697354832.57,0.01,0.32,0.67,0.7,-0.3,27.7,0.72,0.02,-0,0.7
1697354832.58,0.01,0.32,0.67,0.7,-0.3,27.7,0.72,0.02,-0,0.7
1697354832.59,0.01,0.32,0.67,0.7,-0.3,27.7,0.72,0.02,-0,0.7
1697354832.6,0.01,0.32,0.67,0.7,-0.3,27.7,0.72,0.02,-0,0.7
1697354832.61,0.01,0.32,0.67,0.7,-0.3,27.7,0.72,0.02,-0,0.7
1697354832.62,0.01,0.32,0.67,0.7,-0.3,27.7,0.72,0.02,-0,0.7
1697354832.63,0.01,0.32,0.67,0.7,-0.3,27.7,0.72,0.02,-0,0.7
1697354832.64,0.01,0.32,0.67,0.7,-0.3,27.7,0.72,0.02,-0,0.7
1697354832.65,0.01,0.32,0.67,0.7,-0.3,27.7,0.72,0.02,-0,0.7
1697354832.66,0.01,0.32,0.67,0.7,-0.3,27.7,0.72,0.02,-0,0.7
1697354832.67,0.01,0.32,0.67,0.7,-0.3,27.7,0.72,0.02,-0,0.7
1697354832.68,0.01,0.32,0.67,0.7,-0.3,27.7,0.72,0.02,-0,0.7
1697354832.69,0.01,0.32,0.67,0.7,-0.3,27.7,0.72,0.02,-0,0.7
1697354832.7,0.01,0.32,0.67,0.7,-0.3,27.7,0.72,0.02,-0,0.7
1697354832.71,0.01,0.32,0.67,0.7,-0.3,27.7,0.72,0.02,-0,0.7
1697354832.72,0.01,0.32,0.67,0.7,-0.3,27.7,0.72,0.02,-0,0.7
1697354832.73,0.01,0.32,0.67,0.7,-0.3,27.7,0.72,0.02,-0,0.7
1697354832.74,-0.07,0.24,1.27,0.3,-1.1,24.8,0.69,0.02,-0,0.73
1697354832.75,-0.03,0.27,1.22,-0.9,-2.2,24.5,0.68,0.02,-0,0.73
1697354832.76,-0.06,0.3,0.95,-2.3,-2.6,24.7,0.68,0.02,-0,0.73
1697354832.77,-0.11,0.39,0.95,-2,-1.9,24.7,0.68,0.02,-0.01,0.73
1697354832.78,-0.14,0.27,0.91,-0.2,-0.9,24.3,0.68,0.02,-0.01,0.73
1697354832.79,0.07,0.2,0.96,0.4,0,23.9,0.68,0.02,-0.01,0.74
1697354832.8,-0.02,0.17,1,-0.2,0.5,23.4,0.68,0.02,-0.01,0.74
1697354832.81,-0.02,0.17,1,-0.2,0.5,23.4,0.67,0.02,-0.01,0.74
1697354832.82,0.03,0.08,0.98,-0.2,1.1,21.1,0.67,0.02,-0.01,0.74
1697354832.83,0.03,0.08,0.98,-0.2,1.1,21.1,0.67,0.02,-0.01,0.74
1697354832.84,-0.01,0.11,0.75,-1.1,1.3,18.1,0.67,0.02,-0.01,0.74
1697354832.85,-0.03,0.19,1.44,-1.1,1.3,18.1,0.67,0.02,-0.01,0.74
1697354832.86,0.06,0.1,1.05,0,-0.2,15.9,0.67,0.01,-0.01,0.74
1697354832.87,0.06,0.1,1.05,0,-0.2,15.9,0.67,0.01,-0.01,0.75
1697354832.88,-0.04,0.01,0.75,0.6,-1.2,15.1,0.67,0.01,-0.01,0.75
1697354832.89,0.02,0.11,1.1,0,-2,14.4,0.66,0.02,-0.01,0.75
1697354832.9,0.02,0.11,1.1,-1.8,-2.5,13.9,0.66,0.02,-0.01,0.75
1697354832.91,0.03,0.08,0.46,-3.1,-2.4,13,0.66,0.02,-0.01,0.75
1697354832.92,-0.08,0.07,1.21,-1.7,-2.3,12,0.66,0.02,-0.01,0.75
1697354832.93,-0.05,-0.08,1.25,1.1,-2.2,10.7,0.66,0.02,-0.01,0.75
1697354832.94,-0.05,-0.34,1.15,2.2,-1.4,8.8,0.66,0.02,-0.01,0.75
1697354832.95,0.03,-0.24,1.13,-0.2,-0.1,6.4,0.66,0.02,-0.01,0.75
1697354832.96,-0.01,-0.13,0.84,-5.3,1,4.9,0.66,0.02,-0.01,0.75
1697354832.97,0.01,0.24,1,-5.6,1.6,3.3,0.66,0.02,-0.01,0.75
1697354832.98,0.07,0,1.3,-2.3,1.7,3.1,0.66,0.01,-0.01,0.75
1697354832.99,-0.04,-0.07,0.66,2.3,1.4,2.4,0.66,0.01,-0.01,0.75
1697354833,-0.01,-0.1,1.02,3,0.9,1.9,0.66,0.01,-0.01,0.75
1697354833.01,0.01,-0.24,1.06,0.2,0.6,1.3,0.66,0.01,-0.01,0.75
1697354833.02,0,-0.3,1.14,0.2,0.6,1.3,0.66,0.01,-0.01,0.75
1697354833.03,0.06,-0.12,1.03,-2.8,0.3,0.5,0.66,0.01,-0.01,0.75
1697354833.04,-0.07,-0,0.82,-2.6,-0.4,-0.1,0.66,0.01,-0.01,0.75
1697354833.05,-0.03,-0.06,1.24,-0.1,-0.9,-0.6,0.66,0.01,-0.01,0.75
1697354833.06,0.01,-0.15,0.86,1.8,-1.4,-1.2,0.66,0.01,-0.01,0.75
1697354833.07,-0.02,-0.17,0.89,1.9,-1,-1.9,0.66,0.01,-0.01,0.75
1697354833.08,-0.02,-0.23,1.14,1.8,-0.7,-3,0.66,0.02,-0.01,0.75
1697354833.09,0.05,-0.22,0.89,-1.8,-0.5,-4.4,0.66,0.02,-0.01,0.75
1697354833.1,-0.01,-0.1,0.85,-2.5,-0.4,-4.7,0.66,0.01,-0.01,0.75
1697354833.11,-0.15,-0,1.22,-2.4,-0.4,-4.9,0.66,0.01,-0.01,0.75
1697354833.12,-0.15,-0,1.22,-2.4,-0.4,-4.9,0.66,0.01,-0.01,0.75
1697354833.13,-0.15,-0,1.22,-2.4,-0.4,-4.9,0.66,0.01,-0.01,0.75
1697354833.14,-0.15,-0,1.22,-2.4,-0.4,-4.9,0.66,0.01,-0.01,0.75
1697354833.15,-0.15,-0,1.22,-2.4,-0.4,-4.9,0.66,0.01,-0.01,0.75
1697354833.16,-0.15,-0,1.22,-2.4,-0.4,-4.9,0.66,0.01,-0.01,0.75
1697354833.17,-0.15,-0,1.22,-2.4,-0.4,-4.9,0.66,0.01,-0.01,0.75
1697354833.18,-0.15,-0,1.22,-2.4,-0.4,-4.9,0.66,0.01,-0.01,0.75
1697354833.19,-0.15,-0,1.22,-2.4,-0.4,-4.9,0.66,0.01,-0.01,0.75
1697354833.2,-0.15,-0,1.22,-2.4,-0.4,-4.9,0.66,0.01,-0.01,0.75
1697354833.21,-0.15,-0,1.22,-2.4,-0.4,-4.9,0.66,0.01,-0.01,0.75
1697354833.22,-0.15,-0,1.22,-2.4,-0.4,-4.9,0.66,0.01,-0.01,0.75
1697354833.23,-0.15,-0,1.22,-2.4,-0.4,-4.9,0.66,0.01,-0.01,0.75
1697354833.24,-0.15,-0,1.22,0.5,2,-10.8,0.67,0.01,-0.01,0.75
1697354833.25,0.03,-0.23,0.72,-1.6,1.4,-11.9,0.67,0.01,-0.01,0.74
1697354833.26,-0,-0.14,1.15,-2.7,0.3,-12.5,0.67,0.01,-0.01,0.74
1697354833.27,-0,-0.14,1.15,-2.1,-0.9,-12.9,0.67,0.01,-0.01,0.74
1697354833.28,-0.02,-0.21,1.07,0,-1.3,-13.3,0.67,0.01,-0.01,0.74
1697354833.29,0.05,-0.31,0.59,2.5,-1.6,-13.8,0.67,0.01,-0.01,0.74
1697354833.3,-0.06,-0.3,1.1,2.3,-1.7,-14,0.67,0.01,-0.01,0.74
1697354833.31,-0.06,-0.3,1.1,0,-1.8,-14.3,0.67,0.01,-0.01,0.74
1697354833.32,0,-0.25,0.89,-2.2,-1.5,-14.6,0.67,0.01,-0.01,0.74
1697354833.33,-0.05,-0.18,0.91,-3.2,-1.2,-14.8,0.67,0.01,-0.01,0.74
1697354833.34,0.03,-0.06,0.61,-2.8,-0.7,-14.9,0.68,0.01,-0.01,0.74
1697354833.35,-0.09,-0.1,1.01,-1,-0.1,-14.7,0.68,0.01,-0.01,0.74
1697354833.36,-0.06,-0.23,1.12,1.3,0.1,-14.6,0.68,0.01,-0.01,0.74
1697354833.37,0.01,-0.34,0.5,1.2,0.8,-15.1,0.68,0.01,-0.01,0.73
1697354833.38,-0.09,-0.28,1.22,1.2,0.8,-15.1,0.68,0.01,-0.01,0.73
1697354833.39,0.02,-0.25,1.06,-2.5,0.1,-16.1,0.68,0.01,-0.01,0.73
1697354833.4,0.05,-0.18,0.81,-2.5,0.1,-16.1,0.68,0.01,-0.01,0.73
1697354833.41,-0.01,-0.18,0.84,1,0.4,-16.4,0.68,0.01,-0.01,0.73
1697354833.42,-0.05,-0.25,0.84,0.8,0.3,-16.7,0.68,0.01,-0.01,0.73
1697354833.43,-0.05,-0.34,1.24,0.8,0.3,-16.7,0.68,0.01,-0.01,0.73
1697354833.44,-0.05,-0.29,0.79,-1.3,0.5,-16.9,0.68,0.01,-0.01,0.73
1697354833.45,-0.05,-0.29,0.79,-1.3,0.5,-16.9,0.68,0.01,-0.01,0.73
1697354833.46,-0.11,-0.26,1.51,-3.1,0.3,-17.3,0.69,0.01,-0.01,0.73
1697354833.47,-0.1,-0.21,1.07,-2,0.6,-17.9,0.69,0.01,-0.01,0.72
1697354833.48,0,-0.26,0.8,-0.1,1,-18.1,0.69,0.01,-0.01,0.72
1697354833.49,-0.17,-0.4,1.24,1.7,0.9,-18.5,0.69,0.01,-0.01,0.72
1697354833.5,-0.06,-0.47,1.1,1.6,0.9,-19.1,0.69,0.01,-0.01,0.72
1697354833.51,0.02,-0.45,1.04,0.1,0.8,-19.9,0.69,0.01,-0.01,0.72
1697354833.52,0.09,-0.47,0.79,-1.3,0.5,-20.9,0.7,0.01,-0.01,0.72
1697354833.53,0.03,-0.39,0.83,-2.8,0,-21.8,0.7,0.01,-0.01,0.72
1697354833.54,-0.01,-0.28,0.74,-3.2,-0.3,-22.4,0.7,0.01,-0.01,0.72
1697354833.55,0.08,-0.31,0.88,-2.7,-0.4,-23,0.7,0.01,-0.01,0.71
1697354833.56,-0.15,-0.42,0.85,-1,-0.5,-23.5,0.7,0.01,-0.01,0.71
1697354833.57,-0.1,-0.41,0.96,0,-0.5,-24.3,0.7,0.01,-0.01,0.71
1697354833.58,-0.14,-0.46,1.3,-0.1,-0.5,-25,0.7,0.01,-0.01,0.71
1697354833.59,-0.07,-0.51,0.97,-0.9,-0.2,-25.7,0.71,0.01,-0.01,0.71
1697354833.6,0.08,-0.48,0.63,-1.7,0.4,-26.4,0.71,0.01,-0.01,0.71
1697354833.61,-0.05,-0.52,0.77,-1.9,1.2,-27.1,0.71,0.01,-0.01,0.7
1697354833.62,-0.1,-0.39,1.33,-2,1.8,-27.6,0.71,0.01,-0.01,0.7
1697354833.63,-0.1,-0.39,1.33,-2,1.8,-27.6,0.71,0.01,-0.01,0.7
1697354833.64,-0.13,-0.51,1.4,-1.8,2.4,-28,0.71,0.01,-0.01,0.7
1697354833.65,-0.13,-0.51,1.4,-1.8,2.4,-28,0.71,0.01,-0.01,0.7
1697354833.66,-0.13,-0.51,1.4,-1.8,2.4,-28,0.71,0.01,-0.01,0.7
1697354833.67,-0.13,-0.51,1.4,-1.8,2.4,-28,0.71,0.01,-0.01,0.7
1697354833.68,-0.13,-0.51,1.4,-1.8,2.4,-28,0.71,0.01,-0.01,0.7
1697354833.69,-0.13,-0.51,1.4,-1.8,2.4,-28,0.71,0.01,-0.01,0.7
1697354833.7,-0.13,-0.51,1.4,-1.8,2.4,-28,0.71,0.01,-0.01,0.7
1697354833.71,-0.13,-0.51,1.4,-1.8,2.4,-28,0.71,0.01,-0.01,0.7
1697354833.72,-0.13,-0.51,1.4,-1.8,2.4,-28,0.71,0.01,-0.01,0.7
1697354833.73,-0.13,-0.51,1.4,-1.8,2.4,-28,0.71,0.01,-0.01,0.7
1697354833.74,-0.13,-0.51,1.4,-1.8,2.4,-28,0.71,0.01,-0.01,0.7
1697354833.75,-0.13,-0.51,1.4,-1.8,2.4,-28,0.71,0.01,-0.01,0.7
1697354833.76,-0.13,-0.51,1.4,-1.8,2.4,-28,0.71,0.01,-0.01,0.7
1697354833.77,-0.13,-0.51,1.4,-1.8,2.4,-28,0.71,0.01,-0.01,0.7
1697354833.78,-0.17,-0.31,1.11,-2.1,-0.4,-29.8,0.74,0.01,-0.01,0.68
1697354833.79,-0.1,-0.3,1.19,-1.3,0.4,-29.8,0.74,0.01,-0.01,0.67
1697354833.8,-0.07,-0.42,1.07,0.2,1.5,-29.8,0.74,0.01,-0.01,0.67
1697354833.81,0.04,-0.46,0.73,1.3,2.3,-30,0.74,0.01,-0.01,0.67
1697354833.82,-0.05,-0.48,0.85,0.8,2.7,-30.2,0.75,0.01,-0.01,0.67
1697354833.83,0.03,-0.42,1.31,-1.1,2.6,-30.5,0.75,0.01,-0.01,0.66
1697354833.84,0.01,-0.45,0.71,-2.6,2.7,-30.7,0.75,0.01,-0.01,0.66
1697354833.85,-0.05,-0.27,1.13,-0.2,1.4,-30.7,0.75,0.01,-0.01,0.66
1697354833.86,-0.02,-0.37,0.92,1.5,0.8,-31,0.75,0.01,-0.01,0.66
1697354833.87,0.1,-0.53,1.11,1.3,0,-31.5,0.76,0.01,-0.01,0.65
1697354833.88,0.05,-0.64,0.67,-0.1,-0.5,-32.2,0.76,0.01,-0.01,0.65
1697354833.89,-0.1,-0.68,1.04,-2.5,-1,-33.1,0.76,0.01,-0.01,0.65
1697354833.9,-0.03,-0.6,1.11,-3.3,-1.5,-34.4,0.76,0.01,-0.01,0.65
1697354833.91,-0.09,-0.61,0.9,-3.4,-1.5,-35.6,0.76,0.01,-0.01,0.65
1697354833.92,-0.01,-0.48,1.08,-2.6,-1.6,-36.7,0.77,0.01,-0.01,0.64
1697354833.93,-0.09,-0.47,1.08,-0.6,-1.2,-37.7,0.77,0.01,-0.01,0.64
1697354833.94,-0.12,-0.55,1.17,1.2,-0.1,-39,0.77,0.01,-0.01,0.64
1697354833.95,-0.19,-0.72,1.04,0,0.2,-40,0.77,0.01,-0.01,0.63
1697354833.96,-0.11,-0.77,1.11,-2.1,0.7,-41.1,0.77,0.01,-0.01,0.63
1697354833.97,-0.07,-0.74,1.06,-3.9,1.1,-41.9,0.78,0.01,-0.01,0.63
1697354833.98,-0.04,-0.65,0.82,-4,1.4,-42.5,0.78,0.01,-0.01,0.63
1697354833.99,-0.16,-0.55,0.84,-2.2,1.2,-42.5,0.78,0.01,-0.01,0.62
1697354834,0.05,-0.57,0.82,-1.6,1.1,-42.5,0.78,0.01,-0.01,0.62
1697354834.01,0.05,-0.57,0.82,1,0.7,-42.7,0.78,0.01,-0.01,0.62
1697354834.02,-0.11,-0.71,1.21,2.4,0.4,-42.7,0.79,0.01,-0.01,0.62
1697354834.03,-0.04,-0.77,0.95,2.4,0.4,-42.7,0.79,0.01,-0.01,0.61
1697354834.04,-0.12,-0.59,1.01,-0.4,-0.1,-43.1,0.79,0.01,-0.01,0.61
1697354834.05,-0.12,-0.59,1.01,-0.4,-0.1,-43.1,0.79,0.01,-0.01,0.61
1697354834.06,-0.2,-0.48,1.18,-2.5,-0.8,-43.4,0.8,0.01,-0.01,0.6
1697354834.07,-0.08,-0.43,1.01,0,-0.9,-43.4,0.8,0.01,-0.01,0.6
1697354834.08,-0.16,-0.5,1.16,0,-0.9,-43.4,0.8,0.01,-0.01,0.6
1697354834.09,-0.02,-0.68,0.89,3,-0.4,-43.2,0.8,0.01,-0.01,0.6
1697354834.1,-0.03,-0.82,1.08,4.9,0.4,-43.1,0.81,0.01,-0.01,0.59
1697354834.11,-0.05,-0.71,1.08,3.2,1.5,-43.4,0.81,0.01,-0.01,0.59
1697354834.12,-0.05,-0.71,1.08,-0.3,2,-43.6,0.81,0.01,-0.01,0.59
1697354834.13,0.02,-0.47,0.94,-3,2.6,-43.7,0.81,0.01,-0.01,0.59
1697354834.14,-0.07,-0.47,0.94,-2.5,3.2,-43.7,0.81,0.01,-0.01,0.58
1697354834.15,-0.07,-0.49,0.89,0,3.4,-43.8,0.82,0.01,-0.01,0.58
1697354834.16,0.06,-0.54,0.91,1.8,3,-43.9,0.82,0.01,-0.01,0.57
1697354834.17,-0.07,-0.61,0.8,2.7,2.1,-43.9,0.82,0.01,-0.01,0.57
1697354834.18,-0.07,-0.61,0.8,2.7,2.1,-43.9,0.82,0.01,-0.01,0.57
1697354834.19,-0.07,-0.61,0.8,2.7,2.1,-43.9,0.82,0.01,-0.01,0.57
1697354834.2,-0.07,-0.61,0.8,2.7,2.1,-43.9,0.82,0.01,-0.01,0.57
1697354834.21,-0.07,-0.61,0.8,2.7,2.1,-43.9,0.82,0.01,-0.01,0.57
1697354834.22,-0.07,-0.61,0.8,2.7,2.1,-43.9,0.82,0.01,-0.01,0.57
1697354834.23,-0.07,-0.61,0.8,2.7,2.1,-43.9,0.82,0.01,-0.01,0.57
1697354834.24,-0.07,-0.61,0.8,2.7,2.1,-43.9,0.82,0.01,-0.01,0.57
1697354834.25,-0.07,-0.61,0.8,2.7,2.1,-43.9,0.82,0.01,-0.01,0.57
1697354834.26,-0.07,-0.61,0.8,2.7,2.1,-43.9,0.82,0.01,-0.01,0.57
1697354834.27,-0.07,-0.61,0.8,2.7,2.1,-43.9,0.82,0.01,-0.01,0.57
1697354834.28,-0.07,-0.61,0.8,2.7,2.1,-43.9,0.82,0.01,-0.01,0.57
1697354834.29,-0.07,-0.61,0.8,2.7,2.1,-43.9,0.82,0.01,-0.01,0.57
1697354834.3,-0.07,-0.61,0.8,2.7,2.1,-43.9,0.82,0.01,-0.01,0.57
1697354834.31,0.05,-0.51,1.05,4.3,1.4,-44.4,0.85,0.01,-0.01,0.52
1697354834.32,0.05,-0.51,1.05,4.3,1.4,-44.4,0.85,0.01,-0.01,0.52
1697354834.33,0.02,-0.7,0.72,0,0.1,-44.8,0.86,0.01,-0,0.52
1697354834.34,-0.04,-0.65,0.94,0,0.1,-44.8,0.86,0.01,-0,0.52
1697354834.35,-0.12,-0.46,1.03,-3.1,-0.4,-44.8,0.86,0.01,-0,0.51
1697354834.36,-0.06,-0.36,0.83,-3.1,-0.4,-44.8,0.86,0.01,-0,0.51
1697354834.37,-0.06,-0.47,1.14,0.5,-0.6,-44.3,0.86,0.01,-0,0.51
1697354834.38,-0.04,-0.65,0.83,4.1,-0.2,-43.5,0.86,0.01,-0,0.5
1697354834.39,-0.04,-0.65,0.83,4.1,-0.2,-43.5,0.87,0.01,-0,0.5
1697354834.4,-0.07,-0.73,0.92,-1.6,0.4,-43.2,0.87,0.01,-0,0.5
1697354834.41,-0.08,-0.63,0.82,-1.6,0.4,-43.2,0.87,0.01,-0,0.49
1697354834.42,-0.2,-0.46,1.13,-1.9,1.6,-43,0.87,0.01,-0,0.49
1697354834.43,-0.09,-0.38,1.08,0.7,2.3,-42.7,0.87,0.01,-0,0.49
1697354834.44,-0.09,-0.38,1.08,4,3.3,-42.6,0.88,0.01,-0,0.48
1697354834.45,-0.04,-0.59,1.07,5,3.3,-42.8,0.88,0.01,-0,0.48
1697354834.46,-0.05,-0.65,0.89,3.8,2.7,-42.8,0.88,0.01,-0,0.48
1697354834.47,-0.04,-0.61,1.11,2.2,2.3,-42.8,0.88,0.01,-0,0.47
1697354834.48,0.02,-0.57,0.77,1.5,1.7,-42.8,0.88,0.01,-0,0.47
1697354834.49,-0.09,-0.46,1.01,1.2,1,-42.1,0.88,0.01,-0,0.47
1697354834.5,-0.06,-0.37,1.16,1.7,-0.1,-41.3,0.89,0.01,-0,0.46
1697354834.51,-0.06,-0.4,1.06,1.7,-0.8,-40.2,0.89,0.01,-0,0.46
1697354834.52,0,-0.33,0.97,1.1,-1.4,-38.9,0.89,0.01,-0,0.46
1697354834.53,-0.05,-0.37,0.9,0.4,-1.5,-37.7,0.89,0.01,-0,0.45
1697354834.54,-0.05,-0.25,1.14,-0.2,-1.5,-36.4,0.89,0.01,-0,0.45
1697354834.55,0.01,-0.21,1.04,0.8,-1,-35,0.89,0.01,-0,0.45
1697354834.56,0.01,-0.21,1.04,0.8,-1,-35,0.89,0.01,-0,0.45
1697354834.57,0.01,-0.21,1.04,0.8,-1,-35,0.89,0.01,-0,0.45
1697354834.58,0.01,-0.21,1.04,0.8,-1,-35,0.89,0.01,-0,0.45
1697354834.59,0.01,-0.21,1.04,0.8,-1,-35,0.89,0.01,-0,0.45
1697354834.6,0.01,-0.21,1.04,0.8,-1,-35,0.89,0.01,-0,0.45
1697354834.61,0.01,-0.21,1.04,0.8,-1,-35,0.89,0.01,-0,0.45
1697354834.62,0.01,-0.21,1.04,0.8,-1,-35,0.89,0.01,-0,0.45
1697354834.63,0.01,-0.21,1.04,0.8,-1,-35,0.89,0.01,-0,0.45
1697354834.64,0.01,-0.21,1.04,0.8,-1,-35,0.89,0.01,-0,0.45
1697354834.65,0.01,-0.21,1.04,0.8,-1,-35,0.89,0.01,-0,0.45
1697354834.66,0.01,-0.21,1.04,0.8,-1,-35,0.89,0.01,-0,0.45
1697354834.67,-0.05,-0.09,1.09,2.2,-2.4,-17.8,0.91,0.01,-0,0.42
1697354834.68,-0.05,-0.09,1.09,2.2,-2.4,-17.8,0.91,0.01,-0,0.42
1697354834.69,-0.04,-0.07,1.07,1.7,-1.9,-16.3,0.91,0.01,-0,0.42
1697354834.7,-0.08,-0.04,1.06,2.1,-1.3,-14.7,0.91,0.01,-0,0.42
1697354834.71,-0.04,0.14,0.91,3.7,-0.4,-10.5,0.91,0.01,-0,0.42
1697354834.72,-0.04,0.14,0.91,3.7,-0.4,-10.5,0.91,0.01,-0,0.42
1697354834.73,-0.05,0.24,1.28,3.9,-0.3,-9.9,0.91,0.01,-0,0.42
1697354834.74,-0.07,0.19,1,4,0,-7.8,0.91,0.01,-0,0.42
1697354834.75,0.03,0.27,0.64,3.1,0.5,-5.3,0.91,0.01,0,0.41
1697354834.76,0.03,0.27,0.64,2.2,0.8,-3.2,0.91,0.01,0,0.41
1697354834.77,-0.11,0.44,1.06,1.7,0.9,-1.1,0.91,0.01,0,0.41
1697354834.78,0.02,0.5,0.73,2.6,0.2,0.9,0.91,0.01,0,0.41
1697354834.79,-0.07,0.37,0.94,3.9,-0.7,3.1,0.91,0.01,0,0.42
1697354834.8,0.01,0.29,0.99,4.8,-0.8,4.9,0.91,0.01,0,0.42
1697354834.81,-0.04,0.31,0.93,3.3,-0.9,6.4,0.91,0.01,0,0.42
1697354834.82,-0.18,0.58,1.16,0.9,-0.9,9,0.91,0.01,0,0.42
1697354834.83,-0.1,0.64,1,1.2,-1,11.7,0.91,0.01,0,0.42
1697354834.84,-0.15,0.62,1.27,2.4,-1,14.8,0.91,0.01,0,0.42
1697354834.85,-0.19,0.56,1.36,4.3,-0.6,17.9,0.91,0.02,0,0.42
1697354834.86,-0.15,0.53,1.05,4.9,0.1,21.6,0.91,0.02,0,0.42
1697354834.87,-0.16,0.58,1.15,1.1,1.3,27.1,0.9,0.02,0,0.43
1697354834.88,-0.18,0.61,1.47,0.5,1.6,29.5,0.9,0.02,0,0.43
1697354834.89,-0.11,0.74,1,1.3,1.6,31.8,0.9,0.02,0,0.43
1697354834.9,-0.11,0.74,1,1.3,1.6,31.8,0.9,0.02,0,0.43
1697354834.91,-0.09,0.73,1.03,3.3,0.7,35.2,0.9,0.02,0,0.44
1697354834.92,-0.09,0.65,1.05,3.4,-0.1,36.2,0.9,0.02,0,0.44
