time,accel_x,accel_y,accel_z,gyro_x,gyro_y,gyro_z,quat_w,quat_x,quat_y,quat_z
1697353399.15,-0.35,0.45,0.89,0.7,1,44.7,0.9,0.05,0.03,-0.44
1697353399.16,-0.35,0.45,0.89,0.7,1,44.7,0.9,0.05,0.03,-0.44
1697353399.17,-0.35,0.45,0.89,0.7,1,44.7,0.9,0.05,0.03,-0.44
1697353399.18,-0.35,0.45,0.89,0.7,1,44.7,0.9,0.05,0.03,-0.44
1697353399.19,-0.35,0.45,0.89,0.7,1,44.7,0.9,0.05,0.03,-0.44
1697353399.2,-0.35,0.45,0.89,0.7,1,44.7,0.9,0.05,0.03,-0.44
1697353399.21,-0.35,0.45,0.89,0.7,1,44.7,0.9,0.05,0.03,-0.44
1697353399.22,-0.35,0.45,0.89,0.7,1,44.7,0.9,0.05,0.03,-0.44
1697353399.23,-0.35,0.45,0.89,0.7,1,44.7,0.9,0.05,0.03,-0.44
1697353399.24,-0.35,0.45,0.89,0.7,1,44.7,0.9,0.05,0.03,-0.44
1697353399.25,-0.35,0.45,0.89,0.7,1,44.7,0.9,0.05,0.03,-0.44
1697353399.26,-0.35,0.45,0.89,0.7,1,44.7,0.9,0.05,0.03,-0.44
1697353399.27,-0.03,0.56,0.93,0,2.7,51.4,0.97,0.05,0.02,-0.22
1697353399.28,-0.3,0.39,1.02,0,2.7,51.4,0.97,0.05,0.02,-0.22
1697353399.29,-0.24,0.52,0.84,-1.2,3.8,53.1,0.97,0.05,0.02,-0.22
1697353399.3,-0.2,0.48,1,-2.3,5.8,56,0.98,0.05,0.02,-0.21
1697353399.31,-0.17,0.51,0.75,-2.1,6.2,57.2,0.98,0.05,0.02,-0.21
1697353399.32,-0.17,0.51,0.75,-2.1,6.2,57.2,0.98,0.05,0.02,-0.21
1697353399.33,-0.1,0.36,0.97,-0.6,6.3,56.8,0.98,0.05,0.02,-0.2
1697353399.34,-0.1,0.36,0.97,-0.6,6.3,56.8,0.98,0.05,0.02,-0.2
1697353399.35,0.12,0.25,1.34,-0.5,5.7,56,0.98,0.05,0.02,-0.19
1697353399.36,0.12,0.25,1.34,-0.4,4.7,53.6,0.98,0.05,0.02,-0.18
1697353399.37,0.27,0.36,0.91,-0.7,3.5,51.7,0.98,0.05,0.03,-0.18
1697353399.38,0.29,0.37,0.78,-0.7,2.8,49.9,0.98,0.05,0.03,-0.18
1697353399.39,0.12,0.45,0.96,-0.9,2.2,49,0.98,0.05,0.03,-0.17
1697353399.4,0.08,0.46,0.82,-1.3,2.5,49.2,0.98,0.05,0.03,-0.17
1697353399.41,-0.13,0.49,0.82,-1.8,3.6,50,0.98,0.05,0.03,-0.16
1697353399.42,-0.25,0.54,0.83,-2.5,4.7,51.7,0.99,0.05,0.03,-0.16
1697353399.43,-0.24,0.42,1.21,-3.2,5.6,53.4,0.99,0.05,0.03,-0.15
1697353399.44,-0.21,0.48,1.02,-3.2,6.5,55.3,0.99,0.05,0.03,-0.15
1697353399.45,-0.21,0.44,1.24,-2.5,6.5,56,0.99,0.05,0.03,-0.14
1697353399.46,-0.13,0.36,0.95,-1.5,6.2,56.2,0.99,0.05,0.03,-0.14
1697353399.47,-0.17,0.3,1.08,-1.2,5.7,56,0.99,0.05,0.03,-0.13
1697353399.48,-0.07,0.31,0.92,-1.4,5.2,55.2,0.99,0.05,0.03,-0.13
1697353399.49,-0.01,0.28,0.93,-1.4,4.2,54,0.99,0.05,0.03,-0.13
1697353399.5,-0.02,0.37,0.84,-0.8,3.3,52.9,0.99,0.05,0.03,-0.12
1697353399.51,-0.01,0.37,0.86,0.1,2.4,52,0.99,0.05,0.03,-0.11
1697353399.52,-0.04,0.37,0.83,0.3,2.2,51.7,0.99,0.05,0.03,-0.11
1697353399.53,-0.08,0.4,0.99,0.7,1.2,50.9,0.99,0.05,0.03,-0.11
1697353399.54,-0.12,0.37,1.02,0.3,0.4,50.5,0.99,0.05,0.03,-0.1
1697353399.55,-0.09,0.39,0.91,-0.7,0.6,50.2,0.99,0.05,0.03,-0.1
1697353399.56,-0.2,0.41,1.11,-1.7,0.5,50.3,0.99,0.05,0.03,-0.1
1697353399.57,-0.14,0.38,0.94,-2.1,0.7,50.6,0.99,0.05,0.03,-0.09
1697353399.58,-0.18,0.4,1.01,-2.2,1.3,51,0.99,0.05,0.03,-0.09
1697353399.59,-0.16,0.36,0.91,-2.2,1.3,51,0.99,0.05,0.03,-0.09
1697353399.6,-0.17,0.38,1.16,-1.9,3,51.9,1,0.05,0.03,-0.07
1697353399.61,-0.09,0.35,0.87,-1,2.9,52,1,0.05,0.03,-0.07
1697353399.62,-0.19,0.32,1.23,-0.5,2.9,51.8,1,0.05,0.03,-0.06
1697353399.63,-0.06,0.31,0.94,-0.3,3,51.7,1,0.05,0.03,-0.06
1697353399.64,-0.1,0.29,1.11,-0.2,2.2,51.4,1,0.05,0.03,-0.06
1697353399.65,0.07,0.31,0.71,0.2,1.1,50.8,1,0.06,0.03,-0.05
1697353399.66,0.07,0.31,0.71,0.2,1.1,50.8,1,0.06,0.03,-0.05
1697353399.67,0.07,0.31,0.71,0.2,1.1,50.8,1,0.06,0.03,-0.05
1697353399.68,0.07,0.31,0.71,0.2,1.1,50.8,1,0.06,0.03,-0.05
1697353399.69,0.07,0.31,0.71,0.2,1.1,50.8,1,0.06,0.03,-0.05
1697353399.7,0.07,0.31,0.71,0.2,1.1,50.8,1,0.06,0.03,-0.05
1697353399.71,0.07,0.31,0.71,0.2,1.1,50.8,1,0.06,0.03,-0.05
1697353399.72,0.07,0.31,0.71,0.2,1.1,50.8,1,0.06,0.03,-0.05
1697353399.73,0.07,0.31,0.71,0.2,1.1,50.8,1,0.06,0.03,-0.05
1697353399.74,0.07,0.31,0.71,0.2,1.1,50.8,1,0.06,0.03,-0.05
1697353399.75,0.07,0.31,0.71,0.2,1.1,50.8,1,0.06,0.03,-0.05
1697353399.76,0.07,0.31,0.71,0.2,1.1,50.8,1,0.06,0.03,-0.05
1697353399.77,0.07,0.31,0.71,0.2,1.1,50.8,1,0.06,0.03,-0.05
1697353399.78,-0.1,0.32,0.96,0.7,0.7,50.9,1,0.06,0.02,0
1697353399.79,-0.08,0.31,1.12,0.5,0.6,50.3,1,0.06,0.02,0.01
1697353399.8,-0.03,0.3,0.84,0,-0.2,49.9,1,0.06,0.02,0.01
1697353399.81,-0.09,0.34,1.05,-0.8,-1.2,49.6,1,0.06,0.02,0.02
1697353399.82,-0.08,0.36,1,-0.8,-2,49.6,1,0.06,0.02,0.02
1697353399.83,-0.01,0.41,0.91,-0.5,-2.7,49.6,1,0.06,0.02,0.03
1697353399.84,-0.05,0.41,1.03,-0.2,-3.3,49.6,1,0.06,0.02,0.03
1697353399.85,-0.09,0.36,1.06,0.3,-3.6,49.5,1,0.06,0.02,0.04
1697353399.86,-0.07,0.33,0.85,-0.2,-3.1,49.5,1,0.06,0.02,0.04
1697353399.87,-0.12,0.33,1.09,-0.8,-2.5,49.7,1,0.06,0.02,0.04
1697353399.88,-0.14,0.31,0.99,-1,-2.1,49.9,1,0.06,0.02,0.05
1697353399.89,-0.16,0.32,0.92,-0.9,-1,50.3,1,0.06,0.02,0.05
1697353399.9,-0.12,0.3,0.92,-1,0.1,50.5,1,0.06,0.02,0.06
1697353399.91,-0.12,0.3,0.92,-1,0.1,50.5,1,0.06,0.02,0.06
1697353399.92,-0.1,0.32,1.01,0.4,1.2,50.6,1,0.06,0.02,0.07
1697353399.93,-0.12,0.33,1.09,1.2,1,50.5,1,0.06,0.02,0.07
1697353399.94,-0.04,0.33,1.03,1.3,0.9,50,1,0.06,0.02,0.08
1697353399.95,-0.12,0.29,1.1,1.6,0,49.7,0.99,0.06,0.02,0.08
1697353399.96,-0.07,0.26,1.08,1.2,-0.4,49.3,0.99,0.06,0.02,0.08
1697353399.97,-0.09,0.3,0.96,0.6,-0.8,49,0.99,0.06,0.02,0.09
1697353399.98,-0.14,0.31,0.97,0.2,-1.6,48.7,0.99,0.06,0.02,0.09
1697353399.99,-0.05,0.33,0.96,0,-1.4,48.5,0.99,0.06,0.02,0.1
1697353400,-0.05,0.36,0.94,-0.1,-0.9,48.4,0.99,0.06,0.02,0.1
1697353400.01,-0.02,0.33,0.87,-0.1,-0.9,48.4,0.99,0.06,0.02,0.1
1697353400.02,-0.12,0.31,1,-0.1,0,48.2,0.99,0.06,0.02,0.11
1697353400.03,-0.09,0.33,0.96,-0.6,0.7,48.4,0.99,0.06,0.02,0.12
1697353400.04,-0.11,0.3,1.04,-0.6,0.7,48.4,0.99,0.06,0.02,0.12
1697353400.05,-0.11,0.26,0.95,-2.1,1.5,48.5,0.99,0.06,0.02,0.12
1697353400.06,-0.11,0.26,0.95,-2.1,1.5,48.5,0.99,0.06,0.02,0.12
1697353400.07,-0.11,0.26,0.95,-2.1,1.5,48.5,0.99,0.06,0.02,0.12
1697353400.08,-0.11,0.26,0.95,-2.1,1.5,48.5,0.99,0.06,0.02,0.12
1697353400.09,-0.11,0.26,0.95,-2.1,1.5,48.5,0.99,0.06,0.02,0.12
1697353400.1,-0.11,0.26,0.95,-2.1,1.5,48.5,0.99,0.06,0.02,0.12
1697353400.11,-0.11,0.26,0.95,-2.1,1.5,48.5,0.99,0.06,0.02,0.12
1697353400.12,-0.11,0.26,0.95,-2.1,1.5,48.5,0.99,0.06,0.02,0.12
1697353400.13,-0.11,0.26,0.95,-2.1,1.5,48.5,0.99,0.06,0.02,0.12
1697353400.14,-0.11,0.26,0.95,-2.1,1.5,48.5,0.99,0.06,0.02,0.12
1697353400.15,-0.11,0.26,0.95,-2.1,1.5,48.5,0.99,0.06,0.02,0.12
1697353400.16,-0.11,0.26,0.95,-2.1,1.5,48.5,0.99,0.06,0.02,0.12
1697353400.17,-0.11,0.26,0.95,-2.1,1.5,48.5,0.99,0.06,0.02,0.12
1697353400.18,-0.11,0.26,0.95,-2.1,1.5,48.5,0.99,0.06,0.02,0.12
1697353400.19,-0.15,0.26,1.13,0,2.1,47.7,0.98,0.07,0.02,0.18
1697353400.2,-0.12,0.25,1.05,-1.5,1.9,47.5,0.98,0.07,0.02,0.18
1697353400.21,-0.13,0.3,1.07,-2.1,1.6,47.5,0.98,0.07,0.01,0.19
1697353400.22,-0.11,0.4,1,-1.4,1.4,47.5,0.98,0.07,0.01,0.19
1697353400.23,-0.13,0.37,0.96,0.2,1.4,47.4,0.98,0.07,0.01,0.2
1697353400.24,-0.16,0.29,0.97,1.1,1.5,47.3,0.98,0.07,0.01,0.2
1697353400.25,-0.23,0.24,0.98,1.2,1.6,47.2,0.98,0.07,0.01,0.2
1697353400.26,-0.22,0.22,0.71,0.1,2.3,46.9,0.98,0.07,0.01,0.21
1697353400.27,-0.33,0.22,0.96,-1,3.1,46.2,0.97,0.07,0.01,0.21
1697353400.28,-0.27,0.21,0.78,-2,3.5,45.6,0.97,0.07,0.01,0.22
1697353400.29,-0.24,0.3,0.94,-2,4.1,44.7,0.97,0.07,0.01,0.22
1697353400.3,-0.08,0.29,1.01,-1,4,44.2,0.97,0.07,0.02,0.22
1697353400.31,-0.07,0.21,0.91,0.4,3.2,44.2,0.97,0.07,0.02,0.23
1697353400.32,-0.01,0.18,1.12,1.3,1.9,44.2,0.97,0.07,0.02,0.23
1697353400.33,-0.03,0.19,1.1,1.3,1.9,44.2,0.97,0.07,0.02,0.23
1697353400.34,-0.06,0.2,1.14,-0.1,0.2,44.5,0.97,0.07,0.02,0.24
1697353400.35,-0.04,0.26,0.85,-0.7,0.3,44.6,0.97,0.07,0.02,0.24
1697353400.36,-0.21,0.23,1.18,-0.6,0.2,44.6,0.97,0.07,0.02,0.25
1697353400.37,-0.12,0.29,0.95,-0.6,0.2,44.6,0.97,0.07,0.02,0.25
1697353400.38,-0.13,0.27,1.06,0.8,1.2,44.7,0.96,0.07,0.02,0.26
1697353400.39,-0.13,0.27,1.06,0.8,1.2,44.7,0.96,0.07,0.02,0.26
1697353400.4,0.02,0.18,0.96,2.2,2.1,44.5,0.96,0.07,0.02,0.26
1697353400.41,0.02,0.18,0.96,2.2,2.1,44.5,0.96,0.07,0.02,0.26
1697353400.42,0.19,0.24,1.08,1.1,2.5,43.2,0.96,0.07,0.02,0.27
1697353400.43,0.19,0.24,1.08,1.1,2.5,43.2,0.96,0.07,0.02,0.27
1697353400.44,0.16,0.28,1.01,0.8,1.8,42.2,0.96,0.07,0.02,0.27
1697353400.45,0.08,0.32,1.27,1.6,1.3,41.8,0.96,0.07,0.02,0.28
1697353400.46,-0.02,0.35,0.68,1.4,1.6,42.7,0.96,0.07,0.02,0.28
1697353400.47,-0.2,0.27,1.18,0.1,2,43.9,0.96,0.07,0.02,0.29
1697353400.48,-0.22,0.31,1.1,-1.2,2.3,45.3,0.95,0.07,0.02,0.29
1697353400.49,-0.15,0.36,0.9,-2.1,2.2,46.5,0.95,0.07,0.01,0.29
1697353400.5,-0.1,0.32,0.98,-2.3,1.7,47.3,0.95,0.07,0.01,0.3
1697353400.51,-0.04,0.34,1.03,-0.7,0.2,47.4,0.95,0.07,0.01,0.3
1697353400.52,0.09,0.28,1.01,0.6,-0.9,46.7,0.95,0.07,0.01,0.31
1697353400.53,0.12,0.16,1.25,1,-2.5,45.2,0.95,0.07,0.01,0.31
1697353400.54,0.23,0.16,0.91,1.2,-3.6,43.4,0.95,0.07,0.01,0.31
1697353400.55,0.15,0.18,1.11,0.6,-4.1,42,0.95,0.07,0.01,0.32
1697353400.56,0.12,0.23,0.92,0.6,-3.7,41.2,0.94,0.07,0.01,0.32
1697353400.57,0.04,0.35,0.92,0.6,-2.4,41.3,0.94,0.07,0.01,0.32
1697353400.58,-0.1,0.31,1.01,0.6,-0.8,42.2,0.94,0.07,0.01,0.33
1697353400.59,-0.16,0.33,0.96,0.5,0.9,43.7,0.94,0.07,0.01,0.33
1697353400.6,-0.16,0.33,0.96,0.5,0.9,43.7,0.94,0.07,0.01,0.33
1697353400.61,-0.16,0.33,0.96,0.5,0.9,43.7,0.94,0.07,0.01,0.33
1697353400.62,-0.16,0.33,0.96,0.5,0.9,43.7,0.94,0.07,0.01,0.33
1697353400.63,-0.16,0.33,0.96,0.5,0.9,43.7,0.94,0.07,0.01,0.33
1697353400.64,-0.16,0.33,0.96,0.5,0.9,43.7,0.94,0.07,0.01,0.33
1697353400.65,-0.16,0.33,0.96,0.5,0.9,43.7,0.94,0.07,0.01,0.33
1697353400.66,-0.16,0.33,0.96,0.5,0.9,43.7,0.94,0.07,0.01,0.33
1697353400.67,-0.16,0.33,0.96,0.5,0.9,43.7,0.94,0.07,0.01,0.33
1697353400.68,-0.16,0.33,0.96,0.5,0.9,43.7,0.94,0.07,0.01,0.33
1697353400.69,-0.16,0.33,0.96,0.5,0.9,43.7,0.94,0.07,0.01,0.33
1697353400.7,-0.16,0.33,0.96,0.5,0.9,43.7,0.94,0.07,0.01,0.33
1697353400.71,-0.16,0.33,0.96,0.5,0.9,43.7,0.94,0.07,0.01,0.33
1697353400.72,-0.05,0.35,0.87,1.3,1.2,46.5,0.92,0.07,0.01,0.38
1697353400.73,-0.04,0.32,1.03,1.4,0.9,46.8,0.92,0.07,0.01,0.38
1697353400.74,0.02,0.27,1.04,1.1,0.2,46.9,0.92,0.07,0.01,0.38
1697353400.75,0.02,0.27,1.04,1.1,0.2,46.9,0.92,0.07,0.01,0.39
1697353400.76,0.23,0.3,1.1,1.6,-0.9,46.3,0.92,0.07,0.01,0.39
1697353400.77,0.1,0.34,1.16,1.6,-0.9,46.3,0.92,0.07,0.01,0.4
1697353400.78,0.06,0.32,0.87,2.3,-1.1,46,0.91,0.08,0.01,0.4
1697353400.79,0.06,0.32,0.87,3.2,-1,45.9,0.91,0.08,0.01,0.4
1697353400.8,0,0.32,1.01,4.2,-0.5,46,0.91,0.08,0.01,0.41
1697353400.81,-0.07,0.32,0.98,4.7,0.1,46.8,0.91,0.08,0.01,0.41
1697353400.82,-0.09,0.28,1.31,4.7,0.1,46.8,0.91,0.08,0.01,0.41
1697353400.83,-0.1,0.26,1.05,4.1,0.7,47.6,0.9,0.08,0.01,0.42
1697353400.84,-0.03,0.29,0.94,2.2,1.1,48.1,0.9,0.08,0.01,0.42
1697353400.85,-0.01,0.31,1.08,1.3,1,48.4,0.9,0.08,0.01,0.43
1697353400.86,0.01,0.29,1.13,0.8,0.5,48.6,0.9,0.08,0.01,0.43
1697353400.87,0,0.3,1.02,0.7,0.2,48.3,0.9,0.08,0.01,0.43
1697353400.88,0.04,0.28,1.16,0.5,-0.1,47.7,0.9,0.08,0.01,0.43
1697353400.89,0.04,0.37,1.07,-0.5,-0.2,46.4,0.89,0.08,0.01,0.44
1697353400.9,0,0.31,1.33,-1.3,0.1,46.3,0.89,0.08,0.01,0.45
1697353400.91,-0,0.39,0.95,-2,1.1,46.4,0.89,0.08,0.01,0.45
1697353400.92,-0.15,0.42,1.13,-1.7,2.2,47.1,0.89,0.08,0.01,0.45
1697353400.93,-0.03,0.35,0.73,-1,3.4,47.6,0.89,0.08,0.01,0.46
1697353400.94,-0.09,0.3,0.97,-0.7,4.4,48,0.88,0.08,0.01,0.46
1697353400.95,-0.03,0.27,0.87,-0.9,4.8,48.5,0.88,0.08,0.01,0.46
1697353400.96,-0.06,0.2,1.5,-0.9,4.8,48.5,0.88,0.08,0.01,0.46
1697353400.97,0.14,0.27,1.08,-1.2,3.5,48.1,0.88,0.08,0.01,0.47
1697353400.98,0.23,0.19,1.19,-0.9,1.9,47.2,0.88,0.08,0.01,0.48
1697353400.99,0.2,0.24,0.97,-0.6,0.6,46.3,0.87,0.08,0.01,0.48
1697353401,0.18,0.26,0.92,-0.3,-0.4,45.7,0.87,0.08,0.01,0.48
1697353401.01,0.11,0.25,0.83,0,-1,45,0.87,0.08,0.01,0.49
1697353401.02,0.02,0.32,1.06,0,-1,44.9,0.87,0.08,0.01,0.49
1697353401.03,0.01,0.28,1,0,-0.7,44.7,0.87,0.08,0.01,0.49
1697353401.04,-0.02,0.29,0.96,-0.1,0,44.7,0.86,0.08,0.01,0.5
1697353401.05,0.01,0.28,0.9,-0.9,0.6,44.8,0.86,0.08,0.01,0.5
1697353401.06,0.01,0.28,0.9,-0.9,0.6,44.8,0.86,0.08,0.01,0.5
1697353401.07,0.12,0.23,0.85,-1.4,1.7,44.1,0.86,0.08,0,0.51
1697353401.08,0.09,0.26,1.09,-1.1,1.8,43.6,0.86,0.08,0,0.51
1697353401.09,0.14,0.32,0.96,-0.2,1.8,43.3,0.86,0.08,0,0.51
1697353401.1,0.14,0.32,0.96,-0.2,1.8,43.3,0.85,0.08,0,0.51
1697353401.11,0.14,0.32,0.96,-0.2,1.8,43.3,0.85,0.08,0,0.51
1697353401.12,0.14,0.32,0.96,-0.2,1.8,43.3,0.85,0.08,0,0.51
1697353401.13,0.14,0.32,0.96,-0.2,1.8,43.3,0.85,0.08,0,0.51
1697353401.14,0.14,0.32,0.96,-0.2,1.8,43.3,0.85,0.08,0,0.51
1697353401.15,0.14,0.32,0.96,-0.2,1.8,43.3,0.85,0.08,0,0.51
1697353401.16,0.14,0.32,0.96,-0.2,1.8,43.3,0.85,0.08,0,0.51
1697353401.17,0.14,0.32,0.96,-0.2,1.8,43.3,0.85,0.08,0,0.51
1697353401.18,0.14,0.32,0.96,-0.2,1.8,43.3,0.85,0.08,0,0.51
1697353401.19,0.14,0.32,0.96,-0.2,1.8,43.3,0.85,0.08,0,0.51
1697353401.2,0.14,0.32,0.96,-0.2,1.8,43.3,0.85,0.08,0,0.51
1697353401.21,0.14,0.32,0.96,-0.2,1.8,43.3,0.85,0.08,0,0.51
1697353401.22,0.14,0.32,0.96,-0.2,1.8,43.3,0.85,0.08,0,0.51
1697353401.23,0.05,0.33,0.92,0.4,1.2,44.2,0.83,0.08,0,0.56
1697353401.24,0.08,0.28,0.98,0.1,1.2,43.8,0.82,0.08,0,0.56
1697353401.25,0.05,0.26,0.95,-0.3,1.5,43.5,0.82,0.08,0,0.56
1697353401.26,0.03,0.28,0.92,-1.2,1.6,43.2,0.82,0.08,0,0.57
1697353401.27,0.02,0.26,0.9,-1.2,1.7,43,0.82,0.08,0,0.57
1697353401.28,-0.02,0.16,1.17,-0.8,1.6,42.7,0.82,0.08,0,0.57
1697353401.29,0.11,0.11,1.04,-1,1.1,42.2,0.81,0.08,0,0.58
1697353401.3,0.03,0.13,1.25,-1,0.9,41.2,0.81,0.08,0,0.58
1697353401.31,0.18,0.08,0.95,-1.2,-0.2,40.1,0.81,0.08,0,0.58
1697353401.32,0.11,0.07,1.14,-1,-0.7,38.6,0.81,0.08,0,0.59
1697353401.33,0.11,0.09,1.03,-0.9,-1.6,37.1,0.81,0.08,0,0.59
1697353401.34,0.04,0.03,0.94,-1.1,-1.8,35.9,0.8,0.08,0,0.59
1697353401.35,0.01,0.11,1,-1.4,-1.6,34.5,0.8,0.08,0,0.59
1697353401.36,0.04,0.11,0.94,-2.2,-1.5,33.4,0.8,0.08,0,0.59
1697353401.37,0.06,0.13,1.1,-2,-1.1,32.3,0.8,0.08,0,0.6
1697353401.38,0.06,0.13,1.1,-2,-1.1,32.3,0.8,0.08,0,0.6
1697353401.39,0.04,0.1,1.25,-2.4,0,30.5,0.8,0.08,-0,0.6
1697353401.4,0.08,0.07,0.99,-2.3,0.3,29.6,0.79,0.08,-0,0.6
1697353401.41,-0.01,0.09,0.91,-2.3,0.3,29.6,0.79,0.08,-0,0.6
1697353401.42,0.08,0.15,0.78,-3.1,0.8,29.1,0.79,0.08,-0,0.61
1697353401.43,0.06,0.22,0.96,-4.3,1.4,28.3,0.79,0.08,-0,0.61
1697353401.44,0.06,0.22,0.96,-4.3,1.4,28.3,0.79,0.08,-0,0.61
1697353401.45,0.17,0.29,0.9,4.7,-1,28.6,0.79,0.08,-0,0.61
1697353401.46,0.17,0.29,0.9,4.7,-1,28.6,0.79,0.08,-0,0.61
1697353401.47,0.13,-0.02,0.96,6.7,-3,28.4,0.78,0.08,-0,0.62
1697353401.48,0.13,-0.02,0.96,4.8,-4.3,28.7,0.78,0.08,-0,0.62
1697353401.49,0.03,-0,1.2,4,-4.5,28.8,0.78,0.08,-0,0.62
1697353401.5,-0,0.14,1.16,0.4,-4.7,29.2,0.78,0.08,-0,0.62
1697353401.51,-0.05,0.3,0.92,-1.7,-4.2,29.4,0.78,0.08,-0,0.62
1697353401.52,-0.03,0.35,0.99,-1.1,-3.3,29.9,0.78,0.08,-0,0.63
1697353401.53,0.01,0.33,0.77,1.1,-2.3,30.4,0.77,0.08,-0,0.63
1697353401.54,-0,0.28,1,2.6,-1.3,30.4,0.77,0.08,-0,0.63
1697353401.55,0.04,0.23,0.85,2.8,-0.3,30.3,0.77,0.08,-0,0.63
1697353401.56,0.09,0.15,0.86,0.8,0.8,29.8,0.77,0.08,-0,0.63
1697353401.57,0.07,0.21,1.03,-3.2,1.1,28.6,0.77,0.08,-0,0.64
1697353401.58,0.02,0.2,0.95,-3.9,1.5,28,0.77,0.08,-0,0.64
1697353401.59,0.03,0.25,0.84,-4.4,1.7,27.5,0.76,0.08,-0.01,0.64
1697353401.6,0,0.17,0.8,-4.9,1.9,26.9,0.76,0.08,-0.01,0.64
1697353401.61,-0.01,0.12,0.79,-6.4,2.3,26.3,0.76,0.08,-0.01,0.64
1697353401.62,-0.01,0.12,0.79,-6.4,2.3,26.3,0.76,0.08,-0.01,0.64
1697353401.63,-0.01,0.12,0.79,-6.4,2.3,26.3,0.76,0.08,-0.01,0.64
1697353401.64,-0.01,0.12,0.79,-6.4,2.3,26.3,0.76,0.08,-0.01,0.64
1697353401.65,-0.01,0.12,0.79,-6.4,2.3,26.3,0.76,0.08,-0.01,0.64
1697353401.66,-0.01,0.12,0.79,-6.4,2.3,26.3,0.76,0.08,-0.01,0.64
1697353401.67,-0.01,0.12,0.79,-6.4,2.3,26.3,0.76,0.08,-0.01,0.64
1697353401.68,-0.01,0.12,0.79,-6.4,2.3,26.3,0.76,0.08,-0.01,0.64
1697353401.69,-0.01,0.12,0.79,-6.4,2.3,26.3,0.76,0.08,-0.01,0.64
1697353401.7,-0.01,0.12,0.79,-6.4,2.3,26.3,0.76,0.08,-0.01,0.64
1697353401.71,-0.01,0.12,0.79,-6.4,2.3,26.3,0.76,0.08,-0.01,0.64
1697353401.72,-0.01,0.12,0.79,-6.4,2.3,26.3,0.76,0.08,-0.01,0.64
1697353401.73,-0.01,0.12,0.79,-6.4,2.3,26.3,0.76,0.08,-0.01,0.64
1697353401.74,-0.01,0.12,0.79,-6.4,2.3,26.3,0.76,0.08,-0.01,0.64
1697353401.75,-0.04,0.02,1.04,3,-0.2,23.3,0.74,0.08,-0.01,0.67
1697353401.76,-0.01,0.09,1.01,-0.3,-0.1,22.9,0.74,0.08,-0.01,0.67
1697353401.77,-0.03,0.14,1.02,-2.4,-1,22.4,0.74,0.08,-0.01,0.67
1697353401.78,-0,0.23,0.94,-3.4,-1.7,21.8,0.74,0.08,-0.01,0.67
1697353401.79,0,0.27,0.92,-3.4,-1.7,21.8,0.74,0.08,-0.01,0.67
1697353401.8,-0.01,0.12,0.91,-1.9,-4,20.7,0.74,0.08,-0.01,0.67
1697353401.81,0,0.1,0.94,-1.9,-4,20.7,0.73,0.08,-0.01,0.67
1697353401.82,-0.03,0.09,0.78,-1.8,-6.1,19.1,0.73,0.08,-0.01,0.68
1697353401.83,-0.18,0.16,1.21,-1.8,-6.1,19.1,0.73,0.08,-0.01,0.68
1697353401.84,-0.18,0.16,1.21,-2.1,-6.3,18.4,0.73,0.08,-0.01,0.68
1697353401.85,-0.15,0.01,1.11,3.2,-4.2,17.5,0.73,0.08,-0.01,0.68
1697353401.86,-0.09,-0.24,1.43,6.3,-1.2,17,0.73,0.08,-0.01,0.68
1697353401.87,0.03,-0.49,0.93,6.4,2.3,16.2,0.73,0.08,-0.01,0.68
1697353401.88,0.03,-0.46,1.01,3.2,4.6,14.8,0.73,0.08,-0.01,0.68
1697353401.89,0.14,-0.35,0.85,-1.5,5.7,13.4,0.73,0.08,-0.01,0.68
1697353401.9,0,-0.09,1.27,-2.9,6,11.9,0.73,0.08,-0.01,0.68
1697353401.91,0.1,0.12,1.03,-1.6,5.5,10.5,0.73,0.08,-0.01,0.68
1697353401.92,0.06,0.05,0.96,2.6,3.4,9.7,0.72,0.08,-0.01,0.69
1697353401.93,0.02,0.07,0.9,5.4,1.5,9.4,0.72,0.08,-0.01,0.69
1697353401.94,0.07,-0.01,0.63,5.5,-0.4,9.5,0.72,0.08,-0.01,0.69
1697353401.95,0.01,-0.06,0.92,3.2,-2.1,9.8,0.72,0.08,-0.01,0.69
1697353401.96,-0.03,-0.01,0.96,0,-3.5,9.7,0.72,0.08,-0.01,0.69
1697353401.97,0.01,0.02,0.93,-2.6,-4.4,9.2,0.72,0.08,-0.01,0.69
1697353401.98,0.09,0.04,0.69,-4.1,-4.8,8.5,0.72,0.08,-0.01,0.69
1697353401.99,0.03,-0.07,1.02,-4.4,-5.4,7.7,0.72,0.08,-0.01,0.69
1697353402,0.14,-0.16,0.86,-5.4,-6.5,6.1,0.72,0.08,-0.01,0.69
1697353402.01,0.14,-0.16,0.86,-5.4,-6.5,6.1,0.72,0.08,-0.01,0.69
1697353402.02,0.1,0.1,0.77,-14,-9.6,1.7,0.72,0.08,-0.02,0.69
1697353402.03,-0.05,0.36,0.98,-5.3,-8.3,-0.7,0.72,0.08,-0.02,0.69
1697353402.04,-0.19,0.14,1.09,3,-5.5,-1.3,0.72,0.08,-0.02,0.69
1697353402.05,-0.2,-0.09,1.22,8.2,-1.6,-1.7,0.72,0.08,-0.02,0.69
1697353402.06,-0.23,-0.49,1.36,7.3,2.1,-2.3,0.72,0.08,-0.02,0.69
1697353402.07,-0.12,-0.77,1.07,7.3,2.1,-2.3,0.72,0.08,-0.02,0.69
1697353402.08,-0.16,-0.7,1.46,-4.2,7.1,-3.9,0.72,0.08,-0.02,0.69
1697353402.09,-0.1,-0.34,0.96,-5.2,8,-3.7,0.72,0.08,-0.02,0.69
1697353402.1,0.05,-0.11,1.41,-1.8,7.3,-3.4,0.72,0.08,-0.02,0.69
1697353402.11,0.05,-0.11,1.41,-1.8,7.3,-3.4,0.72,0.08,-0.02,0.69
1697353402.12,0.07,-0.05,1.09,4.7,5.3,-2.5,0.72,0.08,-0.02,0.69
1697353402.13,0.14,-0.18,0.87,7.9,3.1,-2.2,0.72,0.08,-0.01,0.69
1697353402.14,0.14,-0.18,0.87,7.9,3.1,-2.2,0.72,0.08,-0.01,0.69
1697353402.15,0.14,-0.18,0.87,7.9,3.1,-2.2,0.72,0.08,-0.01,0.69
1697353402.16,0.14,-0.18,0.87,7.9,3.1,-2.2,0.72,0.08,-0.01,0.69
1697353402.17,0.14,-0.18,0.87,7.9,3.1,-2.2,0.72,0.08,-0.01,0.69
1697353402.18,0.14,-0.18,0.87,7.9,3.1,-2.2,0.72,0.08,-0.01,0.69
1697353402.19,0.14,-0.18,0.87,7.9,3.1,-2.2,0.72,0.08,-0.01,0.69
1697353402.2,0.14,-0.18,0.87,7.9,3.1,-2.2,0.72,0.08,-0.01,0.69
1697353402.21,0.14,-0.18,0.87,7.9,3.1,-2.2,0.72,0.08,-0.01,0.69
1697353402.22,0.14,-0.18,0.87,7.9,3.1,-2.2,0.72,0.08,-0.01,0.69
1697353402.23,0.14,-0.18,0.87,7.9,3.1,-2.2,0.72,0.08,-0.01,0.69
1697353402.24,0.14,-0.18,0.87,7.9,3.1,-2.2,0.72,0.08,-0.01,0.69
1697353402.25,0.14,-0.18,0.87,7.9,3.1,-2.2,0.72,0.08,-0.01,0.69
1697353402.26,0.14,-0.18,0.87,7.9,3.1,-2.2,0.72,0.08,-0.01,0.69
1697353402.27,0.14,-0.18,0.87,7.9,3.1,-2.2,0.72,0.08,-0.01,0.69
1697353402.28,0.14,-0.18,0.87,7.9,3.1,-2.2,0.72,0.08,-0.01,0.69
1697353402.29,0.14,-0.18,0.87,7.9,3.1,-2.2,0.72,0.08,-0.01,0.69
1697353402.3,0.14,-0.18,0.87,7.9,3.1,-2.2,0.72,0.08,-0.01,0.69
1697353402.31,0.14,-0.18,0.87,7.9,3.1,-2.2,0.72,0.08,-0.01,0.69
1697353402.32,0.14,-0.18,0.87,7.9,3.1,-2.2,0.72,0.08,-0.01,0.69
1697353402.33,0.14,-0.18,0.87,7.9,3.1,-2.2,0.72,0.08,-0.01,0.69
1697353402.34,0.14,-0.18,0.87,7.9,3.1,-2.2,0.72,0.08,-0.01,0.69
1697353402.35,0.14,-0.18,0.87,7.9,3.1,-2.2,0.72,0.08,-0.01,0.69
1697353402.36,0.14,-0.18,0.87,7.9,3.1,-2.2,0.72,0.08,-0.01,0.69
1697353402.37,0.14,-0.18,0.87,7.9,3.1,-2.2,0.72,0.08,-0.01,0.69
1697353402.38,0.14,-0.18,0.87,7.9,3.1,-2.2,0.72,0.08,-0.01,0.69
1697353402.39,0.14,-0.18,0.87,7.9,3.1,-2.2,0.72,0.08,-0.01,0.69
1697353402.4,0.14,-0.18,0.87,7.9,3.1,-2.2,0.72,0.08,-0.01,0.69
1697353402.41,0.14,-0.18,0.87,7.9,3.1,-2.2,0.72,0.08,-0.01,0.69
1697353402.42,0.14,-0.18,0.87,7.9,3.1,-2.2,0.72,0.08,-0.01,0.69
1697353402.43,0.14,-0.18,0.87,7.9,3.1,-2.2,0.72,0.08,-0.01,0.69
1697353402.44,0.14,-0.18,0.87,7.9,3.1,-2.2,0.72,0.08,-0.01,0.69
1697353402.45,0.14,-0.18,0.87,7.9,3.1,-2.2,0.72,0.08,-0.01,0.69
1697353402.46,0.14,-0.18,0.87,7.9,3.1,-2.2,0.72,0.08,-0.01,0.69
1697353402.47,0.14,-0.18,0.87,7.9,3.1,-2.2,0.72,0.08,-0.01,0.69
1697353402.48,0.14,-0.18,0.87,7.9,3.1,-2.2,0.72,0.08,-0.01,0.69
1697353402.49,0.14,-0.18,0.87,7.9,3.1,-2.2,0.72,0.08,-0.01,0.69
1697353402.5,0.14,-0.18,0.87,7.9,3.1,-2.2,0.72,0.08,-0.01,0.69
1697353402.51,0.14,-0.18,0.87,7.9,3.1,-2.2,0.72,0.08,-0.01,0.69
1697353402.52,0.14,-0.18,0.87,7.9,3.1,-2.2,0.72,0.08,-0.01,0.69
1697353402.53,0.14,-0.18,0.87,7.9,3.1,-2.2,0.72,0.08,-0.01,0.69
1697353402.54,0.14,-0.18,0.87,7.9,3.1,-2.2,0.72,0.08,-0.01,0.69
1697353402.55,0.14,-0.18,0.87,7.9,3.1,-2.2,0.72,0.08,-0.01,0.69
1697353402.56,0.14,-0.18,0.87,7.9,3.1,-2.2,0.72,0.08,-0.01,0.69
1697353402.57,0.14,-0.18,0.87,7.9,3.1,-2.2,0.72,0.08,-0.01,0.69
1697353402.58,0.14,-0.18,0.87,7.9,3.1,-2.2,0.72,0.08,-0.01,0.69
1697353402.59,0.14,-0.18,0.87,7.9,3.1,-2.2,0.72,0.08,-0.01,0.69
1697353402.6,0.14,-0.18,0.87,7.9,3.1,-2.2,0.72,0.08,-0.01,0.69
1697353402.61,0.14,-0.18,0.87,7.9,3.1,-2.2,0.72,0.08,-0.01,0.69
1697353402.62,0.14,-0.18,0.87,7.9,3.1,-2.2,0.72,0.08,-0.01,0.69
1697353402.63,0.14,-0.18,0.87,7.9,3.1,-2.2,0.72,0.08,-0.01,0.69
1697353402.64,0.14,-0.18,0.87,7.9,3.1,-2.2,0.72,0.08,-0.01,0.69
1697353402.65,0.14,-0.18,0.87,7.9,3.1,-2.2,0.72,0.08,-0.01,0.69
1697353402.66,0.14,-0.18,0.87,7.9,3.1,-2.2,0.72,0.08,-0.01,0.69
1697353402.67,0.14,-0.18,0.87,7.9,3.1,-2.2,0.72,0.08,-0.01,0.69
1697353402.68,0.14,-0.18,0.87,7.9,3.1,-2.2,0.72,0.08,-0.01,0.69
1697353402.69,0.14,-0.18,0.87,7.9,3.1,-2.2,0.72,0.08,-0.01,0.69
1697353402.7,0.14,-0.18,0.87,7.9,3.1,-2.2,0.72,0.08,-0.01,0.69
1697353402.71,0.14,-0.18,0.87,7.9,3.1,-2.2,0.72,0.08,-0.01,0.69
1697353402.72,0.14,-0.18,0.87,7.9,3.1,-2.2,0.72,0.08,-0.01,0.69
1697353402.73,0.14,-0.18,0.87,7.9,3.1,-2.2,0.72,0.08,-0.01,0.69
1697353402.74,0.14,-0.18,0.87,7.9,3.1,-2.2,0.72,0.08,-0.01,0.69
1697353402.75,0.14,-0.18,0.87,7.9,3.1,-2.2,0.72,0.08,-0.01,0.69
1697353402.76,0.12,0.05,0.99,0.3,-0.8,-1.2,0.74,0.07,-0.01,0.67
1697353402.77,0.12,0.05,0.99,0.3,-0.8,-1.2,0.74,0.07,-0.01,0.67
1697353402.78,0.11,0.04,1.06,-0.4,-0.4,-0.9,0.74,0.07,-0.02,0.67
1697353402.79,0.29,0.1,0.97,-0.4,-0.4,-0.9,0.74,0.07,-0.02,0.67
1697353402.8,0.29,0.15,0.98,0.6,-0.9,-0.3,0.74,0.07,-0.02,0.67
1697353402.81,0.2,0.03,1.05,0.6,-0.9,-0.3,0.74,0.07,-0.02,0.67
1697353402.82,0.2,0.03,1.05,1.4,-1.7,0,0.74,0.07,-0.02,0.67
1697353402.83,0.26,0.01,0.94,1.8,-2.3,0.4,0.74,0.07,-0.02,0.67
1697353402.84,0.12,-0,1.09,0.1,-2.2,1.5,0.74,0.07,-0.02,0.67
1697353402.85,0.17,0.03,1.05,0.1,-2.2,1.5,0.74,0.07,-0.02,0.67
1697353402.86,0.12,0.06,0.88,-0.2,-0.6,2.3,0.74,0.07,-0.02,0.67
1697353402.87,0.08,0.04,1.16,0.5,0.2,2.7,0.74,0.07,-0.02,0.67
1697353402.88,0.06,0.04,1.02,0.7,0.4,2.7,0.74,0.07,-0.02,0.67
1697353402.89,0.09,0.01,1.13,1.5,1.6,2.9,0.74,0.07,-0.02,0.67
1697353402.9,0.13,-0.03,1.05,1.9,2.3,2.9,0.74,0.07,-0.02,0.67
1697353402.91,0.12,-0.03,1.08,1.5,2.8,2.7,0.74,0.07,-0.02,0.67
1697353402.92,0.14,-0.04,1.02,0.4,2.8,2.5,0.74,0.07,-0.02,0.67
1697353402.93,0.07,0.01,0.97,-0.2,2.6,2.4,0.74,0.07,-0.02,0.67
1697353402.94,-0.02,0.08,1.2,-1.6,2.2,2.3,0.74,0.07,-0.02,0.67
1697353402.95,0.07,0.09,0.95,-2.1,2,2.3,0.74,0.07,-0.02,0.67
1697353402.96,0.02,0.17,0.89,-1.4,1.9,2.7,0.74,0.07,-0.02,0.67
1697353402.97,0.04,0.12,0.73,-0.6,1.4,3.3,0.74,0.07,-0.02,0.67
1697353402.98,0.09,0.09,0.68,-0.2,1.2,3.8,0.74,0.07,-0.02,0.67
1697353402.99,0.05,0.07,0.95,-0.7,1,4.3,0.74,0.07,-0.02,0.67
1697353403,0.08,-0,0.88,-1.2,0.3,4.6,0.74,0.07,-0.02,0.67
1697353403.01,0.03,0.05,1.04,-1.7,0.3,4.6,0.74,0.07,-0.02,0.67
1697353403.02,0.07,0.03,0.95,-1.3,0.2,4.6,0.73,0.07,-0.02,0.67
1697353403.03,0.07,0.01,1.09,-0.1,0.4,4.5,0.73,0.07,-0.02,0.67
1697353403.04,0.04,0.03,1.02,1.1,0.8,4.3,0.73,0.07,-0.02,0.67
1697353403.05,0.07,-0.04,1.01,1.3,1.1,4.3,0.73,0.07,-0.02,0.68
1697353403.06,0.07,-0.04,1.01,1.3,1.1,4.3,0.73,0.07,-0.02,0.68
1697353403.07,0.09,0.01,0.97,0,1.7,4.6,0.73,0.07,-0.02,0.68
1697353403.08,0.08,0.08,0.97,0,1.7,4.7,0.73,0.07,-0.02,0.68
1697353403.09,0.11,0.11,0.87,0.1,2.1,5,0.73,0.07,-0.02,0.68
1697353403.1,0.15,0.02,0.62,0,2.2,5.2,0.73,0.07,-0.02,0.68
1697353403.11,0.09,0.02,0.89,0,2.2,5.2,0.73,0.07,-0.02,0.68
1697353403.12,0.09,0.02,0.89,0,1.9,5.2,0.73,0.07,-0.02,0.68
1697353403.13,0.03,-0.03,1.29,-0.4,1.6,4.6,0.73,0.07,-0.02,0.68
1697353403.14,0.03,-0.03,1.29,-0.4,1.6,4.6,0.73,0.07,-0.02,0.68
1697353403.15,0.04,-0.01,1.14,-1,0.9,4.2,0.73,0.07,-0.02,0.68
1697353403.16,0.04,-0.01,1.14,-1,0.9,4.2,0.73,0.07,-0.02,0.68
1697353403.17,0.04,-0.01,1.14,-1,0.9,4.2,0.73,0.07,-0.02,0.68
1697353403.18,0.04,-0.01,1.14,-1,0.9,4.2,0.73,0.07,-0.02,0.68
1697353403.19,0.04,-0.01,1.14,-1,0.9,4.2,0.73,0.07,-0.02,0.68
1697353403.2,0.04,-0.01,1.14,-1,0.9,4.2,0.73,0.07,-0.02,0.68
1697353403.21,0.04,-0.01,1.14,-1,0.9,4.2,0.73,0.07,-0.02,0.68
1697353403.22,0.04,-0.01,1.14,-1,0.9,4.2,0.73,0.07,-0.02,0.68
1697353403.23,0.04,-0.01,1.14,-1,0.9,4.2,0.73,0.07,-0.02,0.68
1697353403.24,0.04,-0.01,1.14,-1,0.9,4.2,0.73,0.07,-0.02,0.68
1697353403.25,0.04,-0.01,1.14,-1,0.9,4.2,0.73,0.07,-0.02,0.68
1697353403.26,0.04,-0.01,1.14,-1,0.9,4.2,0.73,0.07,-0.02,0.68
1697353403.27,0.04,-0.01,1.14,-1,0.9,4.2,0.73,0.07,-0.02,0.68
1697353403.28,0.01,0,0.76,-6.5,1.6,-6.4,0.73,0.07,-0.02,0.68
1697353403.29,0.09,-0.07,0.58,-5.1,3.3,-7.1,0.73,0.07,-0.02,0.68
1697353403.3,0.08,-0.24,0.8,-4.2,3.7,-8.8,0.73,0.07,-0.02,0.68
1697353403.31,-0.04,-0.52,0.64,-4.7,4.3,-11.3,0.73,0.07,-0.02,0.67
1697353403.32,-0.02,-0.27,1.08,-3.4,3.4,-12.7,0.74,0.07,-0.02,0.67
1697353403.33,0.1,-0.36,1.1,1.1,1,-15.1,0.74,0.07,-0.02,0.67
1697353403.34,0.05,-0.37,1.34,4.3,-1.3,-18,0.74,0.07,-0.02,0.67
1697353403.35,-0.02,-0.51,1.24,3.6,-4,-20.2,0.74,0.07,-0.02,0.67
1697353403.36,-0.01,-0.61,1.08,0,-5.4,-21.5,0.74,0.07,-0.02,0.67
1697353403.37,0.03,-0.5,0.81,-2.6,-5.6,-23,0.74,0.07,-0.02,0.67
1697353403.38,-0,-0.33,1.21,-3.3,-4.8,-23.3,0.74,0.07,-0.02,0.67
1697353403.39,-0.1,-0.21,1.2,-1.8,-3.9,-23.3,0.74,0.07,-0.02,0.66
1697353403.4,-0.01,-0.14,1.04,0.3,-2.9,-23.2,0.75,0.07,-0.02,0.66
1697353403.41,0.13,-0.26,0.86,0.7,-2.8,-23.3,0.75,0.07,-0.02,0.66
1697353403.42,0.07,-0.36,0.94,1.1,-2.5,-23.9,0.75,0.07,-0.02,0.66
1697353403.43,0.03,-0.49,1,0,-2.5,-24.8,0.75,0.07,-0.02,0.66
1697353403.44,0.12,-0.49,0.62,-3.7,-3.8,-27.7,0.75,0.07,-0.02,0.66
1697353403.45,-0.04,-0.38,1.01,-4.8,-4.3,-29.3,0.75,0.07,-0.02,0.66
1697353403.46,-0.04,-0.38,1.01,-4.8,-4.3,-29.3,0.75,0.07,-0.02,0.65
1697353403.47,0,-0.42,0.78,-3.7,-4.6,-30.6,0.76,0.07,-0.02,0.65
1697353403.48,0,-0.42,0.78,-2.6,-4.6,-32.1,0.76,0.07,-0.02,0.65
1697353403.49,0.05,-0.43,0.8,-3.3,-4.6,-33.6,0.76,0.07,-0.02,0.65
1697353403.5,-0.13,-0.11,1.09,-5.1,-4.5,-35,0.76,0.07,-0.02,0.65
1697353403.51,-0.13,-0.11,1.09,-2.1,-3.3,-35.4,0.76,0.07,-0.02,0.64
1697353403.52,-0.23,-0.13,1.19,7.2,-0.1,-35.8,0.77,0.07,-0.02,0.64
1697353403.53,-0.1,-0.42,1.11,10,3,-35.4,0.77,0.07,-0.02,0.64
1697353403.54,-0.14,-0.78,1.16,8.4,5.4,-35.7,0.77,0.07,-0.02,0.64
1697353403.55,-0.07,-0.82,1.16,1.3,6.6,-36.1,0.77,0.07,-0.02,0.63
1697353403.56,0.09,-0.67,1.04,-4.2,6.4,-36.2,0.77,0.07,-0.02,0.63
1697353403.57,0.16,-0.4,0.52,-6.7,4.2,-35.7,0.78,0.07,-0.02,0.63
1697353403.58,0.17,-0.25,0.85,-6.7,4.2,-35.7,0.78,0.07,-0.02,0.63
1697353403.59,0.1,-0,1.07,-3.3,-2.9,-35.6,0.78,0.07,-0.02,0.62
1697353403.6,0.24,-0.07,0.51,-0.7,-5.9,-36.2,0.78,0.07,-0.02,0.62
1697353403.61,0.06,-0.12,1.02,0.2,-7.9,-37,0.78,0.07,-0.02,0.62
1697353403.62,0.01,-0.13,0.81,4.4,-7.4,-37.5,0.79,0.07,-0.02,0.61
1697353403.63,-0.15,-0.26,0.88,8,-5.5,-37.4,0.79,0.07,-0.02,0.61
1697353403.64,-0.16,-0.55,1.14,6.9,-2.2,-37.5,0.79,0.07,-0.02,0.61
1697353403.65,-0.19,-0.65,1.22,4.1,1.4,-37.5,0.79,0.07,-0.02,0.61
1697353403.66,-0.25,-0.64,1.41,0.3,5.5,-37.2,0.79,0.07,-0.02,0.6
1697353403.67,-0.25,-0.64,1.41,0.3,5.5,-37.2,0.79,0.07,-0.02,0.6
1697353403.68,-0.25,-0.64,1.41,0.3,5.5,-37.2,0.79,0.07,-0.02,0.6
1697353403.69,-0.25,-0.64,1.41,0.3,5.5,-37.2,0.79,0.07,-0.02,0.6
1697353403.7,-0.25,-0.64,1.41,0.3,5.5,-37.2,0.79,0.07,-0.02,0.6
1697353403.71,-0.25,-0.64,1.41,0.3,5.5,-37.2,0.79,0.07,-0.02,0.6
1697353403.72,-0.25,-0.64,1.41,0.3,5.5,-37.2,0.79,0.07,-0.02,0.6
1697353403.73,-0.25,-0.64,1.41,0.3,5.5,-37.2,0.79,0.07,-0.02,0.6
1697353403.74,-0.25,-0.64,1.41,0.3,5.5,-37.2,0.79,0.07,-0.02,0.6
1697353403.75,-0.25,-0.64,1.41,0.3,5.5,-37.2,0.79,0.07,-0.02,0.6
1697353403.76,-0.25,-0.64,1.41,0.3,5.5,-37.2,0.79,0.07,-0.02,0.6
1697353403.77,-0.25,-0.64,1.41,0.3,5.5,-37.2,0.79,0.07,-0.02,0.6
1697353403.78,-0.25,-0.64,1.41,0.3,5.5,-37.2,0.79,0.07,-0.02,0.6
1697353403.79,-0.25,-0.64,1.41,0.3,5.5,-37.2,0.79,0.07,-0.02,0.6
1697353403.8,-0.25,-0.64,1.41,0.3,5.5,-37.2,0.79,0.07,-0.02,0.6
1697353403.81,0.05,-0.31,0.9,0.4,-4.6,-36.5,0.82,0.07,-0.01,0.57
1697353403.82,-0.01,-0.35,1.21,-1.1,-3.6,-36.6,0.82,0.07,-0.01,0.57
1697353403.83,-0.01,-0.35,1.21,-1.3,-2.4,-36.6,0.82,0.07,-0.01,0.56
1697353403.84,0.07,-0.38,1.27,-0.1,-0.6,-36.8,0.83,0.07,-0.01,0.56
1697353403.85,0.12,-0.37,1.17,1.3,0.6,-36.6,0.83,0.07,-0.01,0.56
1697353403.86,0.06,-0.42,0.81,2.4,2.1,-36.7,0.83,0.07,-0.01,0.55
1697353403.87,0.02,-0.4,0.99,1,2.8,-36.4,0.83,0.07,-0.01,0.55
1697353403.88,0.11,-0.27,1.14,-0.9,2.7,-36.2,0.83,0.07,-0.01,0.55
1697353403.89,0.13,-0.28,1.01,-1.5,2.6,-35.7,0.83,0.07,-0.01,0.55
1697353403.9,0.11,-0.26,1.27,-1.2,2.1,-35.2,0.83,0.07,-0.01,0.55
1697353403.91,0.18,-0.23,1.09,-0.5,0.9,-34.5,0.84,0.07,-0.01,0.54
1697353403.92,0.11,-0.25,1.13,0,-0.1,-33.9,0.84,0.07,-0.01,0.54
1697353403.93,0.09,-0.23,0.93,-0.1,-1.1,-33.3,0.84,0.07,-0.01,0.54
1697353403.94,0.08,-0.28,0.88,0.3,-1.8,-32.8,0.84,0.07,-0.01,0.54
1697353403.95,0.05,-0.26,0.98,0.2,-1.7,-32.6,0.84,0.07,-0.01,0.53
1697353403.96,0.11,-0.29,0.95,1,-1.5,-32.4,0.84,0.07,-0.01,0.53
1697353403.97,0.13,-0.35,1.23,1.1,-0.3,-32.3,0.85,0.07,-0.01,0.53
1697353403.98,0.15,-0.19,1.17,0.7,0.1,-32,0.85,0.07,-0.01,0.52
1697353403.99,0.1,-0.27,1.22,0.4,0.8,-32.1,0.85,0.07,-0.01,0.52
1697353404,0.14,-0.36,0.83,0.1,1.3,-31.9,0.85,0.07,-0.01,0.52
1697353404.01,0.08,-0.34,0.98,-0.1,1.4,-31.9,0.85,0.07,-0.01,0.52
1697353404.02,0.13,-0.17,0.84,-0.1,1.4,-31.9,0.85,0.07,-0,0.51
1697353404.03,0.17,-0.21,0.82,-0.4,1.2,-31.9,0.86,0.07,-0,0.51
1697353404.04,0.04,-0.26,1.02,-0.1,1.1,-31.8,0.86,0.07,-0,0.51
1697353404.05,0.14,-0.34,0.99,0,0.9,-31.9,0.86,0.07,-0,0.51
1697353404.06,0.24,-0.2,0.93,-0.6,0.3,-31.7,0.86,0.07,-0,0.5
1697353404.07,0.07,-0.38,1.06,-0.6,-0.2,-31.8,0.86,0.07,-0,0.5
1697353404.08,0.15,-0.35,0.74,-0.6,-0.2,-31.8,0.86,0.07,-0,0.5
1697353404.09,0.12,-0.13,1,-0.6,-1.3,-31.1,0.86,0.07,-0,0.5
1697353404.1,0.18,-0.32,1.05,0.8,-1.6,-31.2,0.87,0.07,-0,0.49
1697353404.11,0.18,-0.32,1.05,0.8,-1.6,-31.2,0.87,0.07,-0,0.49
1697353404.12,0.15,-0.2,0.97,0.7,-1.1,-30.8,0.87,0.07,-0,0.49
1697353404.13,0.1,-0.37,1.01,0.7,-1.1,-30.8,0.87,0.07,-0,0.49
1697353404.14,0.09,-0.44,0.6,-0.5,0.1,-31,0.87,0.07,-0,0.49
1697353404.15,0.07,-0.43,1.12,-0.8,0.6,-30.8,0.87,0.07,-0,0.49
1697353404.16,0.07,-0.43,1.12,-0.8,0.6,-30.8,0.87,0.07,-0,0.48
1697353404.17,0.21,-0.34,1.04,-0.8,1,-30.5,0.87,0.07,-0,0.48
1697353404.18,0.21,-0.34,1.04,0,1.1,-30.8,0.88,0.07,-0,0.48
1697353404.19,0.12,-0.15,0.94,-0.8,1.3,-29.9,0.88,0.07,-0,0.48
1697353404.2,0.12,-0.15,0.94,-0.8,1.3,-29.9,0.88,0.07,-0,0.48
1697353404.21,0.12,-0.15,0.94,-0.8,1.3,-29.9,0.88,0.07,-0,0.48
1697353404.22,0.12,-0.15,0.94,-0.8,1.3,-29.9,0.88,0.07,-0,0.48
1697353404.23,0.12,-0.15,0.94,-0.8,1.3,-29.9,0.88,0.07,-0,0.48
1697353404.24,0.12,-0.15,0.94,-0.8,1.3,-29.9,0.88,0.07,-0,0.48
1697353404.25,0.12,-0.15,0.94,-0.8,1.3,-29.9,0.88,0.07,-0,0.48
1697353404.26,0.12,-0.15,0.94,-0.8,1.3,-29.9,0.88,0.07,-0,0.48
1697353404.27,0.12,-0.15,0.94,-0.8,1.3,-29.9,0.88,0.07,-0,0.48
1697353404.28,0.12,-0.15,0.94,-0.8,1.3,-29.9,0.88,0.07,-0,0.48
1697353404.29,0.12,-0.15,0.94,-0.8,1.3,-29.9,0.88,0.07,-0,0.48
1697353404.3,0.12,-0.15,0.94,-0.8,1.3,-29.9,0.88,0.07,-0,0.48
1697353404.31,0.12,-0.15,0.94,-0.8,1.3,-29.9,0.88,0.07,-0,0.48
1697353404.32,0.13,-0.57,0.69,-0.8,1.3,-29.9,0.88,0.07,-0,0.48
1697353404.33,0.12,-0.36,1.16,0.1,-0.8,-31.2,0.89,0.07,-0,0.44
1697353404.34,0.17,-0.37,1.25,-0.7,-1,-31.1,0.9,0.07,-0,0.44
1697353404.35,0.08,-0.29,1.13,-1.7,-1.6,-31.3,0.9,0.07,-0,0.44
1697353404.36,0.08,-0.38,0.95,-1.8,-2.1,-31.5,0.9,0.07,-0,0.43
1697353404.37,0.05,-0.33,0.78,-0.8,-1.9,-31.5,0.9,0.07,-0,0.43
1697353404.38,0.09,-0.32,0.95,0.1,-1.5,-31.8,0.9,0.07,-0,0.43
1697353404.39,0.05,-0.28,1.17,0.6,-0.7,-31.7,0.9,0.07,-0,0.43
1697353404.4,0.23,-0.38,0.8,0.2,0.6,-31.6,0.9,0.07,0,0.42
1697353404.41,0.1,-0.43,0.79,-0.6,1.9,-31.6,0.9,0.07,0,0.42
1697353404.42,0.14,-0.39,1.19,-1.2,2.8,-31.3,0.9,0.07,0,0.42
1697353404.43,0.26,-0.27,0.85,-0.8,3.2,-31.3,0.91,0.07,0,0.42
1697353404.44,0.06,-0.34,0.94,-0.2,3,-31.1,0.91,0.07,0,0.41
1697353404.45,0.1,-0.34,0.79,0.6,2.6,-31.2,0.91,0.07,0,0.41
1697353404.46,0.13,-0.41,0.98,0.6,2.6,-31.2,0.91,0.07,0,0.41
1697353404.47,0.12,-0.42,1.12,1,1.4,-31.3,0.91,0.07,0,0.41
1697353404.48,0.09,-0.47,0.9,1,0.7,-31.7,0.91,0.07,0,0.4
1697353404.49,0.17,-0.35,0.96,0.8,0.1,-31.8,0.91,0.07,0,0.4
1697353404.5,0.18,-0.26,0.85,0.9,-0.1,-31.7,0.91,0.07,0,0.4
1697353404.51,0.18,-0.26,0.85,0.9,-0.1,-31.7,0.91,0.07,0,0.4
1697353404.52,0.12,-0.51,1.2,1.1,0.2,-31.8,0.92,0.07,0,0.39
1697353404.53,0.06,-0.23,1.02,1.1,0.2,-31.8,0.92,0.07,0,0.39
1697353404.54,0.03,-0.34,0.82,0,1.7,-32.2,0.92,0.07,0,0.39
1697353404.55,0.1,-0.32,1.09,0,1.7,-32.2,0.92,0.07,0,0.39
1697353404.56,0.15,-0.4,1.31,-0.1,2.7,-32.5,0.92,0.07,0.01,0.38
1697353404.57,0.19,-0.2,1.03,-0.2,3.5,-32.4,0.92,0.07,0.01,0.38
1697353404.58,0.14,-0.37,1.01,1.1,3.5,-32.9,0.92,0.07,0.01,0.38
1697353404.59,0.2,-0.4,0.95,2.3,2.6,-33,0.92,0.07,0.01,0.38
1697353404.6,0.09,-0.49,1.03,2.8,2.2,-32.7,0.92,0.07,0.01,0.37
1697353404.61,0.15,-0.41,1.05,2,2.6,-32.8,0.93,0.07,0.01,0.37
1697353404.62,0.1,-0.33,1.1,0.5,3.2,-32.9,0.93,0.07,0.01,0.37
1697353404.63,0.1,-0.33,1.1,-2.1,3.7,-32.6,0.93,0.07,0.01,0.37
1697353404.64,0.08,-0.33,0.72,-2.7,3.8,-32.7,0.93,0.07,0.01,0.37
1697353404.65,0.09,-0.21,0.96,-2,3.3,-33,0.93,0.07,0.01,0.36
1697353404.66,0.05,-0.23,1.1,-0.1,2.5,-32.9,0.93,0.07,0.01,0.36
1697353404.67,0.12,-0.37,1.04,2.3,1.8,-32.8,0.93,0.07,0.01,0.35
1697353404.68,0.11,-0.43,0.67,3.1,1,-33,0.93,0.07,0.01,0.35
1697353404.69,0.03,-0.49,0.97,2.1,0.4,-33,0.93,0.07,0.01,0.35
1697353404.7,0.1,-0.37,0.96,-0.2,0,-33.1,0.94,0.07,0.01,0.35
1697353404.71,0.12,-0.38,1.09,-0.5,-0.2,-33.1,0.94,0.07,0.01,0.34
1697353404.72,0.07,-0.33,1.18,0.3,-0.2,-33.1,0.94,0.07,0.01,0.34
1697353404.73,0.07,-0.33,1.18,0.3,-0.2,-33.1,0.94,0.07,0.01,0.34
1697353404.74,0.07,-0.33,1.18,0.3,-0.2,-33.1,0.94,0.07,0.01,0.34
1697353404.75,0.07,-0.33,1.18,0.3,-0.2,-33.1,0.94,0.07,0.01,0.34
1697353404.76,0.07,-0.33,1.18,0.3,-0.2,-33.1,0.94,0.07,0.01,0.34
1697353404.77,0.07,-0.33,1.18,0.3,-0.2,-33.1,0.94,0.07,0.01,0.34
1697353404.78,0.07,-0.33,1.18,0.3,-0.2,-33.1,0.94,0.07,0.01,0.34
1697353404.79,0.07,-0.33,1.18,0.3,-0.2,-33.1,0.94,0.07,0.01,0.34
1697353404.8,0.07,-0.33,1.18,0.3,-0.2,-33.1,0.94,0.07,0.01,0.34
1697353404.81,0.07,-0.33,1.18,0.3,-0.2,-33.1,0.94,0.07,0.01,0.34
1697353404.82,0.07,-0.33,1.18,0.3,-0.2,-33.1,0.94,0.07,0.01,0.34
1697353404.83,0.07,-0.33,1.18,0.3,-0.2,-33.1,0.94,0.07,0.01,0.34
1697353404.84,0.07,-0.33,1.18,0.3,-0.2,-33.1,0.94,0.07,0.01,0.34
1697353404.85,0.07,-0.33,1.18,0.3,-0.2,-33.1,0.94,0.07,0.01,0.34
1697353404.86,0.07,-0.44,0.93,1,-1.3,-33.9,0.95,0.07,0.01,0.3
1697353404.87,0.15,-0.51,0.75,1,-1.3,-33.9,0.95,0.07,0.01,0.3
1697353404.88,0.07,-0.36,1.1,0.4,-0.8,-34,0.95,0.07,0.01,0.3
1697353404.89,0.1,-0.26,1.04,0.7,1.7,-33.5,0.95,0.07,0.02,0.3
1697353404.9,-0,-0.37,1.02,0.7,1.7,-33.5,0.95,0.07,0.02,0.29
1697353404.91,-0,-0.37,1.02,1.4,2.7,-33.7,0.95,0.07,0.02,0.29
1697353404.92,0.21,-0.51,1.1,1.8,2.9,-33.7,0.96,0.07,0.02,0.29
1697353404.93,0.21,-0.51,1.1,1.8,2.9,-33.9,0.96,0.07,0.02,0.28
1697353404.94,0.13,-0.53,0.88,1.5,2.2,-34.2,0.96,0.07,0.02,0.28
1697353404.95,0.16,-0.42,1.1,1.3,1.5,-34.7,0.96,0.07,0.02,0.28
1697353404.96,0.03,-0.33,1.15,1.8,0.7,-34.9,0.96,0.07,0.02,0.27
1697353404.97,0.13,-0.44,0.91,1.8,-0.3,-35.1,0.96,0.07,0.02,0.27
1697353404.98,0.14,-0.49,1.27,-0.2,-1.1,-35.2,0.96,0.07,0.02,0.27
1697353404.99,0.21,-0.46,1.07,-1,-1.2,-35.2,0.96,0.07,0.02,0.26
1697353405,0.21,-0.26,0.9,-3.1,-1.9,-35.1,0.96,0.07,0.02,0.26
1697353405.01,0.24,-0.28,0.86,-3.5,-1.9,-34.5,0.96,0.07,0.02,0.26
1697353405.02,0.15,-0.15,1.07,-1.6,-1.9,-33.8,0.96,0.07,0.02,0.26
1697353405.03,0.03,-0.33,1.06,1.3,-2,-32.9,0.96,0.07,0.02,0.25
1697353405.04,0.18,-0.42,0.94,2.7,-2.3,-32.3,0.97,0.07,0.02,0.25
1697353405.05,0.09,-0.5,1.27,-0.5,-2.2,-32.1,0.97,0.07,0.02,0.25
1697353405.06,0.13,-0.48,1.19,-3.7,-1.6,-32.1,0.97,0.07,0.02,0.24
1697353405.07,0.11,-0.23,0.95,-3.7,-1.6,-32.1,0.97,0.07,0.02,0.24
1697353405.08,0.18,-0.13,1.21,-2.4,-1,-31.6,0.97,0.07,0.02,0.24
1697353405.09,0.14,-0.28,1.17,1.4,-0.6,-30.9,0.97,0.07,0.02,0.24
1697353405.1,0.12,-0.21,0.93,4.6,0.1,-30.4,0.97,0.07,0.02,0.23
1697353405.11,0.09,-0.39,0.79,5,1,-29.9,0.97,0.07,0.02,0.23
1697353405.12,0.1,-0.49,0.8,2.6,1.6,-29.5,0.97,0.07,0.02,0.23
1697353405.13,0.21,-0.41,0.89,-0.5,2.6,-29.2,0.97,0.07,0.02,0.23
1697353405.14,0.3,-0.23,0.73,-2.6,2.3,-29,0.97,0.07,0.02,0.22
1697353405.15,0.2,-0.15,0.92,-2.5,1.2,-27.7,0.97,0.07,0.02,0.22
1697353405.16,0.2,-0.15,0.92,-2.5,1.2,-27.7,0.97,0.07,0.02,0.22
1697353405.17,0.14,-0.28,1.02,2.2,-2.5,-25.4,0.97,0.07,0.02,0.22
1697353405.18,0.14,-0.28,1.02,2.2,-2.5,-25.4,0.97,0.07,0.02,0.22
1697353405.19,0.22,-0.32,0.98,-3,-3.5,-24.6,0.97,0.06,0.02,0.21
1697353405.2,0.1,-0.24,1.21,-3,-3.5,-24.6,0.97,0.06,0.02,0.21
1697353405.21,0.1,-0.24,1.21,-4.5,-3.4,-24,0.98,0.06,0.02,0.21
1697353405.22,0.16,-0.03,1.07,-4.2,-2.9,-23.4,0.98,0.06,0.02,0.21
1697353405.23,0.11,-0.17,1.06,2.1,-2.1,-22.4,0.98,0.06,0.02,0.21
1697353405.24,0.11,-0.17,1.06,2.1,-2.1,-22.4,0.98,0.06,0.02,0.2
1697353405.25,0.03,-0.43,1.16,3.2,-1.1,-20.2,0.98,0.06,0.02,0.2
1697353405.26,0.03,-0.43,1.16,3.2,-1.1,-20.2,0.98,0.06,0.02,0.2
1697353405.27,0.03,-0.43,1.16,3.2,-1.1,-20.2,0.98,0.06,0.02,0.2
1697353405.28,0.03,-0.43,1.16,3.2,-1.1,-20.2,0.98,0.06,0.02,0.2
1697353405.29,0.03,-0.43,1.16,3.2,-1.1,-20.2,0.98,0.06,0.02,0.2
1697353405.3,0.03,-0.43,1.16,3.2,-1.1,-20.2,0.98,0.06,0.02,0.2
1697353405.31,0.03,-0.43,1.16,3.2,-1.1,-20.2,0.98,0.06,0.02,0.2
1697353405.32,0.03,-0.43,1.16,3.2,-1.1,-20.2,0.98,0.06,0.02,0.2
1697353405.33,0.03,-0.43,1.16,3.2,-1.1,-20.2,0.98,0.06,0.02,0.2
1697353405.34,0.03,-0.43,1.16,3.2,-1.1,-20.2,0.98,0.06,0.02,0.2
1697353405.35,0.03,-0.43,1.16,3.2,-1.1,-20.2,0.98,0.06,0.02,0.2
1697353405.36,0.03,-0.43,1.16,3.2,-1.1,-20.2,0.98,0.06,0.02,0.2
1697353405.37,0.03,-0.43,1.16,3.2,-1.1,-20.2,0.98,0.06,0.02,0.2
1697353405.38,0.03,-0.43,1.16,3.2,-1.1,-20.2,0.98,0.06,0.02,0.2
1697353405.39,0.03,-0.43,1.16,3.2,-1.1,-20.2,0.98,0.06,0.02,0.2
1697353405.4,0.03,-0.43,1.16,3.2,-1.1,-20.2,0.98,0.06,0.02,0.2
1697353405.41,0.03,-0.43,1.16,3.2,-1.1,-20.2,0.98,0.06,0.02,0.2
1697353405.42,0.25,-0.08,0.8,-2.2,-1.2,-14.6,0.98,0.06,0.02,0.18
1697353405.43,0.04,-0.05,1.15,-3.5,-0.3,-13.5,0.98,0.06,0.02,0.18
1697353405.44,0.16,-0.04,1.17,-0.3,1.1,-13.6,0.98,0.06,0.02,0.17
1697353405.45,-0.01,0.05,1.36,-0.1,1.6,-13,0.98,0.06,0.02,0.17
1697353405.46,-0.01,0.05,1.36,-0.1,1.6,-13,0.98,0.06,0.02,0.17
1697353405.47,0.19,-0.1,0.95,-3.3,1.5,-12.6,0.98,0.06,0.02,0.17
1697353405.48,0.15,-0.07,1.06,-2.5,1.3,-12.6,0.98,0.06,0.02,0.17
1697353405.49,0.13,-0.05,0.88,-2.2,1.4,-11.5,0.98,0.06,0.02,0.17
1697353405.5,0.33,-0.23,1.04,-0.3,0.6,-10.9,0.98,0.06,0.02,0.17
1697353405.51,0.33,-0.23,1.04,-0.3,0.6,-10.9,0.98,0.06,0.02,0.17
1697353405.52,0.21,-0.13,0.92,0.5,0,-9.2,0.98,0.06,0.02,0.17
1697353405.53,0.21,-0.13,0.92,3.1,0,-8,0.98,0.06,0.02,0.17
1697353405.54,0.09,-0.15,0.94,3.5,-0.1,-8.6,0.98,0.06,0.02,0.17
1697353405.55,0.18,-0.35,0.75,3.5,-0.1,-8.6,0.98,0.06,0.02,0.17
1697353405.56,0.14,-0.02,1.32,1.9,-0.6,-8.6,0.98,0.06,0.02,0.16
1697353405.57,0.15,-0.04,0.84,0.9,-0.8,-8.4,0.98,0.06,0.02,0.16
1697353405.58,0.07,-0.12,1,1.7,-1.2,-8.9,0.98,0.06,0.02,0.16
1697353405.59,0.22,0.08,1,2,-0.9,-8.6,0.98,0.06,0.02,0.16
1697353405.6,0.16,0.12,1.08,1.4,-0.1,-8.5,0.98,0.06,0.02,0.16
1697353405.61,0.1,-0.07,1.16,0,0.4,-7.1,0.98,0.06,0.02,0.16
1697353405.62,0.11,0.19,1.03,0.6,0.6,-6.1,0.98,0.06,0.02,0.16
1697353405.63,0.14,-0.12,1.15,3,0.6,-6.7,0.98,0.06,0.02,0.16
1697353405.64,0.13,0.19,1.13,0.9,0.3,-5.2,0.99,0.06,0.02,0.16
1697353405.65,0.11,0.11,1.05,0.3,0.4,-5.6,0.99,0.06,0.02,0.16
1697353405.66,0.07,0.07,0.92,-2,0.1,-4.3,0.99,0.06,0.02,0.16
1697353405.67,0.16,0.17,1.02,-1.3,0.1,-3.7,0.99,0.06,0.02,0.16
1697353405.68,0.13,0.06,0.85,-1.2,0.2,-3.1,0.99,0.06,0.02,0.16
1697353405.69,0.07,0.04,0.93,-1,0.2,-1.5,0.99,0.06,0.02,0.16
1697353405.7,0.18,-0.06,0.85,0.5,0.3,-1.3,0.99,0.06,0.02,0.16
1697353405.71,0.13,-0.05,0.97,0.4,0.8,-1.1,0.99,0.06,0.02,0.16
1697353405.72,0.27,0.05,1.06,-0.1,1.5,-0.6,0.99,0.06,0.02,0.16
1697353405.73,0.05,-0.24,0.93,1.4,1.9,-1.2,0.99,0.06,0.02,0.16
1697353405.74,0.17,-0.06,0.88,2.2,2.1,-1,0.99,0.06,0.02,0.16
1697353405.75,0.07,0.07,1.16,1.2,2.2,-1,0.99,0.06,0.02,0.16
1697353405.76,0.05,0.05,1.26,0.3,1.8,-1.3,0.99,0.06,0.02,0.16
1697353405.77,0.21,0.04,0.72,0,1.4,-0.6,0.99,0.06,0.02,0.16
1697353405.78,0.13,0.25,0.71,0.5,1.3,-0.4,0.99,0.06,0.02,0.16
1697353405.79,0.13,0.25,0.71,0.5,1.3,-0.4,0.99,0.06,0.02,0.16
1697353405.8,0.12,0.35,1.13,-2.6,1.2,1.9,0.99,0.06,0.02,0.16
1697353405.81,0.14,0.34,0.74,-2.6,1.2,1.9,0.99,0.06,0.02,0.16
1697353405.82,0.14,0.34,0.74,-2.6,1.2,1.9,0.99,0.06,0.02,0.16
1697353405.83,0.14,0.34,0.74,-2.6,1.2,1.9,0.99,0.06,0.02,0.16
1697353405.84,0.14,0.34,0.74,-2.6,1.2,1.9,0.99,0.06,0.02,0.16
1697353405.85,0.14,0.34,0.74,-2.6,1.2,1.9,0.99,0.06,0.02,0.16
1697353405.86,0.14,0.34,0.74,-2.6,1.2,1.9,0.99,0.06,0.02,0.16
1697353405.87,0.14,0.34,0.74,-2.6,1.2,1.9,0.99,0.06,0.02,0.16
1697353405.88,0.14,0.34,0.74,-2.6,1.2,1.9,0.99,0.06,0.02,0.16
1697353405.89,0.14,0.34,0.74,-2.6,1.2,1.9,0.99,0.06,0.02,0.16
1697353405.9,0.14,0.34,0.74,-2.6,1.2,1.9,0.99,0.06,0.02,0.16
1697353405.91,0.14,0.34,0.74,-2.6,1.2,1.9,0.99,0.06,0.02,0.16
1697353405.92,0.14,0.34,0.74,-2.6,1.2,1.9,0.99,0.06,0.02,0.16
1697353405.93,0.14,0.34,0.74,-2.6,1.2,1.9,0.99,0.06,0.02,0.16
1697353405.94,0.14,0.34,0.74,-2.6,1.2,1.9,0.99,0.06,0.02,0.16
1697353405.95,0.14,0.34,0.74,-2.6,1.2,1.9,0.99,0.06,0.02,0.16
1697353405.96,0.14,0.34,0.74,-2.6,1.2,1.9,0.99,0.06,0.02,0.16
1697353405.97,0.14,0.34,0.74,-2.6,1.2,1.9,0.99,0.06,0.02,0.16
1697353405.98,0.14,0.34,0.74,-2.6,1.2,1.9,0.99,0.06,0.02,0.16
1697353405.99,0.14,0.34,0.74,-2.6,1.2,1.9,0.99,0.06,0.02,0.16
1697353406,0.14,0.34,0.74,-2.6,1.2,1.9,0.99,0.06,0.02,0.16
1697353406.01,0.14,0.34,0.74,-2.6,1.2,1.9,0.99,0.06,0.02,0.16
1697353406.02,0.14,0.34,0.74,-2.6,1.2,1.9,0.99,0.06,0.02,0.16
1697353406.03,0.14,0.34,0.74,-2.6,1.2,1.9,0.99,0.06,0.02,0.16
1697353406.04,0.14,0.34,0.74,-2.6,1.2,1.9,0.99,0.06,0.02,0.16
1697353406.05,-0.07,0.33,0.83,-1.1,-1.4,14,0.98,0.06,0.01,0.18
1697353406.06,-0.03,0.47,1.14,-1.9,-0.9,14.5,0.98,0.06,0.01,0.18
1697353406.07,-0.18,0.45,1.19,-2.1,-0.2,15.8,0.98,0.06,0.01,0.18
1697353406.08,-0.16,0.44,1.18,-0.2,0,17,0.98,0.06,0.01,0.18
1697353406.09,0.1,0.39,0.74,0.7,0.1,18.2,0.98,0.06,0.01,0.18
1697353406.1,-0.12,0.42,1.42,0,0.2,19.3,0.98,0.06,0.01,0.18
1697353406.11,-0.01,0.44,0.78,-0.8,0.3,20.4,0.98,0.06,0.01,0.19
1697353406.12,-0.02,0.39,0.73,-1.5,0.1,21.2,0.98,0.06,0.01,0.19
1697353406.13,-0.24,0.47,1.59,-0.6,0.6,22.2,0.98,0.06,0.01,0.19
1697353406.14,0.01,0.24,0.64,0.7,0.5,23.1,0.98,0.06,0.01,0.19
1697353406.15,-0.04,0.26,0.67,2.2,0.6,23.3,0.98,0.06,0.01,0.19
1697353406.16,-0,0.21,0.89,2.3,1.3,23.2,0.98,0.06,0.01,0.19
1697353406.17,-0.1,0.26,0.91,1.5,1.5,22.7,0.98,0.06,0.01,0.2
1697353406.18,-0.14,0.27,1.09,0.8,1.8,22.2,0.98,0.06,0.01,0.2
1697353406.19,-0.12,0.27,1.22,0.2,2,21.7,0.98,0.06,0.01,0.2
1697353406.2,-0.22,0.29,1.16,0.1,1.7,21.4,0.98,0.06,0.01,0.2
1697353406.21,-0.2,0.29,1.03,0.2,1,21,0.98,0.06,0.01,0.2
1697353406.22,-0.21,0.3,1.15,0.4,-0.2,20.8,0.98,0.06,0.01,0.2
1697353406.23,-0.21,0.3,1.15,0.4,-0.2,20.8,0.98,0.06,0.01,0.21
1697353406.24,-0.17,0.38,1.05,1.5,-2.2,20.4,0.98,0.06,0.01,0.21
1697353406.25,0.05,0.21,0.88,1.5,-2.2,20.4,0.98,0.06,0.01,0.21
1697353406.26,0.03,0.38,1.24,0.5,-2.6,21,0.98,0.06,0.01,0.21
1697353406.27,-0.08,0.33,0.57,-0.7,-3.1,21,0.97,0.06,0.01,0.21
1697353406.28,-0.03,0.45,1,-2.1,-3.6,22.2,0.97,0.06,0.01,0.22
1697353406.29,-0.2,0.3,0.98,0,-2.7,23.4,0.97,0.06,0.01,0.22
1697353406.3,-0,0.36,0.89,1.1,-1.2,24,0.97,0.06,0.01,0.22
1697353406.31,-0.07,0.36,0.34,1.6,0.6,24.4,0.97,0.06,0.01,0.22
1697353406.32,-0.2,0.41,1.56,0.2,2.3,25.5,0.97,0.06,0.01,0.22
1697353406.33,-0.04,0.54,0.99,-0.3,3.3,26.2,0.97,0.06,0.01,0.23
1697353406.34,-0.09,0.58,0.84,0.4,4.1,27.2,0.97,0.06,0.01,0.23
1697353406.35,-0.01,0.55,0.8,2.5,3.7,28.6,0.97,0.06,0.01,0.23
1697353406.36,-0.06,0.55,1.32,5.1,2.7,30,0.97,0.06,0.01,0.23
1697353406.37,-0.13,0.35,1.09,6.1,1,30.7,0.97,0.07,0.01,0.24
1697353406.38,0,0.24,0.74,4.3,0,30.7,0.97,0.07,0.01,0.24
1697353406.39,-0.1,0.33,0.87,-4,-0.1,30.7,0.97,0.07,0.01,0.24
1697353406.4,0.02,0.58,0.72,-4,-0.1,30.7,0.97,0.07,0.01,0.24
1697353406.41,-0.32,0.58,1.34,-2.6,1.4,31.1,0.97,0.06,0.01,0.25
1697353406.42,-0.24,0.64,1.09,-0.3,2,31.6,0.97,0.06,0.01,0.25
1697353406.43,-0.24,0.64,1.09,-0.3,2,31.6,0.97,0.06,0.01,0.25
1697353406.44,-0.1,0.64,1.07,0,2.7,32.2,0.97,0.06,0.01,0.25
1697353406.45,-0.1,0.64,1.07,0,2.7,32.2,0.97,0.06,0.01,0.25
1697353406.46,-0.1,0.64,1.07,0,2.7,32.2,0.97,0.06,0.01,0.25
1697353406.47,-0.1,0.64,1.07,0,2.7,32.2,0.97,0.06,0.01,0.25
1697353406.48,-0.1,0.64,1.07,0,2.7,32.2,0.97,0.06,0.01,0.25
1697353406.49,-0.1,0.64,1.07,0,2.7,32.2,0.97,0.06,0.01,0.25
1697353406.5,-0.1,0.64,1.07,0,2.7,32.2,0.97,0.06,0.01,0.25
1697353406.51,-0.1,0.64,1.07,0,2.7,32.2,0.97,0.06,0.01,0.25
1697353406.52,-0.1,0.64,1.07,0,2.7,32.2,0.97,0.06,0.01,0.25
1697353406.53,-0.1,0.64,1.07,0,2.7,32.2,0.97,0.06,0.01,0.25
1697353406.54,-0.1,0.64,1.07,0,2.7,32.2,0.97,0.06,0.01,0.25
1697353406.55,-0.1,0.64,1.07,0,2.7,32.2,0.97,0.06,0.01,0.25
1697353406.56,-0.1,0.64,1.07,0,2.7,32.2,0.97,0.06,0.01,0.25
1697353406.57,-0.1,0.64,1.07,-0.8,-0.5,41.7,0.95,0.06,0.01,0.3
1697353406.58,-0.21,0.62,1.3,1.3,-1.3,42.5,0.95,0.07,0.01,0.3
1697353406.59,-0.09,0.53,0.95,2.9,-1.2,43.3,0.95,0.07,0.01,0.3
1697353406.6,-0.1,0.37,1.03,3.6,-0.2,43.5,0.95,0.07,0.01,0.31
1697353406.61,-0.13,0.35,0.96,2.8,0.9,43.2,0.95,0.07,0.01,0.31
1697353406.62,-0.17,0.46,1.04,-0.2,1.6,42.9,0.95,0.07,0.01,0.31
1697353406.63,-0.05,0.63,1.12,-2.2,1.7,42.2,0.95,0.07,0.01,0.32
1697353406.64,-0.13,0.63,1.02,-0.8,2,41.7,0.94,0.07,0.01,0.32
1697353406.65,-0.13,0.65,1.11,1.1,2,41.2,0.94,0.07,0.01,0.32
1697353406.66,-0.16,0.49,1.06,2.2,2,40.9,0.94,0.07,0.01,0.33
1697353406.67,0.03,0.58,0.99,1.8,2.6,40.4,0.94,0.07,0.01,0.33
1697353406.68,0,0.54,1.07,0.4,2.5,40.3,0.94,0.07,0.01,0.33
1697353406.69,-0.15,0.48,0.83,0.4,2,40.2,0.94,0.07,0.01,0.34
1697353406.7,-0.18,0.54,1.06,0.3,1.8,40,0.94,0.07,0.01,0.34
1697353406.71,-0.17,0.43,0.82,0.5,1.3,39.8,0.94,0.07,0.01,0.34
1697353406.72,-0.15,0.52,0.9,0,0.6,39.5,0.93,0.07,0.01,0.35
1697353406.73,-0.16,0.55,1.03,0,0.6,39.5,0.93,0.07,0.01,0.35
1697353406.74,-0.08,0.47,1.09,-1.5,-0.5,39.9,0.93,0.07,0.01,0.35
1697353406.75,-0.16,0.65,1.15,-1.5,-0.6,40.7,0.93,0.07,0.01,0.36
1697353406.76,-0.19,0.63,0.92,-1,-0.2,41.7,0.93,0.07,0.01,0.36
1697353406.77,-0.18,0.58,1.2,-0.2,0.3,42.6,0.93,0.07,0.01,0.36
1697353406.78,0.02,0.6,0.84,0.5,0.9,43.5,0.93,0.07,0.01,0.37
1697353406.79,-0.18,0.63,1.07,2.1,1.5,44.3,0.93,0.07,0.01,0.37
1697353406.8,-0.2,0.64,1.19,3.5,2.1,45,0.92,0.07,0.01,0.38
1697353406.81,-0.1,0.48,0.99,3.5,2.1,45,0.92,0.07,0.01,0.38
1697353406.82,-0.09,0.52,0.61,2.3,3,46.2,0.92,0.07,0.01,0.38
1697353406.83,-0.11,0.62,0.88,2.3,3,46.2,0.92,0.07,0.01,0.38
1697353406.84,-0.18,0.74,0.9,1.1,2.6,47.8,0.92,0.07,0.01,0.39
1697353406.85,-0.05,0.85,0.84,2.6,1.8,49.1,0.92,0.07,0.01,0.39
1697353406.86,-0.05,0.85,0.84,2.6,1.8,49.1,0.92,0.07,0.01,0.4
1697353406.87,-0.08,0.82,0.89,6.6,0.9,51.2,0.91,0.07,0.01,0.4
1697353406.88,-0.08,0.82,0.89,6.6,0.9,51.2,0.91,0.07,0.01,0.4
1697353406.89,-0.13,0.64,0.8,5.7,0.4,52.3,0.91,0.07,0.01,0.41
1697353406.9,-0.13,0.64,0.8,3.5,0.3,52.9,0.91,0.07,0.01,0.41
1697353406.91,-0.22,0.62,0.86,0.5,0.5,53.3,0.91,0.07,0.01,0.42
1697353406.92,-0.21,0.82,1.01,-1.1,1.1,53.7,0.9,0.07,0.01,0.42
1697353406.93,-0.21,0.82,0.92,-0.1,1.4,54.2,0.9,0.07,0.01,0.43
1697353406.94,-0.24,0.86,1.01,1.7,1.9,54.7,0.9,0.07,0.01,0.43
1697353406.95,-0.2,0.73,1.16,2.7,2.2,54.8,0.9,0.07,0.01,0.43
1697353406.96,-0.15,0.62,1.13,1.6,2.1,55,0.9,0.07,0.01,0.44
1697353406.97,-0.17,0.64,1.22,0.3,1.4,55,0.9,0.07,0.01,0.44
1697353406.98,-0.17,0.64,1.22,0.3,1.4,55,0.9,0.07,0.01,0.44
1697353406.99,-0.17,0.64,1.22,0.3,1.4,55,0.9,0.07,0.01,0.44
1697353407,-0.17,0.64,1.22,0.3,1.4,55,0.9,0.07,0.01,0.44
1697353407.01,-0.17,0.64,1.22,0.3,1.4,55,0.9,0.07,0.01,0.44
1697353407.02,-0.17,0.64,1.22,0.3,1.4,55,0.9,0.07,0.01,0.44
1697353407.03,-0.17,0.64,1.22,0.3,1.4,55,0.9,0.07,0.01,0.44
1697353407.04,-0.17,0.64,1.22,0.3,1.4,55,0.9,0.07,0.01,0.44
1697353407.05,-0.17,0.64,1.22,0.3,1.4,55,0.9,0.07,0.01,0.44
1697353407.06,-0.17,0.64,1.22,0.3,1.4,55,0.9,0.07,0.01,0.44
1697353407.07,-0.17,0.64,1.22,0.3,1.4,55,0.9,0.07,0.01,0.44
1697353407.08,-0.17,0.64,1.22,0.3,1.4,55,0.9,0.07,0.01,0.44
1697353407.09,-0.17,0.64,1.22,0.3,1.4,55,0.9,0.07,0.01,0.44
1697353407.1,-0.15,0.74,0.9,0.7,-0.5,56.8,0.86,0.07,0,0.5
1697353407.11,-0.13,0.67,1,1.7,-0.5,57.1,0.86,0.07,0,0.5
1697353407.12,-0.09,0.65,1.04,1.8,-0.4,57.3,0.86,0.07,0,0.51
1697353407.13,-0.1,0.62,0.94,2.1,-0.1,57.1,0.86,0.07,0,0.51
1697353407.14,-0.13,0.65,0.95,1.5,0.1,57.2,0.85,0.07,0,0.52
1697353407.15,-0.08,0.6,1.02,1,0.8,56.9,0.85,0.07,0,0.52
1697353407.16,-0.11,0.61,0.86,0,1.5,56.6,0.85,0.07,-0,0.52
1697353407.17,-0.16,0.68,0.88,-0.5,1.1,56.5,0.84,0.07,-0,0.53
1697353407.18,-0.07,0.72,1.33,-0.4,0.8,56.5,0.84,0.07,-0,0.53
1697353407.19,-0.03,0.61,0.93,0,0.1,56.1,0.84,0.07,-0,0.54
1697353407.2,0.24,0.72,0.68,0.6,-1.2,55.3,0.84,0.07,-0,0.54
1697353407.21,0.22,0.59,1.2,0.6,-1.2,55.3,0.84,0.07,-0,0.54
1697353407.22,0.15,0.61,0.95,-1.1,-3.3,54.6,0.83,0.07,-0,0.55
1697353407.23,0.1,0.7,0.99,-1.1,-3.3,54.6,0.83,0.07,-0,0.55
1697353407.24,0.1,0.7,0.99,-1.9,-3.6,54.5,0.83,0.07,-0,0.56
1697353407.25,0.04,0.76,0.92,-1.3,-2.1,54.9,0.83,0.07,-0,0.56
1697353407.26,-0.16,0.85,0.39,-1.3,-2.1,54.9,0.82,0.07,-0,0.56
1697353407.27,-0.21,0.7,0.76,-0.1,-0.8,56.9,0.82,0.07,-0.01,0.57
1697353407.28,-0.08,0.72,1.29,2.4,0,57,0.82,0.07,-0.01,0.57
1697353407.29,-0.2,0.59,0.9,1.2,1.5,58.5,0.81,0.07,-0.01,0.58
1697353407.3,-0.11,0.51,1.23,0.6,1.9,58.9,0.81,0.07,-0.01,0.58
1697353407.31,-0.04,0.71,1.12,-0.4,1.5,58.1,0.81,0.07,-0.01,0.59
1697353407.32,0.22,0.7,1.03,0,0.1,56.8,0.8,0.07,-0.01,0.59
1697353407.33,0.05,0.77,1.21,1.7,-0.4,55.8,0.8,0.07,-0.01,0.59
1697353407.34,0.21,0.75,0.7,2.8,-0.8,55.5,0.8,0.07,-0.01,0.6
1697353407.35,0.03,0.72,1.06,3.1,-0.2,55.4,0.8,0.07,-0.01,0.6
1697353407.36,-0.01,0.61,0.79,2.9,-0.1,55.5,0.8,0.07,-0.01,0.6
1697353407.37,-0.07,0.67,0.81,1.5,0.3,55.9,0.79,0.07,-0.01,0.61
1697353407.38,-0.12,0.69,1,-1,0.8,56.5,0.79,0.07,-0.01,0.61
1697353407.39,-0.09,0.78,0.88,-2.5,1.5,57.1,0.78,0.07,-0.01,0.62
1697353407.4,0,0.81,1.14,-2,2.1,57.6,0.78,0.07,-0.01,0.62
1697353407.41,0.04,0.77,1.3,0.1,2.3,58,0.78,0.07,-0.01,0.63
1697353407.42,0.24,0.69,0.79,2,2,58,0.77,0.07,-0.01,0.63
1697353407.43,0.07,0.55,1.11,1.9,1.5,57.5,0.77,0.07,-0.01,0.63
1697353407.44,0.17,0.62,0.89,0.4,1,56.9,0.77,0.07,-0.01,0.64
1697353407.45,0.22,0.72,1.02,0.4,1,56.9,0.77,0.07,-0.01,0.64
1697353407.46,0.07,0.75,0.83,-1.8,0.5,56.5,0.76,0.07,-0.01,0.64
1697353407.47,0.07,0.75,0.83,-2.8,-0.1,56.3,0.76,0.07,-0.01,0.65
1697353407.48,0.05,0.77,0.87,0.8,-0.2,57.1,0.76,0.07,-0.01,0.65
1697353407.49,0.05,0.77,0.87,2.3,-0.1,57.5,0.75,0.07,-0.01,0.65
1697353407.5,0.05,0.77,0.87,2.3,-0.1,57.5,0.75,0.07,-0.01,0.65
1697353407.51,0.05,0.77,0.87,2.3,-0.1,57.5,0.75,0.07,-0.01,0.65
1697353407.52,0.05,0.77,0.87,2.3,-0.1,57.5,0.75,0.07,-0.01,0.65
1697353407.53,0.05,0.77,0.87,2.3,-0.1,57.5,0.75,0.07,-0.01,0.65
1697353407.54,0.05,0.77,0.87,2.3,-0.1,57.5,0.75,0.07,-0.01,0.65
1697353407.55,0.05,0.77,0.87,2.3,-0.1,57.5,0.75,0.07,-0.01,0.65
1697353407.56,0.05,0.77,0.87,2.3,-0.1,57.5,0.75,0.07,-0.01,0.65
1697353407.57,0.05,0.77,0.87,2.3,-0.1,57.5,0.75,0.07,-0.01,0.65
1697353407.58,0.05,0.77,0.87,2.3,-0.1,57.5,0.75,0.07,-0.01,0.65
1697353407.59,0.05,0.77,0.87,2.3,-0.1,57.5,0.75,0.07,-0.01,0.65
1697353407.6,0.05,0.77,0.87,2.3,-0.1,57.5,0.75,0.07,-0.01,0.65
1697353407.61,0.05,0.77,0.87,2.3,-0.1,57.5,0.75,0.07,-0.01,0.65
1697353407.62,0.05,0.77,0.87,2.3,-0.1,57.5,0.75,0.07,-0.01,0.65
1697353407.63,0.1,0.77,1.2,1.3,2.1,59,0.7,0.07,-0.01,0.71
1697353407.64,0.22,0.67,0.69,1.1,1.6,59,0.7,0.07,-0.01,0.71
1697353407.65,0.1,0.72,1.11,0.7,1,58.8,0.7,0.07,-0.01,0.71
1697353407.66,0.22,0.62,0.86,-0.2,0.7,58.5,0.69,0.07,-0.02,0.72
1697353407.67,0.11,0.7,1.07,-1.2,0,58.1,0.69,0.07,-0.02,0.72
1697353407.68,0.15,0.83,1.03,-1.2,0,58.1,0.69,0.07,-0.02,0.72
1697353407.69,0.11,0.78,0.76,0,-0.3,57.7,0.68,0.07,-0.02,0.73
1697353407.7,0.07,0.76,0.83,1.1,-0.3,57.5,0.68,0.07,-0.02,0.73
1697353407.71,0.05,0.71,1.07,1.9,0.2,57,0.67,0.07,-0.02,0.74
1697353407.72,0.06,0.58,0.96,1.1,0.7,56.8,0.67,0.07,-0.02,0.74
1697353407.73,0.08,0.77,0.92,-0.4,0.9,56.4,0.67,0.07,-0.02,0.74
1697353407.74,0.08,0.83,1.02,-2.4,1.6,56.3,0.66,0.07,-0.02,0.75
1697353407.75,0.07,0.84,1.11,-2.1,2.2,56.5,0.66,0.07,-0.02,0.75
1697353407.76,0.05,0.88,1.01,-0.5,2.5,56.7,0.65,0.07,-0.02,0.75
1697353407.77,0.04,0.77,1.09,1.7,3,57,0.65,0.07,-0.02,0.76
1697353407.78,0.17,0.67,1.27,1.7,3,57,0.65,0.07,-0.02,0.76
1697353407.79,0.21,0.49,0.88,1.5,2.8,56.9,0.64,0.06,-0.02,0.76
1697353407.8,0.16,0.63,0.92,-1.6,2.2,56.4,0.64,0.06,-0.02,0.77
1697353407.81,0.15,0.68,1.08,-3.7,1.3,55.6,0.64,0.06,-0.02,0.77
1697353407.82,0.13,0.66,1.02,-3.4,0.9,54.6,0.64,0.06,-0.02,0.77
1697353407.83,0.18,0.58,1,-3.4,0.9,54.6,0.63,0.06,-0.02,0.77
1697353407.84,0.14,0.45,1.16,2,0,49.7,0.62,0.06,-0.02,0.78
1697353407.85,0.2,0.35,0.92,0,0,47.5,0.62,0.06,-0.02,0.78
1697353407.86,0.22,0.27,0.99,-2.3,0.2,45.2,0.62,0.06,-0.02,0.78
1697353407.87,0.23,0.36,0.63,-2.3,0.2,45.2,0.62,0.06,-0.02,0.78
1697353407.88,0.23,0.36,0.63,-4.1,0.2,43.3,0.62,0.06,-0.02,0.79
1697353407.89,0.16,0.54,1,-1.8,0.1,39.7,0.61,0.06,-0.02,0.79
1697353407.9,0.26,0.45,0.73,-1.8,0.1,39.7,0.61,0.06,-0.02,0.79
1697353407.91,0.2,0.37,0.97,-0.1,0.1,38.4,0.61,0.06,-0.02,0.79
1697353407.92,0.2,0.37,0.97,0.2,0,37,0.6,0.06,-0.02,0.79
1697353407.93,0.16,0.27,0.86,-0.7,0,35.4,0.6,0.06,-0.02,0.8
1697353407.94,0.15,0.3,0.93,-2.5,0,34.4,0.6,0.06,-0.02,0.8
1697353407.95,0.18,0.3,1.1,-3.1,0.3,33.5,0.6,0.06,-0.02,0.8
1697353407.96,0.26,0.3,0.97,-3,0.3,33,0.59,0.06,-0.02,0.8
1697353407.97,0.07,0.4,0.89,-2,0.3,32.3,0.59,0.06,-0.02,0.8
1697353407.98,0.12,0.38,1.26,-1.4,0.9,31.8,0.59,0.06,-0.02,0.81
1697353407.99,0.21,0.22,0.98,-1.3,1.1,30.7,0.59,0.06,-0.02,0.81
1697353408,0.11,0.23,0.94,-1.5,1,29.8,0.59,0.06,-0.02,0.81
1697353408.01,0.11,0.23,0.94,-1.5,1,29.8,0.59,0.06,-0.02,0.81
1697353408.02,0.11,0.23,0.94,-1.5,1,29.8,0.59,0.06,-0.02,0.81
1697353408.03,0.11,0.23,0.94,-1.5,1,29.8,0.59,0.06,-0.02,0.81
1697353408.04,0.11,0.23,0.94,-1.5,1,29.8,0.59,0.06,-0.02,0.81
1697353408.05,0.11,0.23,0.94,-1.5,1,29.8,0.59,0.06,-0.02,0.81
1697353408.06,0.11,0.23,0.94,-1.5,1,29.8,0.59,0.06,-0.02,0.81
1697353408.07,0.11,0.23,0.94,-1.5,1,29.8,0.59,0.06,-0.02,0.81
1697353408.08,0.11,0.23,0.94,-1.5,1,29.8,0.59,0.06,-0.02,0.81
1697353408.09,0.11,0.23,0.94,-1.5,1,29.8,0.59,0.06,-0.02,0.81
1697353408.1,0.11,0.23,0.94,-1.5,1,29.8,0.59,0.06,-0.02,0.81
1697353408.11,0.11,0.23,0.94,-1.5,1,29.8,0.59,0.06,-0.02,0.81
1697353408.12,0.11,0.23,0.94,-1.5,1,29.8,0.59,0.06,-0.02,0.81
1697353408.13,0.11,0.23,0.94,-1.5,1,29.8,0.59,0.06,-0.02,0.81
1697353408.14,0.2,0.11,1.22,-1.9,-1.1,20.4,0.56,0.06,-0.03,0.82
1697353408.15,0.14,0.11,0.85,-3.3,-0.2,19.3,0.56,0.06,-0.03,0.83
1697353408.16,0.06,0.22,1.24,-3.3,-0.2,19.3,0.56,0.06,-0.03,0.83
1697353408.17,0.2,0.26,1.05,-1.7,1.1,17.9,0.56,0.06,-0.03,0.83
1697353408.18,0.2,0.26,1.05,-1.7,1.1,17.9,0.56,0.06,-0.03,0.83
1697353408.19,0.15,0.11,1.11,0.1,1.8,16.5,0.55,0.06,-0.03,0.83
1697353408.2,0.21,-0.15,0.74,0.1,1.8,16.5,0.55,0.06,-0.03,0.83
1697353408.21,0.18,0.07,1,-3.8,0.5,12.5,0.55,0.06,-0.03,0.83
1697353408.22,0.09,0.02,1.15,-5.1,0.2,11.3,0.55,0.06,-0.03,0.83
1697353408.23,0.09,0.02,1.15,-5.1,0.2,11.3,0.55,0.06,-0.03,0.83
1697353408.24,0.19,0.02,1.14,-4.2,-0.4,9.7,0.55,0.06,-0.03,0.83
1697353408.25,0.12,-0.05,0.93,-2.6,-1.1,8.5,0.55,0.06,-0.03,0.83
1697353408.26,0.12,-0.05,0.93,-1.2,-1.4,6.7,0.55,0.06,-0.03,0.83
1697353408.27,0.1,-0.35,1.09,-1.8,-1.5,5.9,0.55,0.06,-0.03,0.83
1697353408.28,0.18,-0.32,0.87,-5.4,-1.2,1.9,0.55,0.06,-0.03,0.83
1697353408.29,0.19,-0.25,1.15,-6.6,-1.1,-0.3,0.55,0.06,-0.03,0.83
1697353408.3,0.13,-0.25,1.09,-5.9,-1.1,-2.4,0.55,0.06,-0.03,0.83
1697353408.31,0.16,-0.2,1.09,-4.4,-0.6,-4.3,0.55,0.06,-0.03,0.83
1697353408.32,0.17,-0.25,1.07,-3,-0.4,-5.7,0.55,0.06,-0.03,0.83
1697353408.33,0.25,-0.36,1.13,-2.7,-0.4,-7,0.55,0.06,-0.03,0.83
1697353408.34,0.23,-0.39,0.8,-3.5,-0.5,-8.4,0.55,0.06,-0.03,0.83
1697353408.35,0.15,-0.4,0.94,-4.5,-0.5,-9.4,0.55,0.06,-0.03,0.83
1697353408.36,0.18,-0.25,1.07,-4.5,-0.8,-10,0.55,0.06,-0.03,0.83
1697353408.37,0.17,-0.19,0.79,-3.2,-0.8,-10.3,0.55,0.06,-0.03,0.83
1697353408.38,0.24,-0.47,1.07,0,-0.6,-10.3,0.55,0.06,-0.03,0.83
1697353408.39,0.08,-0.49,1.27,1,-0.9,-10.9,0.55,0.06,-0.03,0.83
1697353408.4,0.17,-0.45,0.91,0,-1,-12.1,0.55,0.06,-0.03,0.83
1697353408.41,0.1,-0.65,1.06,-3.8,-1.3,-14.2,0.56,0.06,-0.03,0.83
1697353408.42,0.04,-0.35,0.97,-4.1,-1.2,-14.8,0.56,0.06,-0.03,0.83
1697353408.43,0.22,-0.36,1.07,-3.1,-0.2,-16.6,0.56,0.06,-0.04,0.83
1697353408.44,0.22,-0.37,0.67,-0.7,0.2,-17.7,0.56,0.06,-0.04,0.83
1697353408.45,0.15,-0.37,1.27,-0.1,0.3,-18.5,0.56,0.06,-0.04,0.83
1697353408.46,0.17,-0.55,0.69,-1,0.6,-20.1,0.56,0.06,-0.03,0.82
1697353408.47,0.11,-0.48,1.14,-1.9,0.8,-22.9,0.56,0.06,-0.03,0.82
1697353408.48,0.11,-0.48,1.14,-1.9,0.8,-22.9,0.56,0.06,-0.03,0.82
1697353408.49,0.17,-0.6,1.14,-1.5,1,-26.9,0.57,0.06,-0.04,0.82
1697353408.5,0.09,-0.27,0.87,-1.5,1,-26.9,0.57,0.06,-0.04,0.82
1697353408.51,0.17,-0.74,1.11,1.3,0.9,-29.6,0.57,0.06,-0.03,0.82
1697353408.52,0.17,-0.74,1.11,1.3,0.9,-29.6,0.57,0.06,-0.03,0.82
1697353408.53,0.11,-0.7,1.06,-1.2,0.5,-30.9,0.57,0.06,-0.03,0.82
1697353408.54,0.11,-0.7,1.06,-1.2,0.5,-30.9,0.57,0.06,-0.03,0.82
1697353408.55,0.11,-0.7,1.06,-1.2,0.5,-30.9,0.57,0.06,-0.03,0.82
1697353408.56,0.11,-0.7,1.06,-1.2,0.5,-30.9,0.57,0.06,-0.03,0.82
1697353408.57,0.11,-0.7,1.06,-1.2,0.5,-30.9,0.57,0.06,-0.03,0.82
1697353408.58,0.11,-0.7,1.06,-1.2,0.5,-30.9,0.57,0.06,-0.03,0.82
1697353408.59,0.11,-0.7,1.06,-1.2,0.5,-30.9,0.57,0.06,-0.03,0.82
1697353408.6,0.11,-0.7,1.06,-1.2,0.5,-30.9,0.57,0.06,-0.03,0.82
1697353408.61,0.11,-0.7,1.06,-1.2,0.5,-30.9,0.57,0.06,-0.03,0.82
1697353408.62,0.11,-0.7,1.06,-1.2,0.5,-30.9,0.57,0.06,-0.03,0.82
1697353408.63,0.11,-0.7,1.06,-1.2,0.5,-30.9,0.57,0.06,-0.03,0.82
1697353408.64,0.11,-0.7,1.06,-1.2,0.5,-30.9,0.57,0.06,-0.03,0.82
1697353408.65,0.11,-0.7,1.06,-1.2,0.5,-30.9,0.57,0.06,-0.03,0.82
1697353408.66,0.11,-0.7,1.06,-1.2,0.5,-30.9,0.57,0.06,-0.03,0.82
1697353408.67,-0.08,-0.76,0.86,-2.5,0,-45.1,0.61,0.06,-0.03,0.79
1697353408.68,0.11,-0.7,1.09,-1.2,0,-45.7,0.62,0.06,-0.03,0.79
1697353408.69,0.02,-0.68,1.04,0.9,0,-45.8,0.62,0.06,-0.03,0.78
1697353408.7,0.07,-0.8,1.11,1.8,-0.2,-45.8,0.62,0.06,-0.03,0.78
1697353408.71,0.06,-0.83,0.76,0.5,0.1,-45.9,0.62,0.06,-0.03,0.78
1697353408.72,0.07,-0.8,1.16,-1.1,0.9,-45.6,0.63,0.06,-0.03,0.78
1697353408.73,0.04,-0.77,0.83,-1.1,0.9,-45.6,0.63,0.06,-0.03,0.77
1697353408.74,0.04,-0.72,0.89,-2,2.5,-45.2,0.63,0.06,-0.03,0.77
1697353408.75,0.04,-0.72,0.89,-2,2.5,-45.2,0.64,0.06,-0.03,0.77
1697353408.76,-0.01,-0.98,0.96,0,2.8,-46,0.64,0.06,-0.03,0.77
1697353408.77,-0.01,-0.98,0.96,0,2.8,-46,0.64,0.06,-0.03,0.76
1697353408.78,0.07,-1.01,0.56,-2.8,1.4,-47.5,0.64,0.06,-0.03,0.76
1697353408.79,0.11,-0.71,1.11,-2.8,1.4,-47.5,0.65,0.06,-0.03,0.76
1697353408.8,0.09,-0.76,0.79,-0.6,0.7,-49,0.65,0.06,-0.03,0.76
1697353408.81,0.09,-0.76,0.79,-0.6,0.7,-49,0.65,0.06,-0.03,0.75
1697353408.82,-0.07,-0.86,1.1,1.4,-0.2,-49.1,0.66,0.06,-0.03,0.75
1697353408.83,0.06,-1.03,1.15,1.4,-0.2,-49.1,0.66,0.06,-0.03,0.75
1697353408.84,0.05,-0.87,0.98,0.2,-0.2,-49.3,0.66,0.06,-0.03,0.74
1697353408.85,0.12,-0.84,0.95,-4,-0.9,-49.4,0.67,0.06,-0.03,0.74
1697353408.86,0.03,-0.61,1.18,-4,-0.9,-49.4,0.67,0.06,-0.03,0.74
1697353408.87,0.04,-0.66,0.88,-0.9,-0.3,-49,0.67,0.06,-0.03,0.74
1697353408.88,-0.01,-0.76,1.05,-0.9,-0.3,-49,0.68,0.06,-0.03,0.73
1697353408.89,0.14,-0.9,0.95,1.4,0,-48.5,0.68,0.06,-0.03,0.73
1697353408.9,0.14,-0.9,0.95,2.1,0.6,-48.2,0.68,0.06,-0.03,0.73
1697353408.91,0.1,-0.98,1.08,0.5,1.3,-48.1,0.69,0.06,-0.03,0.72
1697353408.92,0.1,-0.98,1.08,-1.7,1.6,-48.7,0.69,0.06,-0.03,0.72
1697353408.93,-0.05,-0.71,1.05,-3.3,1.4,-49.1,0.69,0.06,-0.03,0.72
1697353408.94,0.16,-0.86,1.15,-2.4,1.8,-49.1,0.69,0.06,-0.03,0.72
1697353408.95,0.14,-0.73,0.71,-0.1,1.9,-49.7,0.7,0.06,-0.03,0.71
1697353408.96,0.02,-0.84,1.09,0,1.1,-49.6,0.7,0.06,-0.03,0.71
1697353408.97,0.07,-0.85,1.01,2.5,0.7,-50.5,0.71,0.06,-0.03,0.71
1697353408.98,0.06,-1.06,0.71,0.9,0.3,-50.5,0.71,0.06,-0.03,0.71
1697353408.99,0.07,-1.02,1.2,-1.6,0.2,-51.2,0.71,0.06,-0.03,0.7
1697353409,0.05,-0.86,0.74,-3,-0.7,-51.6,0.71,0.06,-0.03,0.7
1697353409.01,-0.03,-0.84,1.27,-2.6,-1.5,-51.6,0.72,0.06,-0.03,0.7
1697353409.02,0.15,-0.7,0.69,-0.6,-1.9,-51.6,0.72,0.06,-0.03,0.69
1697353409.03,0.08,-0.8,0.84,2.2,-1.6,-50.8,0.72,0.06,-0.03,0.69
1697353409.04,0.05,-1.11,1.05,3.9,-1.3,-50.2,0.73,0.06,-0.03,0.69
1697353409.05,-0.01,-1.02,1.22,-0.1,-0.1,-50,0.73,0.06,-0.03,0.68
1697353409.06,0.08,-1.08,0.77,-0.1,-0.1,-50,0.73,0.06,-0.03,0.68
1697353409.07,0.08,-1.08,0.77,-0.1,-0.1,-50,0.73,0.06,-0.03,0.68
1697353409.08,0.08,-1.08,0.77,-0.1,-0.1,-50,0.73,0.06,-0.03,0.68
1697353409.09,0.08,-1.08,0.77,-0.1,-0.1,-50,0.73,0.06,-0.03,0.68
1697353409.1,0.08,-1.08,0.77,-0.1,-0.1,-50,0.73,0.06,-0.03,0.68
1697353409.11,0.08,-1.08,0.77,-0.1,-0.1,-50,0.73,0.06,-0.03,0.68
1697353409.12,0.08,-1.08,0.77,-0.1,-0.1,-50,0.73,0.06,-0.03,0.68
1697353409.13,0.08,-1.08,0.77,-0.1,-0.1,-50,0.73,0.06,-0.03,0.68
1697353409.14,0.08,-1.08,0.77,-0.1,-0.1,-50,0.73,0.06,-0.03,0.68
1697353409.15,0.08,-1.08,0.77,-0.1,-0.1,-50,0.73,0.06,-0.03,0.68
1697353409.16,0.08,-1.08,0.77,-0.1,-0.1,-50,0.73,0.06,-0.03,0.68
1697353409.17,0.08,-1.08,0.77,-0.1,-0.1,-50,0.73,0.06,-0.03,0.68
1697353409.18,0.08,-1.08,0.77,-0.1,-0.1,-50,0.73,0.06,-0.03,0.68
1697353409.19,0.08,-1.08,0.77,-0.1,-0.1,-50,0.73,0.06,-0.03,0.68
1697353409.2,0.1,-0.91,1.4,-0.6,0.4,-51.1,0.77,0.06,-0.02,0.63
1697353409.21,0.07,-0.7,0.97,-1.6,1,-50.8,0.78,0.06,-0.02,0.63
1697353409.22,0.24,-0.5,0.88,-2.3,1.4,-49.8,0.78,0.06,-0.02,0.62
1697353409.23,0.24,-0.5,0.88,-0.5,1.1,-49.7,0.78,0.06,-0.02,0.62
1697353409.24,0.07,-0.86,1.05,2.1,0.4,-48.9,0.78,0.06,-0.02,0.62
1697353409.25,0.15,-0.63,0.94,2.7,0.2,-47.9,0.79,0.06,-0.02,0.61
1697353409.26,0.05,-0.62,0.98,2.5,0.8,-46.6,0.79,0.06,-0.02,0.61
1697353409.27,0.18,-0.49,1.05,2.1,0.9,-44.7,0.79,0.06,-0.02,0.61
1697353409.28,0.23,-0.48,0.66,2.4,1.3,-42.6,0.79,0.06,-0.02,0.6
1697353409.29,0.34,-0.47,0.74,3.3,1.3,-39.7,0.79,0.06,-0.02,0.6
1697353409.3,0.14,-0.35,0.99,2.2,1.3,-36.9,0.8,0.06,-0.02,0.6
1697353409.31,0.28,-0.29,0.87,1.8,1.4,-34.3,0.8,0.06,-0.02,0.6
1697353409.32,0.3,-0.21,0.86,1.7,1.1,-31.2,0.8,0.06,-0.02,0.6
1697353409.33,0.17,-0.19,1.13,2.7,0.5,-28.8,0.8,0.06,-0.02,0.59
1697353409.34,0.24,-0.31,1.02,4.5,-0.3,-26.4,0.8,0.06,-0.02,0.59
1697353409.35,0.26,-0.33,0.88,4.1,-0.7,-24,0.8,0.06,-0.01,0.59
1697353409.36,0.23,-0.16,1.24,2.3,-1.3,-22.4,0.81,0.06,-0.01,0.59
1697353409.37,0.28,-0.06,0.99,0.6,-1.2,-20.4,0.81,0.06,-0.01,0.59
1697353409.38,0.24,0.07,1.17,2.2,-0.5,-17.6,0.81,0.06,-0.01,0.59
1697353409.39,0.29,0.05,0.96,5.5,1.7,-13.1,0.81,0.06,-0.01,0.58
1697353409.4,0.16,-0.13,1.27,3.8,2.4,-11.2,0.81,0.06,-0.01,0.58
1697353409.41,0.3,0,0.81,2.7,3.2,-10,0.81,0.06,-0.01,0.58
1697353409.42,0.29,0.08,1,1.6,3.1,-8.6,0.81,0.06,-0.01,0.58
1697353409.43,0.28,0.11,1.14,2.3,2.5,-6.9,0.81,0.06,-0.01,0.58
1697353409.44,0.3,0.2,1.12,3.9,1.9,-6,0.81,0.06,-0.01,0.58
1697353409.45,0.22,0.03,1.02,2.4,1.1,-4.4,0.81,0.06,-0.01,0.58
1697353409.46,0.28,-0.01,1.01,0.3,0.8,-3.9,0.81,0.06,-0.01,0.58
1697353409.47,0.3,0.15,1.01,-0.7,0.2,-2.5,0.81,0.06,-0.01,0.58
1697353409.48,0.37,0.17,0.98,-0.7,0.2,-2.5,0.81,0.06,-0.01,0.58
1697353409.49,0.31,0.12,0.95,2.6,-0.7,-1.6,0.81,0.06,-0.01,0.58
1697353409.5,0.3,0.12,1.04,2.2,-0.3,-0.6,0.81,0.06,-0.01,0.58
1697353409.51,0.25,0.02,1.15,1.4,-0.1,-0.1,0.81,0.06,-0.01,0.58
1697353409.52,0.3,0.18,1.15,1.4,0,0.1,0.81,0.06,-0.01,0.58
1697353409.53,0.29,0.05,0.99,1.4,0,0.1,0.81,0.06,-0.01,0.58
1697353409.54,0.39,0.09,0.96,-1.9,0.3,1,0.81,0.06,-0.01,0.58
1697353409.55,0.36,0.18,0.87,-1.9,0.3,1,0.81,0.06,-0.01,0.58
1697353409.56,0.15,0.15,0.95,-1.9,0.3,1,0.81,0.06,-0.01,0.58
1697353409.57,0.15,0.15,0.95,-2.5,0.4,1.9,0.81,0.07,-0.01,0.58
1697353409.58,0.33,0.26,0.95,-1.8,0.8,2.8,0.81,0.07,-0.01,0.58
1697353409.59,0.37,0.31,1.07,0.4,1.2,3.6,0.81,0.07,-0.01,0.58
1697353409.6,0.37,0.31,1.07,0.4,1.2,3.6,0.81,0.07,-0.01,0.58
1697353409.61,0.37,0.31,1.07,0.4,1.2,3.6,0.81,0.07,-0.01,0.58
1697353409.62,0.37,0.31,1.07,0.4,1.2,3.6,0.81,0.07,-0.01,0.58
1697353409.63,0.37,0.31,1.07,0.4,1.2,3.6,0.81,0.07,-0.01,0.58
1697353409.64,0.37,0.31,1.07,0.4,1.2,3.6,0.81,0.07,-0.01,0.58
1697353409.65,0.37,0.31,1.07,0.4,1.2,3.6,0.81,0.07,-0.01,0.58
1697353409.66,0.37,0.31,1.07,0.4,1.2,3.6,0.81,0.07,-0.01,0.58
1697353409.67,0.37,0.31,1.07,0.4,1.2,3.6,0.81,0.07,-0.01,0.58
1697353409.68,0.37,0.31,1.07,0.4,1.2,3.6,0.81,0.07,-0.01,0.58
1697353409.69,0.37,0.31,1.07,0.4,1.2,3.6,0.81,0.07,-0.01,0.58
1697353409.7,0.37,0.31,1.07,0.4,1.2,3.6,0.81,0.07,-0.01,0.58
1697353409.71,0.37,0.31,1.07,0.4,1.2,3.6,0.81,0.07,-0.01,0.58
1697353409.72,0.29,0.38,1.01,1.9,0.9,11.4,0.81,0.07,-0.01,0.59
1697353409.73,0.3,0.36,0.86,2,0.9,11.5,0.8,0.07,-0.01,0.59
1697353409.74,0.32,0.35,1.01,2,1.1,12,0.8,0.07,-0.01,0.59
1697353409.75,0.37,0.3,1.05,1.3,0.5,12.4,0.8,0.07,-0.01,0.59
1697353409.76,0.35,0.32,1.01,0.6,0.1,12.4,0.8,0.07,-0.01,0.59
1697353409.77,0.29,0.38,0.99,0,-0.2,12.4,0.8,0.07,-0.01,0.59
1697353409.78,0.29,0.38,0.99,0,-0.2,12.4,0.8,0.07,-0.01,0.59
1697353409.79,0.37,0.3,0.97,1.5,-1.5,12.9,0.8,0.07,-0.01,0.6
1697353409.8,0.37,0.3,0.97,1.5,-1.5,12.9,0.8,0.07,-0.01,0.6
1697353409.81,0.32,0.19,1.02,0.3,-1.9,13.2,0.8,0.07,-0.01,0.6
1697353409.82,0.32,0.23,0.9,0.3,-1.9,13.2,0.8,0.07,-0.01,0.6
1697353409.83,0.32,0.23,0.9,-1.3,-0.8,13.1,0.8,0.07,-0.01,0.6
1697353409.84,0.23,0.21,1.12,-1.6,-0.1,12.7,0.8,0.07,-0.01,0.6
1697353409.85,0.22,0.38,0.95,-2.5,0.9,12.3,0.8,0.07,-0.01,0.6
1697353409.86,0.19,0.36,1.14,-1,1.9,12.3,0.8,0.07,-0.01,0.6
1697353409.87,0.33,0.33,0.85,1.2,1.9,12.3,0.8,0.07,-0.01,0.6
1697353409.88,0.37,0.29,0.84,2.4,2.1,12,0.8,0.07,-0.01,0.6
1697353409.89,0.39,0.24,0.92,3.2,1.8,11.9,0.79,0.07,-0.01,0.6
1697353409.9,0.37,0.18,1.05,2.6,1,11.7,0.79,0.07,-0.01,0.6
1697353409.91,0.37,0.23,0.89,-0.1,0,11.2,0.79,0.07,-0.01,0.61
1697353409.92,0.32,0.25,1.19,-1.5,-0.8,10.8,0.79,0.07,-0.01,0.61
1697353409.93,0.35,0.26,0.96,-1.3,-1.4,11,0.79,0.07,-0.01,0.61
1697353409.94,0.33,0.27,1.1,0.1,-1.5,11.3,0.79,0.07,-0.01,0.61
1697353409.95,0.39,0.08,0.99,0,-1,11.5,0.79,0.07,-0.01,0.61
1697353409.96,0.3,0.16,1.11,-1.3,-0.4,11.3,0.79,0.07,-0.02,0.61
1697353409.97,0.28,0.09,1.04,-3.2,0.4,11.4,0.79,0.07,-0.02,0.61
1697353409.98,0.26,0.21,1.01,-2,1.3,10.9,0.79,0.07,-0.02,0.61
1697353409.99,0.27,0.48,0.93,0,1.7,12.1,0.79,0.07,-0.02,0.61
1697353410,0.29,0.26,1.03,3.6,1.9,11.8,0.79,0.07,-0.02,0.61
1697353410.01,0.33,0.26,0.94,3.6,1.6,12.9,0.79,0.07,-0.01,0.61
1697353410.02,0.41,0.06,0.82,3.8,1.5,12.8,0.79,0.07,-0.01,0.61
1697353410.03,0.33,0.09,1.09,2.6,0.6,11.7,0.79,0.07,-0.01,0.61
1697353410.04,0.46,0.26,1.01,-1.2,-0.8,11.2,0.78,0.07,-0.02,0.62
1697353410.05,0.35,0.39,1.22,-1.7,-4,11,0.78,0.07,-0.02,0.62
1697353410.06,0.37,0.45,0.82,0.4,-5.1,11.4,0.78,0.07,-0.02,0.62
1697353410.07,0.37,0.45,0.82,0.4,-5.1,11.4,0.78,0.07,-0.02,0.62
1697353410.08,0.37,0.45,0.82,0.4,-5.1,11.4,0.78,0.07,-0.02,0.62
1697353410.09,0.37,0.45,0.82,0.4,-5.1,11.4,0.78,0.07,-0.02,0.62
1697353410.1,0.37,0.45,0.82,0.4,-5.1,11.4,0.78,0.07,-0.02,0.62
1697353410.11,0.37,0.45,0.82,0.4,-5.1,11.4,0.78,0.07,-0.02,0.62
1697353410.12,0.37,0.45,0.82,0.4,-5.1,11.4,0.78,0.07,-0.02,0.62
1697353410.13,0.37,0.45,0.82,0.4,-5.1,11.4,0.78,0.07,-0.02,0.62
1697353410.14,0.37,0.45,0.82,0.4,-5.1,11.4,0.78,0.07,-0.02,0.62
1697353410.15,0.37,0.45,0.82,0.4,-5.1,11.4,0.78,0.07,-0.02,0.62
1697353410.16,0.37,0.45,0.82,0.4,-5.1,11.4,0.78,0.07,-0.02,0.62
1697353410.17,0.37,0.45,0.82,0.4,-5.1,11.4,0.78,0.07,-0.02,0.62
1697353410.18,0.37,0.45,0.82,0.4,-5.1,11.4,0.78,0.07,-0.02,0.62
1697353410.19,0.37,0.45,0.82,0.4,-5.1,11.4,0.78,0.07,-0.02,0.62
1697353410.2,0.37,0.45,0.82,0.4,-5.1,11.4,0.78,0.07,-0.02,0.62
1697353410.21,0.37,0.45,0.82,0.7,-0.7,10.4,0.78,0.07,-0.02,0.63
1697353410.22,0.25,0.26,1.08,2.8,0,10.1,0.77,0.07,-0.02,0.63
1697353410.23,0.27,0.07,0.99,1.7,0.4,10.1,0.77,0.07,-0.02,0.63
1697353410.24,0.3,0.04,0.79,-2.7,0.4,9.2,0.77,0.07,-0.02,0.63
1697353410.25,0.29,0.14,1.07,-5.9,0.8,8.7,0.77,0.07,-0.02,0.63
1697353410.26,0.35,0.4,0.94,-6.2,1,8.7,0.77,0.07,-0.02,0.63
1697353410.27,0.28,0.49,1.01,-2.1,0.2,8.9,0.77,0.07,-0.02,0.63
1697353410.28,0.34,0.38,1.08,3.4,0,8.8,0.77,0.07,-0.02,0.63
1697353410.29,0.37,0.08,0.97,5.6,-0.7,9.2,0.77,0.07,-0.02,0.63
1697353410.3,0.4,-0.06,1.12,3.4,-1.8,9.7,0.77,0.07,-0.02,0.63
1697353410.31,0.28,0.04,1.17,0,-2.4,9.7,0.77,0.07,-0.02,0.63
1697353410.32,0.29,0.18,1.03,-1,-3.2,9.8,0.77,0.07,-0.02,0.64
1697353410.33,0.3,0.26,0.95,0.4,-3.7,10.3,0.77,0.07,-0.02,0.64
1697353410.34,0.25,0.28,0.86,1.5,-3.5,11.3,0.77,0.07,-0.02,0.64
1697353410.35,0.18,-0.01,0.87,1.9,-2.5,11.9,0.77,0.07,-0.02,0.64
1697353410.36,0.29,0.1,0.98,-0.3,-1.3,11.5,0.77,0.07,-0.02,0.64
1697353410.37,0.34,0.22,1.13,-2.9,-0.3,11.6,0.77,0.07,-0.02,0.64
1697353410.38,0.39,0.3,0.82,-1.9,-0.1,10.6,0.77,0.07,-0.02,0.64
1697353410.39,0.26,0.3,0.94,-1.6,0,10.5,0.77,0.07,-0.02,0.64
1697353410.4,0.28,0.34,0.87,-1.4,1,10.5,0.76,0.07,-0.02,0.64
1697353410.41,0.28,0.34,0.87,-1.4,1,10.5,0.76,0.07,-0.02,0.64
1697353410.42,0.29,0.38,1.04,-1,2.1,9.8,0.76,0.07,-0.02,0.64
1697353410.43,0.29,0.38,1.04,0.6,2.1,9.4,0.76,0.07,-0.02,0.64
1697353410.44,0.32,0.2,0.94,2.6,1.1,10.3,0.76,0.07,-0.02,0.64
1697353410.45,0.32,0.2,0.94,2.6,1.1,10.3,0.76,0.07,-0.02,0.64
1697353410.46,0.33,0.13,1.01,-2.7,0.1,10.9,0.76,0.07,-0.02,0.64
1697353410.47,0.33,0.13,1.01,-2.7,0.1,10.9,0.76,0.07,-0.02,0.65
1697353410.48,0.3,0.38,1.13,-5.1,-0.6,10.5,0.76,0.07,-0.02,0.65
1697353410.49,0.32,0.43,0.92,-5.1,-0.8,11.1,0.76,0.07,-0.02,0.65
1697353410.5,0.29,0.28,1.13,-0.6,-0.5,11.1,0.76,0.07,-0.02,0.65
1697353410.51,0.24,0.23,0.93,1.6,0,10.4,0.76,0.07,-0.02,0.65
1697353410.52,0.38,0.17,0.64,-0.1,0.2,9.8,0.76,0.07,-0.02,0.65
1697353410.53,0.4,0.19,0.98,-0.3,0,9,0.76,0.07,-0.02,0.65
1697353410.54,0.27,0.29,0.72,-0.9,-0.3,8.1,0.76,0.07,-0.02,0.65
1697353410.55,0.24,0.27,1.09,0.1,-0.5,8,0.76,0.07,-0.02,0.65
1697353410.56,0.23,0.19,1.06,3.2,-1,8.1,0.76,0.07,-0.02,0.65
1697353410.57,0.16,-0.06,0.94,2.8,-1.3,8.6,0.76,0.07,-0.02,0.65
1697353410.58,0.43,-0.01,1.05,-0.2,-0.9,8.4,0.75,0.07,-0.02,0.65
1697353410.59,0.45,0.19,0.87,-5.6,-0.5,8.8,0.75,0.07,-0.02,0.65
1697353410.6,0.24,0.41,1.04,-7.3,-0.2,9,0.75,0.07,-0.02,0.65
1697353410.61,0.35,0.2,0.81,-2.6,0,8.8,0.75,0.07,-0.02,0.65
1697353410.62,0.35,0.2,0.81,-2.6,0,8.8,0.75,0.07,-0.02,0.65
1697353410.63,0.35,0.2,0.81,-2.6,0,8.8,0.75,0.07,-0.02,0.65
1697353410.64,0.35,0.2,0.81,-2.6,0,8.8,0.75,0.07,-0.02,0.65
1697353410.65,0.35,0.2,0.81,-2.6,0,8.8,0.75,0.07,-0.02,0.65
1697353410.66,0.35,0.2,0.81,-2.6,0,8.8,0.75,0.07,-0.02,0.65
1697353410.67,0.35,0.2,0.81,-2.6,0,8.8,0.75,0.07,-0.02,0.65
1697353410.68,0.35,0.2,0.81,-2.6,0,8.8,0.75,0.07,-0.02,0.65
1697353410.69,0.35,0.2,0.81,-2.6,0,8.8,0.75,0.07,-0.02,0.65
1697353410.7,0.35,0.2,0.81,-2.6,0,8.8,0.75,0.07,-0.02,0.65
1697353410.71,0.35,0.2,0.81,-2.6,0,8.8,0.75,0.07,-0.02,0.65
1697353410.72,0.35,0.2,0.81,-2.6,0,8.8,0.75,0.07,-0.02,0.65
1697353410.73,0.35,0.2,0.81,-2.6,0,8.8,0.75,0.07,-0.02,0.65
1697353410.74,0.35,0.2,0.81,-2.6,0,8.8,0.75,0.07,-0.02,0.65
1697353410.75,0.2,0.05,0.95,-2.6,0,8.8,0.75,0.07,-0.02,0.66
1697353410.76,0.12,-0.01,1.22,3.9,3.2,5.7,0.75,0.07,-0.02,0.66
1697353410.77,0.21,-0.1,0.96,3.9,3.2,5.7,0.75,0.07,-0.02,0.66
1697353410.78,0.3,0.14,1.16,-2.6,1.9,4.6,0.75,0.07,-0.02,0.66
1697353410.79,0.43,0.24,1.2,-1.2,-0.1,5.2,0.75,0.07,-0.02,0.66
1697353410.8,0.26,0.14,1.16,2.3,-2.7,5.4,0.75,0.07,-0.02,0.66
1697353410.81,0.34,0.07,1.01,2.9,-4.5,5.7,0.75,0.07,-0.02,0.66
1697353410.82,0.36,-0.01,0.87,0,-5.5,5.7,0.75,0.07,-0.02,0.66
1697353410.83,0.25,0.17,1.14,-2,-5.2,5.1,0.74,0.07,-0.02,0.66
1697353410.84,0.3,0.12,0.82,-2.3,-4.2,4.9,0.74,0.07,-0.02,0.66
1697353410.85,0.3,0.12,0.82,-2.3,-4.2,4.9,0.74,0.07,-0.02,0.66
1697353410.86,0.13,0.14,1,0.3,-2,4.7,0.74,0.07,-0.02,0.66
1697353410.87,0.13,0.14,1,0.3,-2,4.7,0.74,0.07,-0.02,0.66
1697353410.88,0.37,0.15,0.9,0.5,-1.3,4.5,0.74,0.07,-0.02,0.66
1697353410.89,0.37,0.15,0.9,-0.1,-0.7,4,0.74,0.07,-0.02,0.67
1697353410.9,0.16,0.02,1.19,-0.5,-0.3,4.2,0.74,0.07,-0.02,0.67
1697353410.91,0.25,0.16,1.16,-0.1,0.4,4.4,0.74,0.07,-0.02,0.67
1697353410.92,0.3,0.06,0.96,0.2,1,5,0.74,0.07,-0.02,0.67
1697353410.93,0.3,0.06,0.96,0,1.5,4.7,0.74,0.07,-0.02,0.67
1697353410.94,0.25,0.27,1.18,0.9,1.9,4.8,0.74,0.07,-0.02,0.67
1697353410.95,0.26,0.11,1.08,3.2,1.9,5.5,0.74,0.07,-0.02,0.67
1697353410.96,0.14,-0.02,1.02,3.6,1.5,5.3,0.74,0.07,-0.02,0.67
1697353410.97,0.24,0.04,0.99,2,1.4,4.9,0.74,0.07,-0.02,0.67
1697353410.98,0.23,0.07,1.05,0,0.6,4.7,0.74,0.07,-0.02,0.67
1697353410.99,0.3,0.2,0.98,-1.1,-0.7,4.7,0.74,0.07,-0.02,0.67
1697353411,0.38,0.24,0.89,0.3,-2.7,5.1,0.74,0.07,-0.02,0.67
1697353411.01,0.42,0.24,1.01,1.2,-3.9,5.2,0.74,0.07,-0.02,0.67
1697353411.02,0.35,0.16,0.83,2.2,-5.5,5.5,0.74,0.07,-0.02,0.67
1697353411.03,0.27,0.04,0.95,2.5,-6.3,5.6,0.74,0.07,-0.02,0.67
1697353411.04,0.17,-0.04,1.08,0.2,-5.5,5.4,0.74,0.07,-0.02,0.67
1697353411.05,0.12,0.17,0.87,-1.1,-3.6,4.7,0.74,0.07,-0.02,0.67
1697353411.06,0.13,0.09,1.06,-0.7,-1,4.5,0.74,0.07,-0.02,0.67
1697353411.07,0.17,0.07,0.81,-0.3,1.4,4.2,0.74,0.07,-0.02,0.67
1697353411.08,0.14,0.17,0.98,0.1,3.6,3.9,0.74,0.07,-0.02,0.67
1697353411.09,0.29,-0.01,0.94,1.2,5,3.7,0.74,0.07,-0.02,0.67
1697353411.1,0.24,0.08,1.24,0.6,5.4,3.6,0.74,0.07,-0.02,0.67
1697353411.11,0.39,0.26,1.22,0,5.1,3.1,0.74,0.07,-0.02,0.67
1697353411.12,0.44,0.04,0.84,0.2,3.8,3.5,0.74,0.07,-0.02,0.67
1697353411.13,0.3,0.16,0.96,1.7,2,3.3,0.74,0.07,-0.02,0.67
1697353411.14,0.3,0.16,0.96,1.7,2,3.3,0.74,0.07,-0.02,0.67
1697353411.15,0.3,0.16,0.96,1.7,2,3.3,0.74,0.07,-0.02,0.67
1697353411.16,0.3,0.16,0.96,1.7,2,3.3,0.74,0.07,-0.02,0.67
1697353411.17,0.3,0.16,0.96,1.7,2,3.3,0.74,0.07,-0.02,0.67
1697353411.18,0.3,0.16,0.96,1.7,2,3.3,0.74,0.07,-0.02,0.67
1697353411.19,0.3,0.16,0.96,1.7,2,3.3,0.74,0.07,-0.02,0.67
1697353411.2,0.3,0.16,0.96,1.7,2,3.3,0.74,0.07,-0.02,0.67
1697353411.21,0.3,0.16,0.96,1.7,2,3.3,0.74,0.07,-0.02,0.67
1697353411.22,0.3,0.16,0.96,1.7,2,3.3,0.74,0.07,-0.02,0.67
1697353411.23,0.3,0.16,0.96,1.7,2,3.3,0.74,0.07,-0.02,0.67
1697353411.24,0.3,0.16,0.96,1.7,2,3.3,0.74,0.07,-0.02,0.67
1697353411.25,0.3,0.16,0.96,1.7,2,3.3,0.74,0.07,-0.02,0.67
1697353411.26,0.3,0.16,0.96,1.7,2,3.3,0.74,0.07,-0.02,0.67
1697353411.27,0.3,0.16,0.96,1.7,2,3.3,0.74,0.07,-0.02,0.67
1697353411.28,0.17,0.26,0.75,-2,1.6,5.5,0.73,0.07,-0.02,0.68
1697353411.29,0.17,0.32,1.06,-0.8,2.4,5.5,0.73,0.07,-0.02,0.68
1697353411.3,0.18,0.2,1.02,1.7,2.1,5.1,0.73,0.07,-0.02,0.68
1697353411.31,0.15,0.09,1.07,2.3,1,5.1,0.73,0.07,-0.02,0.68
1697353411.32,0.18,0.21,1.14,1.6,0.8,4.8,0.73,0.07,-0.02,0.68
1697353411.33,0.02,0.17,1.07,2,0,5.1,0.73,0.07,-0.02,0.68
1697353411.34,0.1,0.09,0.88,2.5,-0.3,5.5,0.73,0.07,-0.02,0.68
1697353411.35,-0.1,0.1,0.89,1.8,-0.4,6,0.73,0.07,-0.02,0.68
1697353411.36,-0.14,0.05,0.92,0.2,0.5,6.7,0.73,0.07,-0.02,0.68
1697353411.37,-0.13,0.16,1.12,-1.9,1.1,6.8,0.73,0.07,-0.02,0.68
1697353411.38,-0.12,0.36,0.77,-2.9,1.9,6.8,0.73,0.07,-0.02,0.68
1697353411.39,-0.12,0.25,1.08,-0.8,2.3,7.1,0.73,0.07,-0.02,0.68
1697353411.4,-0.04,0.27,1.04,1.1,2.6,7.2,0.73,0.07,-0.02,0.68
1697353411.41,-0.2,0.03,0.84,3.2,2.3,7.1,0.73,0.07,-0.02,0.68
1697353411.42,-0.39,0.07,0.9,3.2,2.3,7.1,0.73,0.07,-0.02,0.68
1697353411.43,-0.51,0.13,1.15,1.3,2.3,6.3,0.73,0.07,-0.02,0.68
1697353411.44,-0.59,0.24,0.86,0.3,2.5,5.9,0.73,0.07,-0.02,0.68
1697353411.45,-0.61,0.16,1.19,-0.2,3,5.4,0.73,0.07,-0.02,0.68
1697353411.46,-0.27,0.18,1.1,0.6,2.7,5.1,0.73,0.07,-0.02,0.68
1697353411.47,-0.15,0.19,1.23,1,1.8,4.7,0.73,0.07,-0.02,0.68
1697353411.48,-0.03,0.19,0.94,0.1,0.5,4.9,0.73,0.07,-0.02,0.68
1697353411.49,-0.11,0.11,0.95,-1.3,-0.2,5,0.73,0.07,-0.02,0.68
1697353411.5,-0.11,0.11,0.95,-1.3,-0.2,5,0.73,0.07,-0.02,0.68
1697353411.51,-0.13,0.13,1.17,-1.9,-0.9,5.8,0.73,0.07,-0.02,0.68
1697353411.52,-0.13,0.13,1.17,-1.9,-0.9,5.8,0.72,0.07,-0.02,0.69
1697353411.53,0.01,0.19,1.11,0.8,-3.3,6.7,0.72,0.07,-0.02,0.69
1697353411.54,-0.09,-0.01,0.95,1.6,-3.7,7.2,0.72,0.07,-0.02,0.69
1697353411.55,-0.09,0.04,0.85,1.6,-3.7,7.2,0.72,0.07,-0.02,0.69
1697353411.56,-0.2,-0.03,1.1,0.5,-1.8,6.3,0.72,0.07,-0.02,0.69
1697353411.57,-0.34,0.08,1.12,-2,0.5,5.9,0.72,0.07,-0.02,0.69
1697353411.58,-0.45,0.12,1.16,-1.7,2.9,5.1,0.72,0.07,-0.02,0.69
1697353411.59,-0.3,0.16,0.62,-0.9,5.2,4.6,0.72,0.07,-0.02,0.69
1697353411.6,-0.4,0.17,0.96,-0.9,5.2,4.6,0.72,0.07,-0.02,0.69
1697353411.61,-0.21,0.07,1.16,0.3,6.2,3.4,0.72,0.07,-0.02,0.69
1697353411.62,0.03,0.1,0.91,-1.2,5.9,3.1,0.72,0.07,-0.02,0.69
1697353411.63,0.03,0.1,0.91,-1.2,5.9,3.1,0.72,0.07,-0.02,0.69
1697353411.64,0.02,-0.03,1.12,0.1,1.5,2.7,0.72,0.07,-0.02,0.69
1697353411.65,0.02,0.02,0.7,0.1,1.5,2.7,0.72,0.07,-0.02,0.69
1697353411.66,-0.03,-0.1,0.98,-0.3,-1.4,2.2,0.72,0.07,-0.02,0.69
1697353411.67,-0.03,-0.1,0.98,-0.3,-1.4,2.2,0.72,0.07,-0.02,0.69
1697353411.68,-0.03,-0.1,0.98,-0.3,-1.4,2.2,0.72,0.07,-0.02,0.69
1697353411.69,-0.03,-0.1,0.98,-0.3,-1.4,2.2,0.72,0.07,-0.02,0.69
1697353411.7,-0.03,-0.1,0.98,-0.3,-1.4,2.2,0.72,0.07,-0.02,0.69
1697353411.71,-0.03,-0.1,0.98,-0.3,-1.4,2.2,0.72,0.07,-0.02,0.69
1697353411.72,-0.03,-0.1,0.98,-0.3,-1.4,2.2,0.72,0.07,-0.02,0.69
1697353411.73,-0.03,-0.1,0.98,-0.3,-1.4,2.2,0.72,0.07,-0.02,0.69
1697353411.74,-0.03,-0.1,0.98,-0.3,-1.4,2.2,0.72,0.07,-0.02,0.69
1697353411.75,-0.03,-0.1,0.98,-0.3,-1.4,2.2,0.72,0.07,-0.02,0.69
1697353411.76,-0.03,-0.1,0.98,-0.3,-1.4,2.2,0.72,0.07,-0.02,0.69
1697353411.77,-0.03,-0.1,0.98,-0.3,-1.4,2.2,0.72,0.07,-0.02,0.69
1697353411.78,-0.03,-0.1,0.98,-0.3,-1.4,2.2,0.72,0.07,-0.02,0.69
1697353411.79,-0.03,-0.1,0.98,-0.3,-1.4,2.2,0.72,0.07,-0.02,0.69
1697353411.8,-0.03,-0.1,0.98,-0.3,-1.4,2.2,0.72,0.07,-0.02,0.69
1697353411.81,-0.2,0.02,0.73,-3.4,0.7,-3.4,0.72,0.06,-0.02,0.69
1697353411.82,0.01,-0.03,0.7,-1,0.6,-3.2,0.72,0.06,-0.02,0.69
1697353411.83,-0.05,-0.19,1.07,2.7,0.4,-3,0.72,0.06,-0.02,0.69
1697353411.84,-0.12,-0.37,1.14,-0.4,-0.8,-3,0.72,0.06,-0.02,0.69
1697353411.85,-0.07,-0.17,1.38,-3.8,-1.8,-4.3,0.72,0.06,-0.02,0.69
1697353411.86,-0.12,0.04,1.23,-4.8,-3,-4.7,0.72,0.06,-0.02,0.69
1697353411.87,-0.11,0.13,0.8,-3,-3.4,-4,0.72,0.06,-0.02,0.69
1697353411.88,-0.29,-0.07,1.15,0.4,-2.4,-3.7,0.72,0.06,-0.02,0.69
1697353411.89,-0.07,-0.26,0.89,3.7,-0.9,-4.3,0.72,0.06,-0.02,0.69
1697353411.9,-0.12,-0.32,0.75,3.7,-0.9,-4.3,0.72,0.06,-0.02,0.69
1697353411.91,-0.24,-0.1,1.29,-0.5,2.7,-4.6,0.72,0.06,-0.02,0.69
1697353411.92,0.08,-0.22,0.35,-0.4,2.5,-5,0.72,0.06,-0.02,0.69
1697353411.93,-0.1,-0.11,1.19,-1.8,2.2,-4.9,0.73,0.06,-0.02,0.68
1697353411.94,0.12,-0.01,0.7,-1.3,2,-3.8,0.73,0.06,-0.02,0.68
1697353411.95,-0.14,0,1.29,0,1.4,-2.8,0.73,0.06,-0.02,0.68
1697353411.96,-0.1,-0.18,0.9,-1,1.1,-2.4,0.73,0.06,-0.02,0.68
1697353411.97,-0.2,-0.15,1.12,-3.4,0.5,-1.9,0.73,0.06,-0.02,0.68
1697353411.98,-0.04,0.2,1.31,-3.5,0.5,-1.6,0.73,0.06,-0.02,0.68
1697353411.99,-0.07,0.24,0.89,-2.4,-0.7,-0.3,0.73,0.06,-0.02,0.68
1697353412,-0.25,0.15,0.79,-2.4,-0.7,-0.3,0.73,0.06,-0.02,0.68
1697353412.01,-0.1,-0.03,0.86,4.1,-1.3,1.2,0.73,0.06,-0.02,0.68
1697353412.02,-0.07,-0.2,1.09,4.8,-0.8,1.4,0.73,0.06,-0.02,0.68
1697353412.03,-0.01,-0.16,1.11,3.2,-0.6,1.6,0.73,0.06,-0.02,0.68
1697353412.04,-0.01,-0.16,1.11,3.2,-0.6,1.6,0.73,0.06,-0.02,0.68
1697353412.05,-0.12,0.06,0.97,-1.9,-1.1,1.8,0.73,0.06,-0.02,0.68
1697353412.06,-0.08,0.45,0.85,-3,-1.2,3.5,0.73,0.06,-0.02,0.68
1697353412.07,-0.17,0.19,0.97,-3,-1.2,3.5,0.73,0.06,-0.02,0.68
1697353412.08,-0.17,0.19,0.97,2.4,-0.2,4.9,0.73,0.06,-0.02,0.69
1697353412.09,-0.19,0,1.12,4.6,0.1,5.6,0.72,0.06,-0.02,0.69
1697353412.1,-0.21,-0.07,1.18,2.1,0.6,5.8,0.72,0.06,-0.02,0.69
1697353412.11,-0.13,0.23,0.87,-1.8,1.5,5.4,0.72,0.06,-0.02,0.69
1697353412.12,-0.18,0.21,1.01,-2.9,1.3,5.5,0.72,0.06,-0.02,0.69
1697353412.13,-0.1,0.28,0.67,-1,1.3,5.6,0.72,0.06,-0.02,0.69
1697353412.14,-0.16,0.14,1.28,1.2,1.5,5.6,0.72,0.06,-0.02,0.69
1697353412.15,0.01,-0.05,0.76,2,1.3,5,0.72,0.06,-0.02,0.69
1697353412.16,-0.02,0.04,0.9,0.3,1,3.9,0.72,0.06,-0.02,0.69
1697353412.17,-0.07,0.2,0.98,-2,0.7,3.2,0.72,0.06,-0.02,0.69
1697353412.18,-0,0.23,1.07,-2.3,-0.7,2.6,0.72,0.06,-0.02,0.69
1697353412.19,-0.06,0.15,1.04,-1.3,-1.5,2.4,0.72,0.06,-0.02,0.69
1697353412.2,-0.06,0.15,1.04,-1.3,-1.5,2.4,0.72,0.06,-0.02,0.69
1697353412.21,-0.06,0.15,1.04,-1.3,-1.5,2.4,0.72,0.06,-0.02,0.69
1697353412.22,-0.06,0.15,1.04,-1.3,-1.5,2.4,0.72,0.06,-0.02,0.69
1697353412.23,-0.06,0.15,1.04,-1.3,-1.5,2.4,0.72,0.06,-0.02,0.69
1697353412.24,-0.06,0.15,1.04,-1.3,-1.5,2.4,0.72,0.06,-0.02,0.69
1697353412.25,-0.06,0.15,1.04,-1.3,-1.5,2.4,0.72,0.06,-0.02,0.69
1697353412.26,-0.06,0.15,1.04,-1.3,-1.5,2.4,0.72,0.06,-0.02,0.69
1697353412.27,-0.06,0.15,1.04,-1.3,-1.5,2.4,0.72,0.06,-0.02,0.69
1697353412.28,-0.06,0.15,1.04,-1.3,-1.5,2.4,0.72,0.06,-0.02,0.69
1697353412.29,-0.06,0.15,1.04,-1.3,-1.5,2.4,0.72,0.06,-0.02,0.69
1697353412.3,-0.06,0.15,1.04,-1.3,-1.5,2.4,0.72,0.06,-0.02,0.69
1697353412.31,-0.06,0.15,1.04,-1.3,-1.5,2.4,0.72,0.06,-0.02,0.69
1697353412.32,-0.06,0.15,1.04,-1.3,-1.5,2.4,0.72,0.06,-0.02,0.69
1697353412.33,-0.06,0.15,1.04,-1.3,-1.5,2.4,0.72,0.06,-0.02,0.69
1697353412.34,-0.09,0.03,0.71,4.9,-1.3,5.5,0.72,0.06,-0.02,0.69
1697353412.35,-0.13,-0.02,1.12,0,-0.8,5.3,0.72,0.06,-0.02,0.69
1697353412.36,-0.13,-0.02,1.12,-6.6,-0.5,4.6,0.72,0.06,-0.02,0.69
1697353412.37,-0.24,0.43,1.26,0.4,0.9,5.9,0.72,0.06,-0.02,0.69
1697353412.38,-0.24,0.43,1.26,0.4,0.9,5.9,0.72,0.06,-0.02,0.69
1697353412.39,-0.16,0.07,1.26,3.1,1.7,5,0.72,0.06,-0.02,0.69
1697353412.4,-0.16,0.07,1.26,3.1,1.7,5,0.72,0.06,-0.02,0.69
1697353412.41,-0.06,0.03,0.95,-0.6,1.5,4.6,0.72,0.06,-0.02,0.69
1697353412.42,-0.09,0.17,0.88,-1.3,1.5,4.5,0.72,0.06,-0.02,0.69
1697353412.43,-0.1,0.34,1.12,-2.2,1,4.6,0.72,0.06,-0.02,0.69
1697353412.44,-0.05,0.44,0.82,-0.6,1.1,5.3,0.72,0.06,-0.02,0.69
1697353412.45,-0.11,0.26,1.09,3.7,0.9,6.4,0.72,0.06,-0.02,0.7
1697353412.46,-0.11,0.09,0.94,5.3,0.7,7,0.72,0.06,-0.02,0.7
1697353412.47,-0.06,0.17,0.92,1.5,1.1,7.4,0.72,0.06,-0.02,0.7
1697353412.48,-0.02,0.28,0.68,-2.4,1.1,8.1,0.71,0.06,-0.02,0.7
1697353412.49,-0.19,0.52,0.93,-2.6,1.6,8.6,0.71,0.06,-0.02,0.7
1697353412.5,-0.11,0.59,0.86,-0.4,1.9,9.8,0.71,0.06,-0.02,0.7
1697353412.51,-0.1,0.36,0.96,4.4,2.1,11.9,0.71,0.06,-0.02,0.7
1697353412.52,-0.17,0.28,0.97,4.9,1.6,13.1,0.71,0.06,-0.02,0.7
1697353412.53,-0.12,0.19,0.83,2.5,1.3,14.4,0.71,0.06,-0.02,0.7
1697353412.54,-0.18,0.47,1.08,0.2,0.7,15.1,0.71,0.06,-0.02,0.7
1697353412.55,-0.13,0.59,0.88,0,0.2,15.9,0.71,0.06,-0.02,0.7
1697353412.56,-0.11,0.35,1.05,2.9,0,16.7,0.71,0.06,-0.02,0.7
1697353412.57,0.04,0.3,0.96,4.3,0.2,17,0.71,0.06,-0.02,0.7
1697353412.58,-0.09,0.34,1.01,2.8,0.2,16.9,0.71,0.06,-0.02,0.71
1697353412.59,-0.1,0.26,0.93,1,0.1,16.3,0.7,0.06,-0.02,0.71
1697353412.6,-0.05,0.52,0.77,-1.3,0,15.7,0.7,0.06,-0.02,0.71
1697353412.61,-0.13,0.52,0.87,-1.3,0,15.7,0.7,0.06,-0.02,0.71
1697353412.62,-0.11,0.64,1.14,-0.7,-0.1,15.8,0.7,0.06,-0.02,0.71
1697353412.63,-0.26,0.67,1.23,2.6,0,16.3,0.7,0.06,-0.02,0.71
1697353412.64,-0.18,0.41,0.9,3.4,0.5,16.3,0.7,0.06,-0.02,0.71
1697353412.65,-0.3,0.52,1.09,2.7,1,16.8,0.7,0.06,-0.02,0.71
1697353412.66,-0.14,0.3,0.8,1.1,1.3,16.8,0.7,0.06,-0.02,0.71
1697353412.67,-0.14,0.38,1.01,-0.8,1.3,17.2,0.7,0.06,-0.02,0.71
1697353412.68,-0.18,0.51,1.02,-0.8,1.3,17.2,0.7,0.06,-0.02,0.72
1697353412.69,-0.24,0.55,1.03,-2,1.7,18.3,0.69,0.06,-0.02,0.72
1697353412.7,-0.24,0.55,1.03,-2,1.7,18.3,0.69,0.06,-0.02,0.72
1697353412.71,-0.17,0.45,0.82,1,1.6,18.7,0.69,0.06,-0.02,0.72
1697353412.72,-0.17,0.45,0.82,1,1.6,18.7,0.69,0.06,-0.02,0.72
1697353412.73,-0.17,0.45,0.82,1,1.6,18.7,0.69,0.06,-0.02,0.72
1697353412.74,-0.17,0.45,0.82,1,1.6,18.7,0.69,0.06,-0.02,0.72
1697353412.75,-0.17,0.45,0.82,1,1.6,18.7,0.69,0.06,-0.02,0.72
1697353412.76,-0.17,0.45,0.82,1,1.6,18.7,0.69,0.06,-0.02,0.72
1697353412.77,-0.17,0.45,0.82,1,1.6,18.7,0.69,0.06,-0.02,0.72
1697353412.78,-0.17,0.45,0.82,1,1.6,18.7,0.69,0.06,-0.02,0.72
1697353412.79,-0.17,0.45,0.82,1,1.6,18.7,0.69,0.06,-0.02,0.72
1697353412.8,-0.17,0.45,0.82,1,1.6,18.7,0.69,0.06,-0.02,0.72
1697353412.81,-0.17,0.45,0.82,1,1.6,18.7,0.69,0.06,-0.02,0.72
1697353412.82,-0.17,0.45,0.82,1,1.6,18.7,0.69,0.06,-0.02,0.72
1697353412.83,-0.17,0.45,0.82,1,1.6,18.7,0.69,0.06,-0.02,0.72
1697353412.84,-0.17,0.45,0.82,1,1.6,18.7,0.69,0.06,-0.02,0.72
1697353412.85,-0.17,0.45,0.82,1,1.6,18.7,0.69,0.06,-0.02,0.72
1697353412.86,-0.35,0.58,1.05,0.4,-0.2,22.2,0.67,0.06,-0.02,0.74
1697353412.87,-0.24,0.41,0.93,-0.3,-0.2,22.3,0.67,0.06,-0.02,0.74
1697353412.88,-0.33,0.61,0.98,-1.2,-0.1,22.1,0.67,0.06,-0.02,0.74
1697353412.89,-0.39,0.7,1.01,-1.6,0.6,22.3,0.67,0.06,-0.02,0.74
1697353412.9,-0.37,0.48,1.07,0,0.9,22.2,0.67,0.06,-0.02,0.74
1697353412.91,-0.28,0.5,1.22,1.8,1.1,21.6,0.66,0.06,-0.02,0.74
1697353412.92,-0.33,0.44,1.02,1.6,1.3,21.3,0.66,0.06,-0.02,0.75
1697353412.93,-0.35,0.38,1.17,-0.6,1.1,21.1,0.66,0.06,-0.02,0.75
1697353412.94,-0.29,0.6,1.12,-2.6,0.3,20.5,0.66,0.06,-0.02,0.75
1697353412.95,-0.17,0.52,0.99,-3.1,-0.6,20.6,0.66,0.06,-0.02,0.75
1697353412.96,-0.31,0.56,0.78,-2.7,-0.7,20.6,0.66,0.06,-0.02,0.75
1697353412.97,-0.14,0.56,0.74,-2.7,-0.4,20.8,0.66,0.06,-0.02,0.75
1697353412.98,-0.17,0.41,1.13,-0.9,-0.2,20.9,0.65,0.06,-0.02,0.75
1697353412.99,-0.18,0.43,0.99,-1,-0.9,21.1,0.65,0.06,-0.02,0.75
1697353413,-0.31,0.35,1.2,-2.3,-1.6,21,0.65,0.06,-0.02,0.76
1697353413.01,-0.28,0.62,1.15,-1.3,-2.4,21.3,0.65,0.06,-0.02,0.76
1697353413.02,-0.26,0.47,0.93,1,-3.1,21.9,0.65,0.06,-0.02,0.76
1697353413.03,-0.16,0.36,1.07,3.6,-2.6,21.7,0.65,0.06,-0.02,0.76
1697353413.04,-0.33,0.32,1.12,3.3,-2,21.3,0.65,0.06,-0.02,0.76
1697353413.05,-0.33,0.32,1.12,3.3,-2,21.3,0.65,0.06,-0.02,0.76
1697353413.06,-0.01,0.52,0.74,-3.1,-0.8,20.6,0.64,0.06,-0.02,0.76
1697353413.07,-0.09,0.65,0.67,-3.1,-0.8,20.6,0.64,0.06,-0.02,0.76
1697353413.08,-0.16,0.5,0.98,-1,-1.5,20.6,0.64,0.06,-0.02,0.77
1697353413.09,-0.1,0.53,0.85,-0.3,-1.3,20.5,0.64,0.06,-0.02,0.77
1697353413.1,-0.1,0.53,0.85,-0.3,-1.3,20.5,0.64,0.06,-0.02,0.77
1697353413.11,-0.21,0.35,1.06,-0.5,-1.3,20.5,0.64,0.06,-0.02,0.77
1697353413.12,-0.21,0.35,1.06,-1.8,-1.2,20.1,0.64,0.06,-0.02,0.77
1697353413.13,-0.18,0.5,1.23,-1.8,-0.6,19.9,0.63,0.06,-0.02,0.77
1697353413.14,-0.18,0.5,1.23,-0.2,-0.6,19.7,0.63,0.06,-0.02,0.77
1697353413.15,-0.22,0.62,1.18,2.7,-0.4,19.7,0.63,0.06,-0.02,0.77
1697353413.16,-0.07,0.33,1.02,3.4,-0.4,19.4,0.63,0.06,-0.02,0.77
1697353413.17,-0.15,0.28,1.24,2,-0.4,18.5,0.63,0.06,-0.02,0.77
1697353413.18,-0.04,0.19,1.11,0.4,-0.4,17.5,0.63,0.06,-0.02,0.78
1697353413.19,0.07,0.06,0.92,-2.9,-2.1,16.7,0.63,0.06,-0.02,0.78
1697353413.2,-0.11,0.3,1.16,-6.5,-3.6,16.9,0.63,0.06,-0.02,0.78
1697353413.21,0.03,0.59,0.68,-7.1,-4,17.4,0.62,0.06,-0.02,0.78
1697353413.22,0.03,0.74,0.87,-6.7,-4.4,17.5,0.62,0.06,-0.03,0.78
1697353413.23,-0.32,0.64,1.3,-1.7,-5.4,17.8,0.62,0.06,-0.03,0.78
1697353413.24,-0.36,0.3,1.41,5.4,-3.1,18.1,0.62,0.06,-0.03,0.78
1697353413.25,-0.08,0.13,0.59,4.4,-1.2,17.1,0.62,0.06,-0.03,0.78
1697353413.26,-0.08,0.13,0.59,4.4,-1.2,17.1,0.62,0.06,-0.03,0.78
1697353413.27,-0.08,0.13,0.59,4.4,-1.2,17.1,0.62,0.06,-0.03,0.78
1697353413.28,-0.08,0.13,0.59,4.4,-1.2,17.1,0.62,0.06,-0.03,0.78
1697353413.29,-0.08,0.13,0.59,4.4,-1.2,17.1,0.62,0.06,-0.03,0.78
1697353413.3,-0.08,0.13,0.59,4.4,-1.2,17.1,0.62,0.06,-0.03,0.78
1697353413.31,-0.08,0.13,0.59,4.4,-1.2,17.1,0.62,0.06,-0.03,0.78
1697353413.32,-0.08,0.13,0.59,4.4,-1.2,17.1,0.62,0.06,-0.03,0.78
1697353413.33,-0.08,0.13,0.59,4.4,-1.2,17.1,0.62,0.06,-0.03,0.78
1697353413.34,-0.08,0.13,0.59,4.4,-1.2,17.1,0.62,0.06,-0.03,0.78
1697353413.35,-0.08,0.13,0.59,4.4,-1.2,17.1,0.62,0.06,-0.03,0.78
1697353413.36,-0.08,0.13,0.59,4.4,-1.2,17.1,0.62,0.06,-0.03,0.78
1697353413.37,-0.08,0.13,0.59,4.4,-1.2,17.1,0.62,0.06,-0.03,0.78
1697353413.38,-0.08,0.13,0.59,4.4,-1.2,17.1,0.62,0.06,-0.03,0.78
1697353413.39,0.04,-0.2,0.77,1.6,-0.2,9.1,0.6,0.06,-0.03,0.79
1697353413.4,0,-0.17,0.76,-5.6,-0.5,5.9,0.6,0.06,-0.03,0.79
1697353413.41,0,-0.17,0.76,-7.8,-0.3,3.1,0.6,0.06,-0.03,0.79
1697353413.42,-0.12,-0.13,0.96,-1.7,-1.5,-2.5,0.6,0.06,-0.03,0.79
1697353413.43,-0.12,-0.13,0.96,-1.7,-1.5,-2.5,0.6,0.06,-0.03,0.79
1697353413.44,-0.22,-0.55,1.37,-4.8,-0.8,-8.8,0.6,0.06,-0.03,0.79
1697353413.45,-0.22,-0.55,1.37,-4.8,-0.8,-8.8,0.61,0.06,-0.03,0.79
1697353413.46,-0.17,-0.44,1.32,-7.4,0,-11.7,0.61,0.06,-0.03,0.79
1697353413.47,-0.28,-0.48,1.13,-8.9,0.6,-13.8,0.61,0.06,-0.03,0.79
1697353413.48,-0.28,-0.48,1.13,-7.8,1.2,-16,0.61,0.06,-0.03,0.79
1697353413.49,-0.13,-0.36,0.87,-5.4,1.1,-16.8,0.61,0.06,-0.03,0.79
1697353413.5,-0.07,-0.35,0.76,-2.8,0.9,-17,0.61,0.06,-0.03,0.79
1697353413.51,-0.1,-0.59,0.88,-0.6,0.5,-17.7,0.61,0.06,-0.03,0.79
1697353413.52,-0.07,-0.73,1.08,-1.5,0,-18.3,0.61,0.06,-0.03,0.79
1697353413.53,-0.03,-0.62,0.71,-2.1,0,-18.6,0.61,0.06,-0.03,0.79
1697353413.54,-0.05,-0.61,1.04,-2,-0.1,-18.8,0.62,0.06,-0.03,0.78
1697353413.55,-0.1,-0.68,0.98,-1.4,-1.1,-19.9,0.62,0.06,-0.03,0.78
1697353413.56,-0.14,-0.56,1.24,-1.4,-1.1,-19.9,0.62,0.06,-0.03,0.78
1697353413.57,-0.23,-0.6,1.2,-1.8,-1.7,-20,0.62,0.06,-0.03,0.78
1697353413.58,-0.21,-0.56,1.22,-1.7,-1.6,-20.1,0.62,0.06,-0.03,0.78
1697353413.59,-0.12,-0.4,1.07,-1.3,-1.4,-19.3,0.62,0.06,-0.03,0.78
1697353413.6,-0.22,-0.48,1.05,-0.7,-0.5,-18.8,0.62,0.06,-0.03,0.78
1697353413.61,-0.22,-0.44,0.81,0.2,0.6,-18.8,0.63,0.06,-0.03,0.78
1697353413.62,-0.22,-0.3,1.12,0.2,0.6,-18.8,0.63,0.06,-0.03,0.78
1697353413.63,-0.17,-0.47,1,1.8,1.9,-18.3,0.63,0.06,-0.03,0.78
1697353413.64,-0.03,-0.53,1.16,3.6,2.8,-18.5,0.63,0.06,-0.03,0.77
1697353413.65,-0.06,-0.54,0.86,0.4,3.5,-19.7,0.63,0.06,-0.03,0.77
1697353413.66,-0.12,-0.43,1.1,-2.3,3.3,-19.8,0.63,0.06,-0.03,0.77
1697353413.67,0.01,-0.38,1.14,-3.4,2.9,-19.9,0.63,0.06,-0.03,0.77
1697353413.68,-0.03,-0.31,1.07,-2,1.7,-20.2,0.64,0.06,-0.03,0.77
1697353413.69,-0.12,-0.38,1.18,-0.4,0.6,-20.3,0.64,0.06,-0.03,0.77
1697353413.7,-0.24,-0.53,1.13,-1.5,0.2,-20.4,0.64,0.06,-0.03,0.77
1697353413.71,-0.24,-0.6,1.14,-4.1,0.5,-21.1,0.64,0.06,-0.03,0.77
1697353413.72,-0.23,-0.63,0.98,-4.1,1.2,-22.2,0.64,0.06,-0.03,0.76
1697353413.73,-0.1,-0.67,0.53,-3.8,1.5,-23.3,0.64,0.06,-0.03,0.76
1697353413.74,-0.13,-0.78,0.86,-3.1,1.5,-25.3,0.64,0.06,-0.03,0.76
1697353413.75,-0.13,-0.78,0.86,-3.1,1.5,-25.3,0.64,0.06,-0.03,0.76
1697353413.76,-0.15,-0.73,1.02,-2.4,1.2,-27.5,0.65,0.06,-0.03,0.76
1697353413.77,-0.15,-0.73,1.02,-1,1.2,-29.3,0.65,0.06,-0.03,0.76
1697353413.78,-0.01,-1.11,0.7,-2.3,0.5,-32.9,0.65,0.06,-0.03,0.76
1697353413.79,-0.01,-1.11,0.7,-2.3,0.5,-32.9,0.65,0.06,-0.03,0.76
1697353413.8,-0.01,-1.11,0.7,-2.3,0.5,-32.9,0.65,0.06,-0.03,0.76
1697353413.81,-0.01,-1.11,0.7,-2.3,0.5,-32.9,0.65,0.06,-0.03,0.76
1697353413.82,-0.01,-1.11,0.7,-2.3,0.5,-32.9,0.65,0.06,-0.03,0.76
1697353413.83,-0.01,-1.11,0.7,-2.3,0.5,-32.9,0.65,0.06,-0.03,0.76
1697353413.84,-0.01,-1.11,0.7,-2.3,0.5,-32.9,0.65,0.06,-0.03,0.76
1697353413.85,-0.01,-1.11,0.7,-2.3,0.5,-32.9,0.65,0.06,-0.03,0.76
1697353413.86,-0.01,-1.11,0.7,-2.3,0.5,-32.9,0.65,0.06,-0.03,0.76
1697353413.87,-0.01,-1.11,0.7,-2.3,0.5,-32.9,0.65,0.06,-0.03,0.76
1697353413.88,-0.01,-1.11,0.7,-2.3,0.5,-32.9,0.65,0.06,-0.03,0.76
1697353413.89,-0.01,-1.11,0.7,-2.3,0.5,-32.9,0.65,0.06,-0.03,0.76
1697353413.9,-0.01,-1.11,0.7,-2.3,0.5,-32.9,0.65,0.06,-0.03,0.76
1697353413.91,-0.01,-1.11,0.7,-2.3,0.5,-32.9,0.65,0.06,-0.03,0.76
1697353413.92,-0.14,-1.34,1.11,-2.3,0.5,-32.9,0.65,0.06,-0.03,0.76
1697353413.93,-0.06,-1.3,0.75,-1.3,-0.1,-57.8,0.7,0.05,-0.03,0.71
1697353413.94,-0.06,-1.3,0.75,-1.3,-0.1,-57.8,0.7,0.05,-0.03,0.71
1697353413.95,-0.32,-1.34,1.11,-3.8,0,-59.2,0.7,0.05,-0.03,0.71
1697353413.96,-0.29,-1.28,0.96,-3.8,0,-59.2,0.71,0.05,-0.03,0.7
1697353413.97,-0.32,-1.27,1.32,-3,-0.3,-59.3,0.71,0.05,-0.03,0.7
1697353413.98,-0.32,-1.27,1.32,-3,-0.3,-59.3,0.71,0.05,-0.03,0.7
1697353413.99,-0.28,-1.09,1.05,0,0.7,-58.4,0.72,0.05,-0.03,0.69
1697353414,-0.3,-1.27,0.99,1.4,1.6,-58.1,0.72,0.05,-0.03,0.69
1697353414.01,-0.25,-1.35,0.8,1.7,2.4,-58,0.73,0.05,-0.03,0.69
1697353414.02,-0.23,-1.18,0.99,1.6,2.6,-57.8,0.73,0.05,-0.03,0.68
1697353414.03,-0.28,-1.32,1.07,0.2,3.8,-56.3,0.73,0.05,-0.03,0.68
1697353414.04,-0.2,-1.31,1.15,0.1,4.1,-57.2,0.74,0.05,-0.03,0.67
1697353414.05,-0.28,-1.22,1.14,-1,3.8,-57,0.74,0.05,-0.02,0.67
1697353414.06,-0.28,-1.22,1.14,-1.7,3.3,-56.8,0.74,0.05,-0.02,0.67
1697353414.07,-0.13,-1.24,0.67,-1.5,3.2,-56.9,0.75,0.05,-0.02,0.66
1697353414.08,-0.21,-1.27,0.98,0.1,4.5,-56.6,0.75,0.05,-0.02,0.66
1697353414.09,-0.3,-1.27,1,0.1,4.5,-56.6,0.75,0.05,-0.02,0.66
1697353414.1,-0.3,-1.27,1,-0.8,4.9,-56.6,0.76,0.05,-0.02,0.65
1697353414.11,-0.29,-1.17,1.01,-3.3,4.8,-56.7,0.76,0.05,-0.02,0.65
1697353414.12,-0.17,-1.14,0.91,-2.5,4.4,-57.1,0.76,0.05,-0.02,0.64
1697353414.13,-0.19,-1.09,1.02,-0.1,3.8,-57.2,0.77,0.05,-0.02,0.64
1697353414.14,-0.19,-1.09,1.02,2.2,3.4,-57.5,0.77,0.05,-0.02,0.64
1697353414.15,-0.1,-1.12,0.8,4.2,2.4,-57.5,0.77,0.05,-0.02,0.63
1697353414.16,-0.16,-1.2,0.82,6,1.7,-58.7,0.78,0.05,-0.02,0.63
1697353414.17,-0.23,-1.37,0.98,6.2,1.5,-59,0.78,0.05,-0.02,0.62
1697353414.18,-0.05,-1.33,0.73,-0.4,0.5,-59.3,0.78,0.05,-0.02,0.62
1697353414.19,-0.21,-1.16,0.83,-0.4,0.5,-59.3,0.78,0.05,-0.02,0.62
1697353414.2,-0.27,-1.16,1.15,-1.2,2,-58.7,0.79,0.05,-0.02,0.61
1697353414.21,-0.18,-1.02,0.67,0.1,2.1,-58.1,0.79,0.05,-0.02,0.61
1697353414.22,-0.17,-1.03,0.76,1.6,2.2,-56.6,0.8,0.05,-0.02,0.6
1697353414.23,-0.33,-1.18,1.29,2.3,2.8,-55.5,0.8,0.05,-0.02,0.6
1697353414.24,-0.18,-1.29,1.13,2.2,2.9,-55.4,0.8,0.05,-0.01,0.59
1697353414.25,-0.18,-1.22,1.18,-0.5,1.9,-54.7,0.8,0.05,-0.01,0.59
1697353414.26,-0.11,-0.92,1.03,-0.3,1.6,-53.1,0.81,0.05,-0.01,0.59
1697353414.27,-0.19,-0.69,1.04,3.3,1.3,-50.5,0.81,0.05,-0.01,0.58
1697353414.28,-0.07,-0.57,0.86,8.5,1.1,-47.7,0.81,0.05,-0.01,0.58
1697353414.29,-0.13,-0.63,1.08,11.8,0.8,-44.2,0.82,0.05,-0.01,0.58
1697353414.3,-0.03,-0.72,0.73,10.7,0.6,-40.3,0.82,0.05,-0.01,0.58
1697353414.31,-0.03,-0.72,0.73,10.7,0.6,-40.3,0.82,0.05,-0.01,0.58
1697353414.32,-0.03,-0.72,0.73,10.7,0.6,-40.3,0.82,0.05,-0.01,0.58
1697353414.33,-0.03,-0.72,0.73,10.7,0.6,-40.3,0.82,0.05,-0.01,0.58
1697353414.34,-0.03,-0.72,0.73,10.7,0.6,-40.3,0.82,0.05,-0.01,0.58
1697353414.35,-0.03,-0.72,0.73,10.7,0.6,-40.3,0.82,0.05,-0.01,0.58
1697353414.36,-0.03,-0.72,0.73,10.7,0.6,-40.3,0.82,0.05,-0.01,0.58
1697353414.37,-0.03,-0.72,0.73,10.7,0.6,-40.3,0.82,0.05,-0.01,0.58
1697353414.38,-0.03,-0.72,0.73,10.7,0.6,-40.3,0.82,0.05,-0.01,0.58
1697353414.39,-0.03,-0.72,0.73,10.7,0.6,-40.3,0.82,0.05,-0.01,0.58
1697353414.4,-0.03,-0.72,0.73,10.7,0.6,-40.3,0.82,0.05,-0.01,0.58
1697353414.41,-0.03,-0.72,0.73,10.7,0.6,-40.3,0.82,0.05,-0.01,0.58
1697353414.42,-0.03,-0.72,0.73,10.7,0.6,-40.3,0.82,0.05,-0.01,0.58
1697353414.43,-0.16,0.42,1.66,13.6,-2,6.8,0.83,0.06,-0.01,0.56
1697353414.44,-0.16,0.42,1.66,13.6,-2,6.8,0.83,0.06,-0.01,0.56
1697353414.45,0.13,0.44,0.55,12.1,-2.4,9.8,0.83,0.06,-0.01,0.56
1697353414.46,-0.22,0.46,1.23,8,-2.6,12.1,0.83,0.06,-0.01,0.56
1697353414.47,-0.09,0.64,1.08,3.4,-2.9,13.8,0.82,0.06,-0.01,0.56
1697353414.48,-0.04,0.8,0.69,1.3,-2.4,16.1,0.82,0.06,-0.01,0.56
1697353414.49,-0.17,0.67,1.04,2.3,-1.5,17.8,0.82,0.07,-0.01,0.56
1697353414.5,-0.17,0.67,1.04,3.7,-0.8,19.3,0.82,0.07,-0.01,0.57
1697353414.51,-0.28,0.7,1.28,3.9,0.1,20.7,0.82,0.07,-0.01,0.57
1697353414.52,-0.07,0.87,0.76,2.6,1.3,21.9,0.82,0.07,-0.01,0.57
1697353414.53,-0.11,1.1,1.08,3.6,1.8,25.9,0.82,0.07,-0.01,0.57
1697353414.54,-0.21,0.87,1.2,6.2,0.7,29.1,0.82,0.07,-0.01,0.57
1697353414.55,-0.2,0.94,1.04,6.3,0.2,30.8,0.81,0.07,-0.01,0.58
1697353414.56,-0.12,0.87,1.05,4.6,0.3,33.6,0.81,0.07,-0,0.58
1697353414.57,-0.18,0.83,1.03,2.8,0.2,35.4,0.81,0.07,-0,0.58
1697353414.58,-0.13,0.86,1.08,1.1,-0.4,36.7,0.81,0.07,-0.01,0.58
1697353414.59,-0.15,0.97,0.96,-0.5,-0.6,38.6,0.81,0.07,-0.01,0.59
1697353414.6,0,1.04,0.67,-0.5,-0.9,40.4,0.81,0.07,-0.01,0.59
1697353414.61,-0.23,1.03,1.26,-0.5,-0.9,40.4,0.81,0.07,-0.01,0.59
1697353414.62,-0.08,0.89,0.7,1.3,-1.6,43.4,0.8,0.07,-0.01,0.59
1697353414.63,-0.22,1.04,0.95,0.6,-1.6,44.2,0.8,0.07,-0.01,0.59
1697353414.64,-0.19,1,0.92,-0.4,-1.4,45.5,0.8,0.07,-0.01,0.6
1697353414.65,-0.24,1.15,0.91,-0.6,-1.2,47,0.8,0.07,-0.01,0.6
1697353414.66,-0.27,1.08,1.05,0,-0.7,48.4,0.79,0.07,-0.01,0.6
1697353414.67,-0.25,1.23,0.89,3,0,49.4,0.79,0.07,-0.01,0.61
1697353414.68,-0.31,1.12,1.29,4.9,1,50.6,0.79,0.07,-0.01,0.61
1697353414.69,-0.2,1.02,0.95,5.2,2.3,51.3,0.79,0.07,-0.01,0.61
1697353414.7,-0.32,0.93,1.35,5.1,3,51.3,0.78,0.07,-0.01,0.62
1697353414.71,-0.24,0.91,1.12,3.1,3.8,51.4,0.78,0.07,-0.01,0.62
1697353414.72,-0.17,1.06,1,-0.3,4.2,51.3,0.78,0.07,-0.01,0.63
1697353414.73,-0.12,1.14,1.07,-2.5,4.3,51.6,0.77,0.07,-0.01,0.63
1697353414.74,-0.14,1.23,0.96,-1,3.8,52,0.77,0.07,-0.01,0.63
1697353414.75,0.07,1.11,0.63,2.8,3,52.9,0.77,0.07,-0.01,0.64
1697353414.76,-0.12,1,0.88,3.8,2.3,53.3,0.77,0.07,-0.01,0.64
1697353414.77,-0.1,0.81,1.05,2.2,1,53.3,0.76,0.07,-0.01,0.64
1697353414.78,-0.07,0.95,0.79,-0.7,-0.1,53.2,0.76,0.07,-0.01,0.65
1697353414.79,-0.12,1.01,0.73,-2.7,-1.1,53.6,0.76,0.07,-0.01,0.65
1697353414.8,-0.15,1.17,0.81,-2.7,-1.1,53.6,0.75,0.07,-0.01,0.65
1697353414.81,-0.08,1.14,0.71,-0.1,-1.4,53.6,0.75,0.07,-0.01,0.66
1697353414.82,-0.08,1.14,0.71,-0.1,-1.4,53.6,0.75,0.07,-0.01,0.66
1697353414.83,-0.08,1.14,0.71,-0.1,-1.4,53.6,0.75,0.07,-0.01,0.66
1697353414.84,-0.08,1.14,0.71,-0.1,-1.4,53.6,0.75,0.07,-0.01,0.66
1697353414.85,-0.08,1.14,0.71,-0.1,-1.4,53.6,0.75,0.07,-0.01,0.66
1697353414.86,-0.08,1.14,0.71,-0.1,-1.4,53.6,0.75,0.07,-0.01,0.66
1697353414.87,-0.08,1.14,0.71,-0.1,-1.4,53.6,0.75,0.07,-0.01,0.66
1697353414.88,-0.08,1.14,0.71,-0.1,-1.4,53.6,0.75,0.07,-0.01,0.66
1697353414.89,-0.08,1.14,0.71,-0.1,-1.4,53.6,0.75,0.07,-0.01,0.66
1697353414.9,-0.08,1.14,0.71,-0.1,-1.4,53.6,0.75,0.07,-0.01,0.66
1697353414.91,-0.08,1.14,0.71,-0.1,-1.4,53.6,0.75,0.07,-0.01,0.66
1697353414.92,-0.08,1.14,0.71,-0.1,-1.4,53.6,0.75,0.07,-0.01,0.66
1697353414.93,-0.08,1.14,0.71,-0.1,-1.4,53.6,0.75,0.07,-0.01,0.66
1697353414.94,-0.08,1.14,0.71,-0.1,-1.4,53.6,0.75,0.07,-0.01,0.66
1697353414.95,-0.08,1.14,0.71,-0.1,-1.4,53.6,0.75,0.07,-0.01,0.66
1697353414.96,-0.11,1,0.84,-2.3,0,54.3,0.7,0.07,-0.01,0.71
1697353414.97,-0.14,1.05,0.91,-1.8,-1,54.2,0.7,0.07,-0.01,0.71
1697353414.98,-0.27,1.16,1.08,-1,-1.1,54,0.7,0.06,-0.01,0.71
1697353414.99,-0.12,0.94,0.78,0,-1,53.8,0.69,0.06,-0.01,0.72
1697353415,-0.23,1.03,1.08,0.9,-0.5,52.9,0.69,0.06,-0.01,0.72
1697353415.01,-0.26,1.07,1.25,0.9,0,52.6,0.69,0.06,-0.01,0.72
1697353415.02,-0.26,1.07,1.25,0.9,0,52.6,0.68,0.06,-0.01,0.73
1697353415.03,-0.28,0.94,1.08,2.3,0.9,52,0.68,0.06,-0.01,0.73
1697353415.04,-0.18,0.9,1.12,2.1,1.8,51.5,0.67,0.06,-0.01,0.74
1697353415.05,-0.09,0.99,0.98,2.1,1.8,51.5,0.67,0.06,-0.01,0.74
1697353415.06,-0.23,1.12,1.05,-2.3,2.3,50.7,0.67,0.06,-0.02,0.74
1697353415.07,-0.23,1.12,1.05,-2.3,2.3,50.7,0.67,0.06,-0.02,0.74
1697353415.08,-0.17,1.07,1.09,-0.6,1.4,51.4,0.66,0.06,-0.02,0.75
1697353415.09,-0.23,1.1,1.1,-0.6,1.4,51.4,0.66,0.06,-0.02,0.75
1697353415.1,-0.09,0.93,1.01,2.3,0.2,52.6,0.65,0.06,-0.02,0.75
1697353415.11,-0.17,0.8,0.69,0.8,-0.6,52.4,0.65,0.06,-0.02,0.76
1697353415.12,-0.27,0.9,1.1,0.8,-0.6,52.4,0.65,0.06,-0.02,0.76
1697353415.13,-0.17,0.93,0.84,-3.6,0.6,51,0.65,0.06,-0.02,0.76
1697353415.14,-0.24,1.13,0.95,-3.6,0.6,51,0.64,0.06,-0.02,0.76
1697353415.15,-0.24,1.13,0.95,-1.5,1.9,50.4,0.64,0.06,-0.02,0.77
1697353415.16,-0.2,1.07,0.95,1.2,2.9,50.4,0.63,0.06,-0.02,0.77
1697353415.17,-0.16,0.96,0.82,3.9,3.2,49.9,0.63,0.06,-0.02,0.77
1697353415.18,-0.28,0.91,1.36,3.4,3.1,49.9,0.63,0.06,-0.02,0.78
1697353415.19,-0.13,0.81,0.81,0,3.1,50.2,0.62,0.06,-0.02,0.78
1697353415.2,-0.07,0.94,0.94,-2.9,2.6,50.3,0.62,0.06,-0.02,0.78
1697353415.21,-0.07,0.94,0.94,-2.6,2.6,50.4,0.62,0.06,-0.02,0.78
1697353415.22,-0.14,0.94,0.83,-1,2.8,50.6,0.61,0.06,-0.02,0.79
1697353415.23,-0.26,0.89,1.41,-0.4,2.4,49.9,0.61,0.06,-0.02,0.79
1697353415.24,-0.07,0.73,0.83,-2.3,2,48.9,0.61,0.06,-0.02,0.79
1697353415.25,-0.12,0.61,0.97,-3.8,1.4,47,0.6,0.06,-0.02,0.8
1697353415.26,-0.08,0.54,0.95,-4.3,1.3,46.5,0.6,0.06,-0.02,0.8
1697353415.27,-0.04,0.4,0.8,-5.5,0.3,44,0.6,0.06,-0.02,0.8
1697353415.28,-0.15,0.52,1.08,-5.9,-0.2,41,0.6,0.06,-0.02,0.8
1697353415.29,-0.04,0.42,0.95,-4.8,-0.4,37.4,0.59,0.06,-0.02,0.8
1697353415.3,0.14,0.28,0.45,-2.7,-0.3,33.5,0.59,0.06,-0.02,0.81
1697353415.31,-0.21,0.08,1.33,-1.9,0,29.8,0.59,0.06,-0.02,0.81
1697353415.32,-0.09,-0.22,0.65,-2.2,0,25.4,0.59,0.06,-0.02,0.81
1697353415.33,0.02,-0.52,0.87,-9.2,0.7,14.7,0.58,0.06,-0.02,0.81
1697353415.34,-0.11,-0.58,1.03,-12.2,0.4,7.7,0.58,0.06,-0.02,0.81
1697353415.35,-0.14,-0.53,0.79,-12.5,0.7,1.2,0.58,0.06,-0.02,0.81
1697353415.36,-0.14,-0.53,0.79,-12.5,0.7,1.2,0.58,0.06,-0.02,0.81
1697353415.37,-0.14,-0.53,0.79,-12.5,0.7,1.2,0.58,0.06,-0.02,0.81
1697353415.38,-0.14,-0.53,0.79,-12.5,0.7,1.2,0.58,0.06,-0.02,0.81
1697353415.39,-0.14,-0.53,0.79,-12.5,0.7,1.2,0.58,0.06,-0.02,0.81
1697353415.4,-0.14,-0.53,0.79,-12.5,0.7,1.2,0.58,0.06,-0.02,0.81
1697353415.41,-0.14,-0.53,0.79,-12.5,0.7,1.2,0.58,0.06,-0.02,0.81
1697353415.42,-0.14,-0.53,0.79,-12.5,0.7,1.2,0.58,0.06,-0.02,0.81
1697353415.43,-0.14,-0.53,0.79,-12.5,0.7,1.2,0.58,0.06,-0.02,0.81
1697353415.44,-0.14,-0.53,0.79,-12.5,0.7,1.2,0.58,0.06,-0.02,0.81
1697353415.45,-0.14,-0.53,0.79,-12.5,0.7,1.2,0.58,0.06,-0.02,0.81
1697353415.46,-0.14,-0.53,0.79,-12.5,0.7,1.2,0.58,0.06,-0.02,0.81
1697353415.47,-0.14,-0.53,0.79,-12.5,0.7,1.2,0.58,0.06,-0.02,0.81
1697353415.48,0.03,-1.05,0.89,-1.8,-2.1,-39.8,0.61,0.05,-0.03,0.79
1697353415.49,0.03,-1.05,0.89,-6.1,-4.3,-41.2,0.61,0.05,-0.03,0.79
1697353415.5,-0.19,-0.9,1.08,-12.1,-5.8,-41.2,0.61,0.05,-0.04,0.79
1697353415.51,-0.38,-0.16,0.8,-11.5,-5.2,-40.9,0.62,0.05,-0.04,0.78
1697353415.52,-0.1,-0.41,0.4,-1.1,-2.3,-39.9,0.62,0.05,-0.04,0.78
1697353415.53,-0.34,-0.74,0.57,11.7,1,-40,0.62,0.05,-0.03,0.78
1697353415.54,-0.46,-1.37,1.14,18,3.2,-39.1,0.63,0.05,-0.03,0.78
1697353415.55,-0.55,-1.84,1.94,11.1,4.8,-40.1,0.63,0.05,-0.03,0.78
1697353415.56,-0.12,-1.78,1.39,-14,5,-49.6,0.63,0.05,-0.03,0.77
1697353415.57,-0.07,-1.39,0.32,-20.3,3.7,-53,0.64,0.05,-0.03,0.77
1697353415.58,-0.5,-0.85,1.83,-15.7,2.8,-56.3,0.64,0.05,-0.03,0.77
1697353415.59,-0.01,-0.69,0.41,-6.1,1.8,-59.3,0.64,0.05,-0.03,0.76
1697353415.6,-0.32,-0.88,1.59,4.1,0.1,-61.6,0.65,0.05,-0.03,0.76
1697353415.61,-0.32,-1.04,1.33,6.3,0.2,-62.2,0.65,0.05,-0.03,0.76
1697353415.62,-0.35,-1.4,0.91,10.3,-0.1,-64.1,0.65,0.05,-0.03,0.76
1697353415.63,-0.09,-1.65,0.55,-1.1,0.1,-67.8,0.66,0.05,-0.03,0.75
1697353415.64,-0.36,-1.44,1.4,-1.1,0.1,-67.8,0.66,0.05,-0.03,0.75
1697353415.65,-0.1,-1.25,0.68,-12.2,0.4,-68.3,0.67,0.05,-0.03,0.74
1697353415.66,-0.13,-0.94,0.85,-7.5,0.3,-68.2,0.67,0.05,-0.03,0.74
1697353415.67,-0.41,-0.77,1.67,0.6,0.6,-67.2,0.68,0.05,-0.03,0.73
1697353415.68,-0.08,-0.96,0.81,0.6,0.6,-67.2,0.68,0.05,-0.03,0.73
1697353415.69,-0.36,-1.25,1.04,7.4,1,-66.4,0.69,0.05,-0.03,0.72
1697353415.7,-0.23,-1.59,1.23,7.4,1,-66.4,0.69,0.05,-0.03,0.72
1697353415.71,-0.39,-1.52,1.2,-5.5,1.7,-66.6,0.7,0.05,-0.03,0.71
1697353415.72,-0.16,-1.29,0.88,-5.5,1.7,-66.6,0.7,0.05,-0.03,0.71
1697353415.73,-0.28,-0.99,1.31,-5.7,2.2,-65.5,0.71,0.05,-0.03,0.71
1697353415.74,-0.13,-0.89,0.8,-0.3,2.9,-64.4,0.71,0.05,-0.03,0.71
1697353415.75,-0.24,-1,0.87,4.4,3.7,-63.8,0.71,0.05,-0.03,0.7
1697353415.76,-0.11,-1.15,1.05,5.4,3.6,-63.3,0.72,0.05,-0.03,0.69
1697353415.77,-0.13,-1.33,0.73,5.4,3.6,-63.3,0.72,0.05,-0.03,0.69
1697353415.78,-0.16,-1.35,0.98,2.9,3.3,-63.3,0.72,0.05,-0.03,0.69
1697353415.79,-0.28,-1.17,1.2,1.9,2.9,-63.5,0.72,0.05,-0.03,0.69
1697353415.8,-0.28,-1.17,1.2,-1.5,2,-64.7,0.73,0.05,-0.03,0.68
1697353415.81,-0.2,-0.98,0.96,-2.9,0.9,-64.8,0.73,0.05,-0.03,0.68
1697353415.82,-0.2,-0.98,0.96,-0.9,0.6,-63.9,0.74,0.05,-0.02,0.67
1697353415.83,-0.24,-0.96,1.28,2.5,0.1,-63.6,0.74,0.05,-0.02,0.67
1697353415.84,-0.18,-1.1,0.71,4.6,0,-62.9,0.74,0.05,-0.02,0.67
1697353415.85,-0.3,-1.15,1.41,4.9,0.3,-62.1,0.75,0.05,-0.02,0.66
1697353415.86,-0.07,-1.16,0.67,2.8,0.6,-61.3,0.75,0.05,-0.02,0.66
1697353415.87,-0.3,-1.07,1.11,0.5,1.5,-60.6,0.75,0.05,-0.02,0.66
1697353415.88,-0.3,-1.07,1.11,0.5,1.5,-60.6,0.75,0.05,-0.02,0.66
1697353415.89,-0.3,-1.07,1.11,0.5,1.5,-60.6,0.75,0.05,-0.02,0.66
1697353415.9,-0.3,-1.07,1.11,0.5,1.5,-60.6,0.75,0.05,-0.02,0.66
1697353415.91,-0.3,-1.07,1.11,0.5,1.5,-60.6,0.75,0.05,-0.02,0.66
1697353415.92,-0.3,-1.07,1.11,0.5,1.5,-60.6,0.75,0.05,-0.02,0.66
1697353415.93,-0.3,-1.07,1.11,0.5,1.5,-60.6,0.75,0.05,-0.02,0.66
1697353415.94,-0.3,-1.07,1.11,0.5,1.5,-60.6,0.75,0.05,-0.02,0.66
1697353415.95,-0.3,-1.07,1.11,0.5,1.5,-60.6,0.75,0.05,-0.02,0.66
1697353415.96,-0.3,-1.07,1.11,0.5,1.5,-60.6,0.75,0.05,-0.02,0.66
1697353415.97,-0.3,-1.07,1.11,0.5,1.5,-60.6,0.75,0.05,-0.02,0.66
1697353415.98,-0.3,-1.07,1.11,0.5,1.5,-60.6,0.75,0.05,-0.02,0.66
1697353415.99,-0.3,-1.07,1.11,0.5,1.5,-60.6,0.75,0.05,-0.02,0.66
1697353416,-0.14,-0.69,0.76,3.5,-0.7,-52.1,0.8,0.05,-0.02,0.6
1697353416.01,-0.09,-0.76,1.15,3.3,0,-50.5,0.8,0.05,-0.02,0.6
1697353416.02,-0.11,-0.79,0.62,1.9,0.9,-48.9,0.8,0.05,-0.02,0.59
1697353416.03,-0.22,-0.75,1.06,2,1.2,-47.6,0.8,0.06,-0.02,0.59
1697353416.04,-0.15,-0.69,1.01,2,1.2,-47.6,0.8,0.06,-0.02,0.59
1697353416.05,-0.14,-0.71,0.79,2.3,1.5,-44.7,0.81,0.06,-0.01,0.58
1697353416.06,-0.14,-0.61,1.19,2.6,1.7,-43.8,0.81,0.06,-0.01,0.58
1697353416.07,-0.13,-0.6,1.02,3,1.5,-41.9,0.81,0.06,-0.01,0.58
1697353416.08,-0.13,-0.6,1.02,3,1.5,-41.9,0.81,0.06,-0.01,0.58
1697353416.09,-0.1,-0.48,1.12,4.7,0.2,-39.8,0.82,0.06,-0.01,0.57
1697353416.1,-0.13,-0.51,0.83,4.7,0.2,-39.8,0.82,0.06,-0.01,0.57
1697353416.11,-0.05,-0.45,1.23,1.3,-0.3,-36.7,0.82,0.06,-0.01,0.57
1697353416.12,-0.05,-0.45,1.23,1.3,-0.3,-36.7,0.82,0.06,-0.01,0.57
1697353416.13,-0.01,-0.17,1.19,0.5,-0.2,-32.3,0.82,0.06,-0.01,0.56
1697353416.14,-0.01,-0.17,1.19,0.5,-0.2,-32.3,0.83,0.06,-0.01,0.56
1697353416.15,0,-0.01,0.72,1.7,0.1,-29.1,0.83,0.06,-0.01,0.56
1697353416.16,0,-0.01,0.72,3.7,0.4,-25.5,0.83,0.06,-0.01,0.56
1697353416.17,-0.08,-0.03,1.28,4.3,0.7,-22.3,0.83,0.06,-0.01,0.55
1697353416.18,0.01,-0,0.54,3.8,0.6,-19.2,0.83,0.06,-0.01,0.55
1697353416.19,-0.17,0.27,1.39,4.1,0.2,-14.4,0.83,0.06,-0.01,0.55
1697353416.2,-0.02,0.77,0.76,7.2,0.4,-8.6,0.83,0.06,-0.01,0.55
1697353416.21,-0.1,0.65,1.3,11.3,0.1,-2.4,0.83,0.06,-0.01,0.55
1697353416.22,-0.06,0.53,0.52,12.1,-0.1,3.7,0.83,0.06,-0.01,0.55
1697353416.23,-0.11,0.56,1.39,10.3,-0.9,9.4,0.83,0.06,-0.01,0.55
1697353416.24,-0.03,0.59,0.86,7.5,-1.6,14.5,0.83,0.06,-0.01,0.55
1697353416.25,-0.08,0.73,0.87,5.3,-1.8,19.5,0.83,0.06,-0.01,0.55
1697353416.26,-0.1,0.9,1.24,5.3,-1.8,19.5,0.83,0.06,-0.01,0.56
1697353416.27,-0.02,0.92,0.67,6.4,-2,23.3,0.83,0.06,-0.01,0.56
1697353416.28,-0.19,0.79,1.23,8.4,-2.3,26.5,0.83,0.06,-0.01,0.56
1697353416.29,-0.01,0.61,1.01,8.4,-2.3,26.5,0.83,0.06,-0.01,0.56
1697353416.3,-0.16,0.67,0.86,5.9,-3.6,29.7,0.82,0.07,-0.01,0.56
1697353416.31,-0.18,0.73,1.22,2.4,-3.3,30.4,0.82,0.07,-0.01,0.57
1697353416.32,-0.03,0.76,0.63,1.5,-2.8,30.3,0.82,0.07,-0.01,0.57
1697353416.33,-0.27,0.61,1.36,1.6,-2,29.9,0.82,0.07,-0.01,0.57
1697353416.34,0,0.68,0.95,1,-2,29.6,0.82,0.07,-0.01,0.57
1697353416.35,-0.02,0.64,0.68,-0.1,-1.6,29.3,0.82,0.07,-0.01,0.57
1697353416.36,-0.21,0.56,1.31,-1.8,-1,29.2,0.81,0.07,-0.01,0.58
1697353416.37,-0.01,0.67,0.8,-1.7,-0.7,28.6,0.81,0.07,-0.01,0.58
1697353416.38,-0.06,0.57,0.88,-0.1,0.3,28.7,0.81,0.07,-0.01,0.58
1697353416.39,0.07,0.47,0.61,0.6,1.4,28.8,0.81,0.07,-0.01,0.58
1697353416.4,-0.07,0.4,1.35,0.4,1.6,28.8,0.81,0.07,-0.01,0.58
1697353416.41,-0.07,0.4,1.35,0.4,1.6,28.8,0.81,0.07,-0.01,0.58
1697353416.42,-0.07,0.4,1.35,0.4,1.6,28.8,0.81,0.07,-0.01,0.58
1697353416.43,-0.07,0.4,1.35,0.4,1.6,28.8,0.81,0.07,-0.01,0.58
1697353416.44,-0.07,0.4,1.35,0.4,1.6,28.8,0.81,0.07,-0.01,0.58
1697353416.45,-0.07,0.4,1.35,0.4,1.6,28.8,0.81,0.07,-0.01,0.58
1697353416.46,-0.07,0.4,1.35,0.4,1.6,28.8,0.81,0.07,-0.01,0.58
1697353416.47,-0.07,0.4,1.35,0.4,1.6,28.8,0.81,0.07,-0.01,0.58
1697353416.48,-0.07,0.4,1.35,0.4,1.6,28.8,0.81,0.07,-0.01,0.58
1697353416.49,-0.07,0.4,1.35,0.4,1.6,28.8,0.81,0.07,-0.01,0.58
1697353416.5,-0.07,0.4,1.35,0.4,1.6,28.8,0.81,0.07,-0.01,0.58
1697353416.51,-0.07,0.4,1.35,0.4,1.6,28.8,0.81,0.07,-0.01,0.58
1697353416.52,-0.07,0.4,1.35,0.4,1.6,28.8,0.81,0.07,-0.01,0.58
1697353416.53,-0.07,0.4,1.35,0.4,1.6,28.8,0.81,0.07,-0.01,0.58
1697353416.54,-0.07,0.4,1.35,0.4,1.6,28.8,0.81,0.07,-0.01,0.58
1697353416.55,-0.07,0.4,1.35,0.4,1.6,28.8,0.81,0.07,-0.01,0.58
1697353416.56,-0.07,0.4,1.35,0.4,1.6,28.8,0.81,0.07,-0.01,0.58
1697353416.57,-0.07,0.4,1.35,0.4,1.6,28.8,0.81,0.07,-0.01,0.58
1697353416.58,-0.07,0.4,1.35,0.4,1.6,28.8,0.81,0.07,-0.01,0.58
1697353416.59,-0.07,0.4,1.35,0.4,1.6,28.8,0.81,0.07,-0.01,0.58
1697353416.6,-0.07,0.4,1.35,0.4,1.6,28.8,0.81,0.07,-0.01,0.58
1697353416.61,0.1,0.26,0.96,-1.8,-1.4,28.2,0.78,0.06,-0.01,0.63
1697353416.62,-0.06,0.35,1.03,-1.8,-1.4,28.2,0.77,0.06,-0.01,0.63
1697353416.63,-0.08,0.27,1.11,-1.7,-1.8,26.4,0.77,0.06,-0.01,0.63
1697353416.64,-0.1,0.3,0.73,-1.9,-0.6,25.4,0.77,0.06,-0.01,0.63
1697353416.65,-0.14,0.34,1.28,1.3,0.5,24.2,0.77,0.06,-0.01,0.63
1697353416.66,0.09,0.17,0.57,1.3,0.5,24.2,0.77,0.06,-0.01,0.64
1697353416.67,0.09,0.17,0.57,1.8,0.9,23.3,0.77,0.06,-0.01,0.64
1697353416.68,-0.14,0.28,1.52,0.6,1.5,22.3,0.77,0.06,-0.01,0.64
1697353416.69,-0.14,0.28,1.52,-0.3,1.7,20.8,0.77,0.06,-0.01,0.64
1697353416.7,0.02,0.26,0.45,-2,1.9,20,0.76,0.06,-0.02,0.64
1697353416.71,-0.14,0.32,1.34,-1.6,2,19.1,0.76,0.06,-0.02,0.64
1697353416.72,0.02,0.19,0.5,-0.4,1.1,18.4,0.76,0.06,-0.02,0.64
1697353416.73,0.04,0.32,1,-0.2,0.2,18.1,0.76,0.06,-0.02,0.65
1697353416.74,-0.05,0.19,0.9,0.1,-0.7,17.7,0.76,0.06,-0.02,0.65
1697353416.75,-0.1,0.18,0.76,0,-0.9,17.6,0.76,0.06,-0.02,0.65
1697353416.76,-0.06,0.18,1.15,-1.2,-0.8,17.3,0.76,0.06,-0.02,0.65
1697353416.77,-0.02,0.24,0.7,-2.2,-0.2,17.1,0.76,0.06,-0.02,0.65
1697353416.78,-0.11,0.31,1.12,-2,-0.4,17.4,0.76,0.06,-0.02,0.65
1697353416.79,-0.13,0.17,1.15,-0.4,-0.4,17.5,0.75,0.06,-0.02,0.65
1697353416.8,-0.3,0.21,1.27,0.1,-0.1,17.1,0.75,0.06,-0.02,0.65
1697353416.81,-0.27,0.2,0.79,-0.1,0.5,16.9,0.75,0.06,-0.02,0.65
1697353416.82,-0.27,0.25,1.1,-0.2,1.2,16.7,0.75,0.06,-0.02,0.66
1697353416.83,-0.11,0.42,1.05,-0.2,1.3,16,0.75,0.06,-0.02,0.66
1697353416.84,0.04,0.22,1.12,2.3,1.2,16.2,0.75,0.06,-0.02,0.66
1697353416.85,-0.02,0.29,0.86,1.3,0.3,16.8,0.75,0.06,-0.02,0.66
1697353416.86,-0.09,0.21,1.09,1.1,0.2,17.5,0.75,0.06,-0.02,0.66
1697353416.87,0.01,0.27,1.13,1,0.1,17.6,0.75,0.06,-0.02,0.66
1697353416.88,-0,0.27,0.83,0.2,0.4,18,0.75,0.06,-0.02,0.66
1697353416.89,0.08,0.28,0.99,0.7,0.6,17.9,0.75,0.06,-0.02,0.66
1697353416.9,-0.15,0.24,1.1,0.8,0.4,17.7,0.74,0.06,-0.02,0.66
1697353416.91,0.22,0.18,1.15,1,1,17.5,0.74,0.06,-0.02,0.67
1697353416.92,0.22,0.18,1.15,1,1,17.5,0.74,0.06,-0.02,0.67
1697353416.93,0.44,0.22,0.64,0.4,-0.3,16.9,0.74,0.06,-0.02,0.67
1697353416.94,0.29,0.3,0.94,-0.1,-1.1,16.3,0.74,0.06,-0.02,0.67
1697353416.95,0.06,0.38,1.19,-0.1,-1.1,15.6,0.74,0.06,-0.02,0.67
1697353416.96,-0.01,0.28,1.02,0.3,-0.2,15.2,0.74,0.06,-0.02,0.67
1697353416.97,-0.1,0.36,0.93,0.7,0.9,15.4,0.74,0.06,-0.02,0.67
1697353416.98,-0.13,0.22,0.81,0.8,2.1,15.8,0.74,0.06,-0.02,0.67
1697353416.99,-0.14,0.22,1.36,0.6,3.3,15.7,0.74,0.06,-0.02,0.67
1697353417,-0.02,0.18,0.96,-0.3,3.5,15.9,0.73,0.06,-0.02,0.67
1697353417.01,-0.02,0.18,0.96,-0.3,3.5,15.9,0.73,0.06,-0.02,0.67
1697353417.02,-0.02,0.18,0.96,-0.3,3.5,15.9,0.73,0.06,-0.02,0.67
1697353417.03,-0.02,0.18,0.96,-0.3,3.5,15.9,0.73,0.06,-0.02,0.67
1697353417.04,-0.02,0.18,0.96,-0.3,3.5,15.9,0.73,0.06,-0.02,0.67
1697353417.05,-0.02,0.18,0.96,-0.3,3.5,15.9,0.73,0.06,-0.02,0.67
1697353417.06,-0.02,0.18,0.96,-0.3,3.5,15.9,0.73,0.06,-0.02,0.67
1697353417.07,-0.02,0.18,0.96,-0.3,3.5,15.9,0.73,0.06,-0.02,0.67
1697353417.08,-0.02,0.18,0.96,-0.3,3.5,15.9,0.73,0.06,-0.02,0.67
1697353417.09,-0.02,0.18,0.96,-0.3,3.5,15.9,0.73,0.06,-0.02,0.67
1697353417.1,-0.02,0.18,0.96,-0.3,3.5,15.9,0.73,0.06,-0.02,0.67
1697353417.11,-0.02,0.18,0.96,-0.3,3.5,15.9,0.73,0.06,-0.02,0.67
1697353417.12,-0.02,0.18,0.96,-0.3,3.5,15.9,0.73,0.06,-0.02,0.67
1697353417.13,-0.02,0.18,0.96,-0.3,3.5,15.9,0.73,0.06,-0.02,0.67
1697353417.14,-0.02,0.18,0.96,-0.3,3.5,15.9,0.73,0.06,-0.02,0.67
1697353417.15,-0.02,0.3,0.96,0.5,0.9,15.7,0.72,0.06,-0.02,0.69
1697353417.16,-0.07,0.21,1.21,1.6,0.6,15.8,0.72,0.06,-0.02,0.69
1697353417.17,0.19,0.25,0.6,1.7,0,16.1,0.72,0.06,-0.02,0.69
1697353417.18,0.15,0.26,1.4,1.6,0,16.2,0.72,0.06,-0.02,0.69
1697353417.19,0.26,0.25,0.62,2.4,-0.6,16,0.72,0.06,-0.02,0.69
1697353417.2,0.24,0.24,0.91,1.6,-0.9,15.9,0.72,0.06,-0.02,0.69
1697353417.21,-0.03,0.31,1.02,0.9,-0.8,15.4,0.72,0.06,-0.02,0.69
1697353417.22,-0.2,0.32,1.2,0.4,0,15.2,0.72,0.06,-0.02,0.7
1697353417.23,-0.05,0.38,1.06,0.5,1,15.9,0.71,0.06,-0.02,0.7
1697353417.24,-0.1,0.29,1.29,0.8,2,16.7,0.71,0.06,-0.02,0.7
1697353417.25,-0.02,0.29,0.69,0,2.2,17.7,0.71,0.06,-0.02,0.7
1697353417.26,0.02,0.32,1.23,-0.8,2.4,18.1,0.71,0.06,-0.02,0.7
1697353417.27,-0.1,0.35,0.83,-1.4,2.2,18.6,0.71,0.06,-0.02,0.7
1697353417.28,0.06,0.46,1.22,-1.2,1.3,19.3,0.71,0.06,-0.02,0.7
1697353417.29,0.06,0.41,0.68,0.1,0.1,19.9,0.71,0.06,-0.02,0.7
1697353417.3,-0.01,0.41,1.55,1.3,-0.8,20.4,0.71,0.06,-0.02,0.7
1697353417.31,0.23,0.34,0.3,1.5,-2,20.7,0.71,0.06,-0.02,0.71
1697353417.32,0.11,0.34,1.7,1.1,-2.4,20.8,0.7,0.06,-0.02,0.71
1697353417.33,0.3,0.52,0.32,1.1,-2.7,20.9,0.7,0.06,-0.02,0.71
1697353417.34,0.07,0.6,1.31,1.1,-2.7,20.9,0.7,0.06,-0.02,0.71
1697353417.35,0.04,0.52,0.89,3.5,-1.9,22.6,0.7,0.06,-0.02,0.71
1697353417.36,-0.1,0.62,1.07,3.8,-1.1,24.4,0.7,0.06,-0.02,0.71
1697353417.37,-0.11,0.58,0.92,2.6,0,26.9,0.7,0.06,-0.02,0.71
1697353417.38,-0.04,0.51,1.07,1.6,1,29,0.7,0.06,-0.02,0.72
1697353417.39,-0.08,0.7,0.58,0.2,1.6,30.8,0.69,0.06,-0.02,0.72
1697353417.4,-0.14,0.58,1.24,-1.1,2.2,33,0.69,0.06,-0.02,0.72
1697353417.41,0.15,0.65,0.63,-0.6,1.9,33.7,0.69,0.06,-0.02,0.72
1697353417.42,0.07,0.64,1.59,0.4,0.9,33.7,0.69,0.06,-0.02,0.72
1697353417.43,0.26,0.51,0.34,1.1,-0.3,33.7,0.69,0.06,-0.02,0.73
1697353417.44,0.06,0.51,1.83,1.1,-0.3,33.7,0.68,0.06,-0.02,0.73
1697353417.45,0.11,0.53,1.16,-0.9,-2.6,32,0.68,0.06,-0.02,0.73
1697353417.46,-0.04,0.48,1.01,-1.5,-3.1,31.4,0.68,0.06,-0.02,0.73
1697353417.47,-0.04,0.48,1.01,-1.5,-3.1,31.4,0.68,0.06,-0.02,0.73
1697353417.48,-0.04,0.58,1.16,-2.7,-1.1,30.4,0.68,0.06,-0.02,0.73
1697353417.49,0.08,0.51,0.86,-2.7,-1.1,30.4,0.67,0.06,-0.02,0.74
1697353417.5,-0.09,0.56,1.17,-0.5,1.1,30.6,0.67,0.06,-0.02,0.74
1697353417.51,-0,0.46,0.86,0.7,1.4,30.4,0.67,0.06,-0.02,0.74
1697353417.52,-0,0.46,0.86,0.7,1.4,30.4,0.67,0.06,-0.02,0.74
1697353417.53,-0,0.36,1.42,0.9,1.2,29.6,0.66,0.06,-0.02,0.74
1697353417.54,-0,0.36,1.42,0.9,1.2,29.6,0.66,0.06,-0.02,0.74
1697353417.55,-0,0.36,1.42,0.9,1.2,29.6,0.66,0.06,-0.02,0.74
1697353417.56,-0,0.36,1.42,0.9,1.2,29.6,0.66,0.06,-0.02,0.74
1697353417.57,-0,0.36,1.42,0.9,1.2,29.6,0.66,0.06,-0.02,0.74
1697353417.58,-0,0.36,1.42,0.9,1.2,29.6,0.66,0.06,-0.02,0.74
1697353417.59,-0,0.36,1.42,0.9,1.2,29.6,0.66,0.06,-0.02,0.74
1697353417.6,-0,0.36,1.42,0.9,1.2,29.6,0.66,0.06,-0.02,0.74
1697353417.61,-0,0.36,1.42,0.9,1.2,29.6,0.66,0.06,-0.02,0.74
1697353417.62,-0,0.36,1.42,0.9,1.2,29.6,0.66,0.06,-0.02,0.74
1697353417.63,-0,0.36,1.42,0.9,1.2,29.6,0.66,0.06,-0.02,0.74
1697353417.64,-0,0.36,1.42,0.9,1.2,29.6,0.66,0.06,-0.02,0.74
1697353417.65,-0,0.36,1.42,0.9,1.2,29.6,0.66,0.06,-0.02,0.74
1697353417.66,-0,0.36,1.42,0.9,1.2,29.6,0.66,0.06,-0.02,0.74
1697353417.67,0.18,0.34,1.01,-0.1,1.2,23,0.64,0.06,-0.02,0.76
1697353417.68,0.15,0.33,0.92,0.1,0.6,22.8,0.64,0.06,-0.02,0.77
1697353417.69,0.27,0.39,0.93,1.8,0,22.6,0.64,0.06,-0.02,0.77
1697353417.7,0.1,0.41,0.87,2.9,-0.9,22.5,0.64,0.06,-0.02,0.77
1697353417.71,0.13,0.29,1.01,1.6,-1.9,22.4,0.63,0.06,-0.02,0.77
1697353417.72,0.1,0.21,0.69,1.6,-1.9,22.4,0.63,0.06,-0.02,0.77
1697353417.73,0.03,0.34,0.99,-0.8,-2.3,22.2,0.63,0.06,-0.02,0.77
1697353417.74,0.03,0.34,0.99,-0.8,-2.3,22.2,0.63,0.06,-0.02,0.77
1697353417.75,0.07,0.35,0.95,-2.5,-2.8,20.9,0.63,0.06,-0.03,0.77
1697353417.76,0.07,0.35,0.95,-2.5,-2.8,20.9,0.63,0.06,-0.03,0.77
1697353417.77,0.18,0.15,1.05,-1.3,-3,20,0.63,0.06,-0.03,0.78
1697353417.78,0.22,0.22,1.02,-1.5,-3,19.2,0.63,0.06,-0.03,0.78
1697353417.79,0.14,0.19,1.13,-2.8,-1.3,16.5,0.62,0.06,-0.03,0.78
1697353417.8,0.14,0.19,1.13,-2.8,-1.3,16.5,0.62,0.06,-0.03,0.78
1697353417.81,0.1,0.23,1.04,-1.8,-0.8,15.1,0.62,0.06,-0.03,0.78
1697353417.82,0.1,0.23,1.04,-1.8,-0.8,15.1,0.62,0.06,-0.03,0.78
1697353417.83,0.09,0.08,1.22,-0.9,0,14.8,0.62,0.06,-0.03,0.78
1697353417.84,0.05,0.15,0.9,-0.9,0,14.8,0.62,0.06,-0.03,0.78
1697353417.85,0.09,0.09,1.22,-1.1,0.4,14.5,0.62,0.06,-0.03,0.78
1697353417.86,0.21,0.19,0.86,0,0.4,13.8,0.62,0.06,-0.03,0.78
1697353417.87,0.21,0.19,0.86,0,0.4,13.8,0.62,0.06,-0.03,0.78
1697353417.88,0.18,0.09,0.99,0.9,0.3,13.4,0.62,0.06,-0.03,0.79
1697353417.89,0.18,0.09,0.99,1.8,-0.2,12.7,0.61,0.06,-0.03,0.79
1697353417.9,0.14,0.18,1.07,2.2,-0.3,11.2,0.61,0.06,-0.03,0.79
1697353417.91,0.14,0.18,1.07,2.2,-0.3,11.2,0.61,0.06,-0.03,0.79
1697353417.92,0.21,0.16,0.96,2.5,-0.8,11.1,0.61,0.06,-0.03,0.79
1697353417.93,0,0.16,1.13,1.6,-0.7,10.8,0.61,0.06,-0.03,0.79
1697353417.94,0.1,0.11,0.85,-0.2,-0.5,11.2,0.61,0.06,-0.03,0.79
1697353417.95,-0.15,0.21,0.92,-2.4,0,11.8,0.61,0.06,-0.03,0.79
1697353417.96,-0.19,0.36,1.12,-3.7,0.7,12.6,0.61,0.06,-0.03,0.79
1697353417.97,-0.12,0.42,0.81,-2,1.7,13.4,0.61,0.06,-0.03,0.79
1697353417.98,-0.07,0.25,1.17,1.2,2.9,14.4,0.61,0.06,-0.03,0.79
1697353417.99,-0.07,0.11,0.42,2.8,3.8,15.1,0.61,0.06,-0.03,0.79
1697353418,0.01,0.14,1.62,-0.7,4.1,14.4,0.6,0.06,-0.02,0.79
1697353418.01,-0.09,0.2,0.56,-0.9,3.6,14.5,0.6,0.06,-0.02,0.79
1697353418.02,-0.32,0.33,1.47,1.1,3.5,14.7,0.6,0.06,-0.02,0.8
1697353418.03,-0.2,0.45,0.88,3.5,3.3,15.2,0.6,0.06,-0.02,0.8
1697353418.04,-0.3,0.36,0.96,5.2,2.7,15.4,0.6,0.06,-0.02,0.8
1697353418.05,-0.12,0.38,1.01,4.6,1.1,15.7,0.6,0.06,-0.02,0.8
1697353418.06,-0.12,0.38,1.01,4.6,1.1,15.7,0.6,0.06,-0.02,0.8
1697353418.07,-0.12,0.38,1.01,4.6,1.1,15.7,0.6,0.06,-0.02,0.8
1697353418.08,-0.12,0.38,1.01,4.6,1.1,15.7,0.6,0.06,-0.02,0.8
1697353418.09,-0.12,0.38,1.01,4.6,1.1,15.7,0.6,0.06,-0.02,0.8
1697353418.1,-0.12,0.38,1.01,4.6,1.1,15.7,0.6,0.06,-0.02,0.8
1697353418.11,-0.12,0.38,1.01,4.6,1.1,15.7,0.6,0.06,-0.02,0.8
1697353418.12,-0.12,0.38,1.01,4.6,1.1,15.7,0.6,0.06,-0.02,0.8
1697353418.13,-0.12,0.38,1.01,4.6,1.1,15.7,0.6,0.06,-0.02,0.8
1697353418.14,-0.12,0.38,1.01,4.6,1.1,15.7,0.6,0.06,-0.02,0.8
1697353418.15,-0.12,0.38,1.01,4.6,1.1,15.7,0.6,0.06,-0.02,0.8
1697353418.16,-0.12,0.38,1.01,4.6,1.1,15.7,0.6,0.06,-0.02,0.8
